Application:, Trigno Discover (1.6.5)
Date/Time:, 04/02/2025 15:49:13
Collection Length (seconds):, 50.3145
wrist (81457), , , , , , bicep (81139)
sensor mode: 609, , , , , , sensor mode: 40
ACC X (G), ACC Y (G), ACC Z (G), GYRO X (deg/s), GYRO Y (deg/s), GYRO Z (deg/s), EMG 1 (mV)
370.3704 Hz, 370.3704 Hz, 370.3704 Hz, 370.3704 Hz, 370.3704 Hz, 370.3704 Hz, 2148.1481 Hz
-1.0258789, -0.0170898, -0.1567383, 0.1829268, -5.0609756, 5.3048782, 0.3858854
-1.0200195, -0.0087891, -0.1577148, 0.6097561, -4.8170733, 5.9756098, 0.3915923
-1.0136719, 0.0019531, -0.168457, 1.0365853, -5.1219511, 6.4634147, 0.3764858
-1.0131836, 0.0087891, -0.171875, 0.6707317, -5.1829271, 6.5853658, 0.3503014
-1.0043945, 0.0131836, -0.171875, -0.2439024, -5.4878049, 6.0365853, 0.3315023
-1.0009766, 0.0097656, -0.1694336, -0.8536586, -5.670732, 5.3658538, 0.3241169
-0.9960938, -0.0024414, -0.1630859, -1.4634147, -5.609756, 4.0853658, 0.2596628
-1.0019531, -0.0092773, -0.1572266, -1.7073171, -5.670732, 4.0853658, 0.2465705
-1.0029297, -0.015625, -0.1523438, -1.7682927, -5.8536587, 4.4512196, 0.2455634
-0.9970703, -0.0195312, -0.1494141, -1.2195122, -5.9146342, 4.9390244, 0.2109865
-0.9931641, -0.0205078, -0.1450195, -0.8536586, -5.8536587, 5.3048782, 0.1797665
-0.9926758, -0.0185547, -0.1474609, 0.0609756, -5.670732, 5.4268293, 0.1822843
-0.9956055, -0.012207, -0.152832, 0.2439024, -5.7317076, 5.7926831, 0.1414969
-1.0019531, -0.0092773, -0.1577148, 0.3658537, -5.9146342, 5.8536587, 0.0884565
-1.0063477, -0.0029297, -0.1630859, 0.6097561, -5.7926831, 6.280488, 0.0998703
-1.0131836, -0.0004883, -0.1669922, 0.0609756, -6.4634147, 6.3414636, 0.0990311
-1.0126953, -0.003418, -0.171875, -0.4268293, -6.5853658, 6.1585369, 0.0991989
-1.0175781, -0.0048828, -0.1655273, -1.402439, -6.8292685, 5.8536587, 0.1173266
-1.0249023, -0.0078125, -0.1625977, -2.0121951, -7.1341467, 5.2439027, 0.1351186
-1.0268555, -0.0097656, -0.1611328, -2.3170731, -6.890244, 5.0609756, 0.082414
-1.0239258, -0.0185547, -0.1479492, -1.7682927, -6.7682929, 4.7560978, 0.0931563
-1.0253906, -0.0180664, -0.1430664, -1.0365853, -6.7682929, 5.0609756, 0.1186694
-1.0224609, -0.0200195, -0.1411133, 0.3658537, -6.280488, 5.609756, 0.1327687
-1.0224609, -0.0205078, -0.1420898, 1.2195122, -6.2195125, 5.670732, 0.1723812
-1.0175781, -0.0229492, -0.1499023, 1.7073171, -5.9756098, 6.1585369, 0.2601663
-1.012207, -0.0170898, -0.1474609, 1.5243902, -6.0365853, 6.2195125, 0.3113603
-1.0126953, -0.0112305, -0.1430664, 1.097561, -5.670732, 6.2195125, 0.3315023
-1.0083008, -0.0078125, -0.1445312, 1.1585366, -5.670732, 6.280488, 0.3937743
-1.0083008, -0.0048828, -0.1523438, 0.4878049, -5.0609756, 6.2195125, 0.4476539
-1.0078125, -0.0063477, -0.1621094, 0.3658537, -5.0609756, 6.1585369, 0.5079118
-1.012207, -0.0068359, -0.1635742, 0.3658537, -5.3658538, 5.9756098, 0.5564202
-1.0151367, -0.0083008, -0.1625977, 0.7317073, -5.4878049, 6.2195125, 0.6215457
-1.0195312, -0.0078125, -0.1645508, 0.9146342, -5.9756098, 5.9146342, 0.6957351
-1.0224609, 0.0014648, -0.1748047, 0.9756098, -6.280488, 6.0365853, 0.7816739
-1.0244141, 0.0043945, -0.1748047, 0.8536586, -6.4024391, 6.0975609, 0.8551919
-1.0268555, 0.0131836, -0.1762695, -0.0609756, -6.3414636, 5.9756098, 0.8441138
-1.0253906, 0.0151367, -0.1777344, -0.2439024, -6.7073174, 6.1585369, 0.8833906
-1.0185547, 0.015625, -0.1743164, -1.5243902, -7.4390244, 5.609756, 0.9354238
-1.0097656, 0.012207, -0.1665039, -2.0731707, -7.5, 5.1219511, 0.9706722
-1.0073242, 0.0087891, -0.1611328, -2.804878, -8.0487804, 4.3292685, 1.0028992
-1.0131836, 0.0014648, -0.1572266, -3.6585367, -8.5365858, 4.1463413, 1.0727245
-1.012207, 0.0048828, -0.15625, -4.0243902, -8.4146347, 4.2682929, 1.0807813
-1.0087891, 0.0131836, -0.1552734, -4.0243902, -8.1707315, 4.8170733, 1.0451972
-1.0097656, 0.0151367, -0.1582031, -3.9024391, -8.2926826, 4.9390244, 1.0703746
-1.0097656, 0.0151367, -0.1572266, -3.9634147, -8.5365858, 5.2439027, 1.0834668
-1.012207, 0.0126953, -0.1577148, -4.4512196, -8.4756098, 5.1219511, 1.0764172
-1.0131836, 0.0083008, -0.1479492, -5.3048782, -8.5975609, 4.4512196, 1.0673533
-1.0092773, 0.0058594, -0.1430664, -5.3048782, -8.4146347, 4.3292685, 1.0401617
-1.0161133, -0.0019531, -0.1479492, -5.4878049, -7.8658538, 3.8414636, 0.9579156
-1.0175781, -0.0097656, -0.1484375, -5.7926831, -7.9268293, 3.9024391, 0.9255207
-1.0175781, -0.0166016, -0.1464844, -5.9146342, -8.1097565, 4.2682929, 0.9031968
-1.0170898, -0.0214844, -0.1464844, -6.3414636, -7.6219516, 4.390244, 0.8629129
-1.0166016, -0.0234375, -0.1455078, -6.1585369, -7.0731707, 4.5731707, 0.8014801
-1.0219727, -0.019043, -0.1450195, -5.5487804, -6.6463418, 4.8170733, 0.7726101
-1.0239258, -0.0166016, -0.1533203, -4.7560978, -6.890244, 4.5731707, 0.6920424
-1.03125, -0.0102539, -0.1645508, -4.4512196, -6.7682929, 5.1829271, 0.5846189
-1.0258789, -0.0078125, -0.1665039, -4.390244, -7.1341467, 5.1219511, 0.5423209
-1.0180664, -0.0043945, -0.1591797, -4.6341462, -7.3780489, 5.0609756, 0.4961624
-1.0112305, -0.0073242, -0.1518555, -4.9390244, -7.1951222, 5.0609756, 0.4568856
-0.9980469, -0.015625, -0.1396484, -5.5487804, -6.9512196, 4.3292685, 0.4144198
-0.9902344, -0.0200195, -0.1337891, -5.2439027, -6.7682929, 4.0853658, 0.3546654
-0.9887695, -0.0205078, -0.1323242, -5.3658538, -6.0975609, 3.9634147, 0.3053178
-0.9858398, -0.0117188, -0.1352539, -4.8170733, -5.8536587, 4.4512196, 0.2667124
-0.9858398, -0.0048828, -0.1391602, -4.5731707, -5.670732, 4.6341462, 0.2422065
-0.9868164, 0.0097656, -0.1459961, -4.2682929, -5.4878049, 5.4268293, 0.1586175
-0.9892578, 0.0170898, -0.1523438, -4.2682929, -5.670732, 5.7926831, 0.1122911
-0.9892578, 0.0263672, -0.1635742, -4.6341462, -5.9146342, 5.9146342, 0.0951705
-0.9912109, 0.0268555, -0.1665039, -5.2439027, -6.0365853, 5.7926831, 0.0770428
-1, 0.0136719, -0.1679688, -6.8292685, -6.2195125, 4.8170733, 0.0867781
-1.0083008, 0.0029297, -0.1606445, -7.6219516, -6.7682929, 4.2682929, 0.1190051
-1.0161133, -0.0029297, -0.1542969, -7.9268293, -7.1951222, 3.9024391, 0.0897993
-1.0283203, -0.0131836, -0.1450195, -7.8048782, -6.9512196, 3.7804878, 0.023331
-1.0283203, -0.0107422, -0.1430664, -7.0731707, -6.8292685, 4.2682929, 0.0078889
-1.0175781, -0.0200195, -0.1425781, -6.4634147, -6.280488, 4.6341462, 0.002182
-1.0170898, -0.0195312, -0.1391602, -6.4024391, -6.0365853, 4.6951222, 0.0159457
-1.0024414, -0.0146484, -0.1435547, -6.2195125, -5.4878049, 4.9390244, 0.0327306
-0.9995117, -0.012207, -0.144043, -5.9756098, -5.4268293, 4.8170733, 0.0535439
-0.9960938, -0.0078125, -0.1489258, -5.670732, -5.4268293, 4.8170733, -0.0041962
-0.9916992, -0.0058594, -0.152832, -5.670732, -5.4268293, 5, -0.0377661
-0.9946289, -0.0014648, -0.1621094, -6.0975609, -5.5487804, 5.4268293, -0.0498512
-0.9956055, 0.0014648, -0.1625977, -5.9756098, -5.670732, 5.5487804, -0.0795605
-0.9970703, 0.0048828, -0.1645508, -6.1585369, -6.2195125, 5.670732, -0.1117876
-0.9985352, 0.0102539, -0.159668, -6.4024391, -6.1585369, 5.5487804, -0.1025559
-0.9970703, 0.0107422, -0.1572266, -6.4634147, -6.7682929, 4.6951222, -0.1519036
-1.0019531, 0.0063477, -0.152832, -7.0731707, -6.8292685, 4.5121951, -0.2364996
-1.0004883, 0.0073242, -0.1484375, -7.0731707, -6.5243902, 4.5731707, -0.2687266
-0.9985352, 0.0097656, -0.1455078, -7.5, -6.5853658, 4.3292685, -0.3002823
-0.9960938, 0.0117188, -0.1464844, -7.5, -6.4024391, 4.390244, -0.3268025
-0.9887695, 0.0175781, -0.1513672, -8.1707315, -6.0975609, 4.6951222, -0.4085451
-0.9863281, 0.0170898, -0.1484375, -8.2926826, -6.0975609, 4.6341462, -0.5060655
-0.9858398, 0.0175781, -0.1479492, -8.780488, -6.4634147, 4.5731707, -0.5993896
-0.9868164, 0.015625, -0.1499023, -8.9634151, -6.3414636, 4.2682929, -0.6682078
-0.9873047, 0.0097656, -0.1494141, -9.5731707, -6.2195125, 4.0243902, -0.7135271
-0.9931641, 0, -0.1430664, -9.2682924, -6.3414636, 3.5975611, -0.8290074
-0.9936523, -0.0004883, -0.1420898, -9.4512196, -6.2195125, 3.7195122, -0.9000076
-1.0014648, 0.0009766, -0.1401367, -9.3292685, -5.8536587, 3.7195122, -0.9817502
-1.0009766, 0.0024414, -0.1391602, -8.9024391, -5.8536587, 3.9024391, -1.0738994
-0.9931641, 0, -0.1445312, -9.2682924, -5.4268293, 4.0243902, -1.155642
-0.9951172, 0.0009766, -0.1484375, -9.3292685, -5.3658538, 4.0243902, -1.1930724
-0.9921875, 0.0097656, -0.15625, -9.3902445, -5.5487804, 3.8414636, -1.2660868
-0.9951172, 0.0126953, -0.1625977, -9.3902445, -5.4878049, 3.9024391, -1.3540398
-1.0053711, 0.0161133, -0.1806641, -9.4512196, -5.3658538, 4.0853658, -1.3960021
-1.0058594, 0.0175781, -0.1879883, -9.8780489, -5.609756, 4.1463413, -1.438468
-1.015625, 0.0112305, -0.1958008, -10.8536587, -6.3414636, 3.9634147, -1.478584
-1.0200195, 0.0068359, -0.1914062, -11.4634151, -6.9512196, 3.9024391, -1.4980545
-1.0205078, 0.0009766, -0.1884766, -11.7073174, -7.6219516, 3.9024391, -1.5121538
-1.0170898, -0.0083008, -0.1762695, -11.6463413, -8.1097565, 3.4146342, -1.5828183
-1.0161133, -0.0107422, -0.175293, -11.6463413, -8.0487804, 3.2317073, -1.611017
-1.0097656, -0.0102539, -0.175293, -11.8902445, -7.8048782, 3.5365853, -1.6135348
-1.0083008, -0.0092773, -0.1767578, -11.8292685, -7.4390244, 3.6585367, -1.6157168
-0.9990234, -0.0063477, -0.1835938, -12.1951218, -7.3780489, 4.2073174, -1.5897002
-0.9956055, -0.0039062, -0.1875, -12.3170738, -7.2560978, 4.7560978, -1.5116503
-0.9941406, 0.012207, -0.1987305, -13.6585369, -7.6219516, 5.1829271, -1.4879835
-0.996582, 0.0161133, -0.2041016, -15.4878054, -7.3780489, 5.3658538, -1.5049363
-0.996582, 0.0336914, -0.215332, -19.2073174, -7.3780489, 5.4878049, -1.4705272
-0.9985352, 0.0439453, -0.2099609, -21.6463413, -7.6829271, 5.3658538, -1.4302434
-0.996582, 0.0478516, -0.2026367, -24.5121956, -8.780488, 5.7317076, -1.366125
-0.9912109, 0.0488281, -0.1801758, -24.8780499, -9.6951218, 4.7560978, -1.3134203
-0.9833984, 0.0478516, -0.1738281, -24.8170738, -10, 4.2073174, -1.2734722
-0.9770508, 0.0483398, -0.1611328, -24.3292694, -9.9390249, 2.804878, -1.2039826
-0.9750977, 0.0429688, -0.1542969, -24.3902435, -9.6951218, 2.1341465, -1.1308003
-0.9726562, 0.0317383, -0.1450195, -24.8780499, -9.6341467, 1.7682927, -1.0616464
-0.9697266, 0.0258789, -0.140625, -25.2439022, -9.3292685, 1.4634147, -1.0613107
-0.965332, 0.0141602, -0.137207, -26.0975609, -8.9634151, 1.5243902, -1.0247196
-0.9624023, 0.0029297, -0.1386719, -26.280489, -8.4756098, 1.2195122, -0.9736934
-0.9716797, -0.0097656, -0.140625, -26.4634151, -8.0487804, 1.2195122, -0.9266957
-0.984375, -0.0136719, -0.1376953, -25.1829281, -8.2317076, 1.5243902, -0.8796979
-0.9882812, -0.0175781, -0.1401367, -24.3902435, -7.8658538, 1.2195122, -0.8018158
-0.9995117, -0.019043, -0.1489258, -22.560976, -7.8658538, 1.6463414, -0.7850309
-1.0029297, -0.0180664, -0.1547852, -21.6463413, -7.8048782, 1.6463414, -0.7878843
-1.0039062, -0.0112305, -0.1650391, -20.3658543, -7.2560978, 2.1341465, -0.7413901
-1.0053711, -0.0117188, -0.1645508, -19.6951218, -7.0121951, 2.1341465, -0.7232624
-1.0019531, -0.0053711, -0.1582031, -18.8414631, -7.2560978, 2.3780489, -0.7178912
-0.996582, -0.0039062, -0.1586914, -18.5365849, -7.1951222, 2.195122, -0.7098344
-0.9838867, -0.0073242, -0.168457, -17.8658543, -6.5853658, 2.0731707, -0.6938888
-0.9814453, -0.0131836, -0.1738281, -17.560976, -6.5853658, 1.8902439, -0.740383
-0.9858398, -0.0214844, -0.1870117, -16.7682934, -6.5853658, 2.4390244, -0.7387045
-0.9921875, -0.0273438, -0.190918, -15.7317076, -7.2560978, 3.5975611, -0.709163
-1, -0.0307617, -0.1967773, -15.2439032, -7.9878049, 4.0243902, -0.71252
-1.0112305, -0.03125, -0.2026367, -14.8170738, -8.719512, 4.5121951, -0.7282979
-1.0161133, -0.0322266, -0.2045898, -14.5731707, -8.841464, 4.5121951, -0.6943923
-1.0224609, -0.027832, -0.2036133, -14.4512196, -9.2073174, 4.5731707, -0.7220874
-1.0292969, -0.0205078, -0.2026367, -14.3292685, -9.3292685, 4.6341462, -0.7702602
-1.0268555, -0.015625, -0.2016602, -14.0853662, -9.3292685, 4.6951222, -0.7340047
-1.0244141, -0.0097656, -0.2016602, -13.780488, -9.3292685, 5, -0.7061418
-1.0239258, 0.0024414, -0.215332, -13.0487804, -9.2682924, 5.3658538, -0.6742504
-1.0273438, 0.0043945, -0.2192383, -12.560976, -8.9634151, 5.5487804, -0.6500801
-1.0371094, 0.0161133, -0.21875, -11.5243902, -9.5121956, 6.0975609, -0.6349737
-1.0400391, 0.0234375, -0.2197266, -10.9146347, -10.060976, 6.280488, -0.6030823
-1.0366211, 0.0239258, -0.2211914, -10.6097565, -10, 6.1585369, -0.5497063
-1.0371094, 0.03125, -0.2236328, -10.8536587, -8.9634151, 5.609756, -0.4916304
-1.0400391, 0.0327148, -0.2270508, -10.9756098, -8.4756098, 5.609756, -0.50103
-1.0375977, 0.0527344, -0.2163086, -10.7926836, -7.3170733, 5.9146342, -0.4426184
-1.0380859, 0.0629883, -0.2094727, -10.060976, -6.8292685, 6.2195125, -0.3680934
-1.0195312, 0.0986328, -0.203125, -8.4756098, -6.4634147, 6.0975609, -0.2667124
-1.012207, 0.1157227, -0.2070312, -8.2317076, -6.0365853, 5.9756098, -0.1613031
-1.0004883, 0.1381836, -0.2451172, -9.0853662, -3.9634147, 5.5487804, -0.0468299
-1.0048828, 0.1386719, -0.2685547, -10.4268293, -3.4146342, 4.8780489, 0.0078889
-1.0234375, 0.125, -0.3222656, -13.6585369, -3.1097562, 4.4512196, 0.0552224
-1.0458984, 0.0908203, -0.3354492, -15.7926836, -4.3292685, 4.5121951, 0.1613031
-1.0600586, 0.0761719, -0.3271484, -15.8536587, -5.1219511, 4.5731707, 0.2803082
-1.0913086, 0.0610352, -0.2998047, -13.5975609, -5.8536587, 4.6951222, 0.3946136
-1.0996094, 0.0620117, -0.2895508, -12.2560978, -5.4878049, 4.6341462, 0.507744
-1.097168, 0.0830078, -0.2866211, -10.1219511, -4.1463413, 5.2439027, 0.6202029
-1.0849609, 0.0947266, -0.2885742, -9.3292685, -2.8658538, 5.7317076, 0.6504158
-1.0522461, 0.1103516, -0.3007812, -9.2073174, -1.3414634, 6.3414636, 0.7289693
-1.0341797, 0.1098633, -0.3012695, -9.0853662, -0.5487805, 6.890244, 0.8095369
-1.0043945, 0.105957, -0.3022461, -9.6341467, 0.9756098, 8.1097565, 0.8843977
-0.9907227, 0.0986328, -0.3012695, -9.6341467, 1.8292683, 8.6585369, 0.9676509
-0.9697266, 0.0888672, -0.2905273, -8.780488, 3.3536587, 9.3292685, 1.0787671
-0.9702148, 0.0727539, -0.3085938, -7.5, 5.2439027, 10.1219511, 1.1183795
-0.9707031, 0.0717773, -0.3212891, -6.7073174, 6.0975609, 10.3658543, 1.1224079
-0.9892578, 0.0654297, -0.3461914, -5, 7.5609756, 11.219512, 1.1848478
-0.9985352, 0.0688477, -0.3666992, -3.9634147, 7.6829271, 12.0121956, 1.2350347
-1.0180664, 0.0878906, -0.3964844, -1.9512196, 7.7439027, 13.4146347, 1.2832074
-1.0234375, 0.1040039, -0.4082031, -1.0365853, 7.8048782, 14.3902445, 1.2795148
-1.0302734, 0.1386719, -0.4121094, 0.3658537, 7.8658538, 16.2195129, 1.2415808
-1.0288086, 0.1586914, -0.4106445, 1.3414634, 7.9878049, 17.1341476, 1.2298314
-1.0073242, 0.1972656, -0.4135742, 1.8292683, 9.2073174, 18.1097565, 1.2459449
-0.984375, 0.2236328, -0.4243164, 2.1341465, 9.9390249, 18.2926826, 1.2707866
-0.9741211, 0.234375, -0.4291992, 1.1585366, 10.9756098, 18.1707325, 1.2117037
-0.9658203, 0.2407227, -0.4389648, -0.8536586, 12.7439032, 17.9268303, 1.1791409
-0.9643555, 0.230957, -0.4423828, -1.7682927, 13.6585369, 17.9268303, 1.1519493
-0.965332, 0.2050781, -0.465332, -2.9878049, 15.9756098, 18.1097565, 1.1304646
-0.9726562, 0.1914062, -0.4804688, -3.2317073, 16.7073174, 18.5975609, 1.1002518
-1.003418, 0.1708984, -0.5048828, -2.8658538, 17.7439022, 20.3658543, 1.1096513
-1.0170898, 0.1660156, -0.5112305, -2.6829269, 18.2926826, 21.7682934, 1.0807813
-1.0429688, 0.1743164, -0.5136719, -1.8292683, 19.4512196, 24.3902435, 1.0290837
-1.0454102, 0.1806641, -0.5102539, -1.0365853, 20.4878044, 25.4268303, 1.0210269
-1.0493164, 0.2001953, -0.4951172, 0.4268293, 22.439024, 26.8292694, 1.0122988
-1.0473633, 0.222168, -0.4897461, 0.9756098, 23.780489, 27.3780499, 0.9861143
-1.0390625, 0.2314453, -0.4960938, 0.5487805, 26.7682934, 28.1097565, 0.983093
-1.0366211, 0.2373047, -0.5356445, -0.9146342, 30.4268303, 29.0853672, 0.9958495
-1.0429688, 0.2299805, -0.5605469, -2.2560976, 31.8902454, 29.8780499, 0.9270314
-1.0722656, 0.2119141, -0.6098633, -2.9268293, 33.2926826, 31.7682934, 0.9031968
-1.0874023, 0.2006836, -0.6245117, -3.1097562, 33.5975609, 32.6219521, 0.9233387
-1.128418, 0.1708984, -0.6376953, -2.195122, 33.0487823, 34.6951218, 0.9344167
-1.1469727, 0.1572266, -0.6362305, -1.402439, 32.8048782, 35.4878044, 0.9780575
-1.1787109, 0.1396484, -0.6083984, 0.3048781, 32.5, 37.3170738, 1.0512398
-1.1845703, 0.1367188, -0.590332, 1.0365853, 32.8048782, 38.2926826, 1.0564431
-1.1958008, 0.1342773, -0.578125, 2.5609756, 35.4878044, 40.6707344, 1.0290837
-1.2050781, 0.1401367, -0.6064453, 3.0487804, 37.0121956, 41.8902435, 1.0539254
-1.2177734, 0.1464844, -0.637207, 4.6341462, 39.7560997, 45.6707344, 1.0698711
-1.2607422, 0.1494141, -0.7158203, 6.0975609, 40.9756088, 50.4268303, 1.1257649
-1.2949219, 0.1503906, -0.753418, 6.5243902, 40.1219521, 52.8048782, 1.1613489
-1.3793945, 0.137207, -0.7646484, 8.2926826, 36.341465, 57.68293, 1.167895
-1.418457, 0.1279297, -0.7324219, 9.3902445, 34.2073174, 59.8780518, 1.1848478
-1.4580078, 0.1098633, -0.637207, 11.8902445, 31.280489, 62.7439041, 1.2157321
-1.4570312, 0.0952148, -0.5893555, 13.0487804, 31.8902454, 63.4146347, 1.2422522
-1.4301758, 0.0673828, -0.5136719, 14.4512196, 37.0121956, 64.2682953, 1.2026398
-1.4121094, 0.0556641, -0.4931641, 14.6951227, 40, 65.2439041, 1.1959258
-1.3706055, 0.0395508, -0.4814453, 15.060976, 47.1341476, 68.4146347, 1.2036469
-1.3325195, 0.0380859, -0.4980469, 15.7926836, 50.1829262, 70.5487823, 1.2002899
-1.3232422, 0.0429688, -0.5141602, 19.6341476, 55.1219521, 75.6707306, 1.1986114
-1.3242188, 0.0600586, -0.5410156, 24.2073174, 57.3780518, 80.8536606, 1.2023041
-1.3330078, 0.0766602, -0.5356445, 26.3414631, 57.9268303, 83.2317123, 1.1586633
-1.3349609, 0.1157227, -0.4970703, 29.6951218, 58.7804909, 86.3414688, 1.0995804
-1.3291016, 0.1435547, -0.4707031, 31.2195129, 60.18293, 86.8292694, 1.0577859
-1.293457, 0.1992188, -0.4106445, 31.8292694, 65.18293, 86.2195129, 1.0047456
-1.2719727, 0.2265625, -0.3916016, 31.8292694, 68.4146347, 85.5487823, 0.9152819
-1.2133789, 0.2504883, -0.3720703, 30.6097565, 76.5853653, 82.8658524, 0.8501564
-1.1826172, 0.2568359, -0.3706055, 29.5121956, 80.5487823, 81.7073212, 0.8092012
-1.1430664, 0.2548828, -0.3686523, 28.5975609, 87.9878082, 80.0609741, 0.6927138
-1.1191406, 0.2578125, -0.390625, 28.4146347, 90.7317123, 80.18293, 0.6222171
-1.1044922, 0.2578125, -0.4160156, 28.6585369, 96.0975647, 81.7682953, 0.5513848
-1.0942383, 0.2670898, -0.4995117, 29.1463413, 100.9756088, 83.7195129, 0.4577249
-1.1044922, 0.2724609, -0.5395508, 29.0853672, 102.6219559, 84.7560959, 0.3650721
-1.1313477, 0.2871094, -0.5878906, 29.3902454, 102.2561035, 86.646347, 0.332845
-1.1479492, 0.3061523, -0.6035156, 29.5731716, 101.2195129, 87.2560959, 0.2442206
-1.1723633, 0.3349609, -0.6113281, 29.5121956, 99.9390259, 87.8658524, 0.1250477
-1.1728516, 0.3442383, -0.6142578, 28.780489, 100.1219559, 87.68293, 0.0693217
-1.1630859, 0.3393555, -0.6162109, 26.8902454, 100.9146347, 85.5487823, 0.0176242
-1.159668, 0.3261719, -0.6162109, 25.4268303, 101.4634171, 84.146347, -0.0129244
-1.1591797, 0.2973633, -0.6054688, 23.0487804, 102.4390259, 82.3170776, -0.0874495
-1.1577148, 0.2646484, -0.5805664, 22.3780499, 103.3536606, 81.8902435, -0.1693599
-1.1567383, 0.2495117, -0.5668945, 22.8048782, 105.6707306, 83.1097565, -0.2123293
-1.1362305, 0.2275391, -0.5678711, 24.6951218, 107.7439041, 84.9390259, -0.2364996
-1.1289062, 0.2211914, -0.5791016, 26.280489, 109.5121994, 86.0365906, -0.2626841
-1.1323242, 0.2275391, -0.6103516, 29.2073174, 112.0121994, 88.9634171, -0.339559
-1.1469727, 0.2397461, -0.6186523, 30.2439022, 112.4390259, 90.8536606, -0.3680934
-1.1679688, 0.2749023, -0.6079102, 32.2560997, 112.0731735, 95.0609741, -0.3486229
-1.1694336, 0.2929688, -0.5913086, 33.1097565, 112.0121994, 96.8292694, -0.3298238
-1.1586914, 0.3242188, -0.5854492, 33.3536606, 114.8780518, 98.5365906, -0.328481
-1.1547852, 0.331543, -0.5922852, 33.1707306, 117.0121994, 98.0487823, -0.3108568
-1.1625977, 0.3432617, -0.6162109, 31.2195129, 121.0975647, 97.68293, -0.3385519
-1.171875, 0.3481445, -0.6137695, 29.6341476, 122.5609818, 97.5, -0.3774929
-1.1669922, 0.3486328, -0.6035156, 27.6829281, 124.8780518, 98.5975647, -0.3335164
-1.1430664, 0.3383789, -0.5947266, 27.0731716, 128.2926788, 98.7804871, -0.3026322
-1.1367188, 0.3344727, -0.59375, 27.0731716, 130.6707306, 98.5975647, -0.2871901
-1.1533203, 0.3339844, -0.5883789, 28.1707325, 135.2439117, 98.9634171, -0.2573129
-1.1616211, 0.3325195, -0.5893555, 28.5365868, 136.5853729, 99.5121994, -0.2306249
-1.1591797, 0.3359375, -0.6054688, 27.8048782, 138.8414612, 101.0365906, -0.2843366
-1.1533203, 0.3310547, -0.621582, 26.7073174, 140.6707306, 101.4634171, -0.293904
-1.1645508, 0.3295898, -0.6352539, 24.5731716, 145.4268341, 101.4634171, -0.2871901
-1.1796875, 0.3413086, -0.6259766, 24.1463413, 147.6829376, 102.0121994, -0.281651
-1.1855469, 0.3735352, -0.6176758, 25.060976, 151.1585388, 103.2926865, -0.2754406
-1.152832, 0.4038086, -0.659668, 25.9756107, 153.0487823, 103.7195129, -0.2418708
-1.1455078, 0.4130859, -0.7011719, 26.3414631, 157.4390259, 102.2561035, -0.2673838
-1.1523438, 0.4208984, -0.7773438, 24.8780499, 159.8780518, 100.4878082, -0.3241169
-1.1708984, 0.4213867, -0.7910156, 23.1707325, 160, 100.3658524, -0.3244526
-1.1933594, 0.4321289, -0.7709961, 20.7317085, 157.9268341, 100.6707306, -0.3586938
-1.1904297, 0.4267578, -0.7563477, 20.4268303, 157.3780518, 100.6097565, -0.3828641
-1.171875, 0.4213867, -0.746582, 20.1829281, 158.1707306, 99.2073212, -0.44094
-1.1762695, 0.4160156, -0.7470703, 20.1219521, 160, 97.9878082, -0.4956588
-1.1806641, 0.4169922, -0.769043, 18.6585369, 163.7195129, 95.9146347, -0.5265431
-1.1801758, 0.4150391, -0.7768555, 18.0487804, 164.8780518, 95.2439041, -0.5419852
-1.1743164, 0.4130859, -0.7753906, 17.3780499, 166.4024353, 94.3292694, -0.5473564
-1.152832, 0.4204102, -0.7670898, 18.7195129, 167.4390259, 93.9634171, -0.6426947
-1.1445312, 0.421875, -0.7641602, 19.2073174, 168.4146423, 93.7195129, -0.7068132
-1.1162109, 0.4301758, -0.777832, 18.9634151, 171.2195129, 92.9268341, -0.7343404
-1.1035156, 0.4213867, -0.7929688, 17.8658543, 172.5609741, 91.9512253, -0.7722744
-1.0932617, 0.387207, -0.7866211, 15.9146347, 174.5121918, 89.7560959, -0.7972839
-1.0844727, 0.3583984, -0.7597656, 15.4878054, 175, 88.6585388, -0.7810025
-1.059082, 0.3085938, -0.7045898, 16.1585369, 176.5853729, 85.6707306, -0.8165866
-1.0415039, 0.3007812, -0.6796875, 17.2560978, 178.1707306, 84.5731735, -0.870634
-1.0214844, 0.3286133, -0.671875, 20.6097565, 183.7804871, 84.5731735, -0.8738231
-1.0146484, 0.3623047, -0.6938477, 22.1341476, 186.8292694, 85.6097565, -0.8823835
-0.9956055, 0.4370117, -0.7705078, 23.1097565, 192.86586, 89.146347, -0.8919509
-0.9736328, 0.4926758, -0.8300781, 20.3658543, 196.4634247, 90.4878082, -0.8726482
-0.9711914, 0.5078125, -0.84375, 17.6829281, 196.9512177, 89.6951218, -0.8373999
-0.9677734, 0.4941406, -0.8530273, 12.1951218, 197.3780518, 85.2439041, -0.8890974
-0.9672852, 0.4741211, -0.8457031, 9.3902445, 197.86586, 82.1951218, -0.8810407
-0.9755859, 0.4130859, -0.8242188, 4.6341462, 199.9390259, 75.7317123, -0.8457923
-0.9804688, 0.3881836, -0.8256836, 3.3536587, 201.1585388, 73.4756088, -0.7831846
-0.9970703, 0.3701172, -0.8491211, 2.804878, 204.4512177, 72.9268341, -0.7205768
-1.0019531, 0.3852539, -0.8681641, 3.4756098, 205.7926941, 74.5731735, -0.6426947
-0.9853516, 0.4262695, -0.9013672, 5.3048782, 207.6829376, 78.9634171, -0.6213779
-0.9731445, 0.4428711, -0.9189453, 5.9146342, 208.2317047, 80.4268341, -0.6339666
-0.9458008, 0.4418945, -0.9350586, 4.2073174, 208.2926941, 79.2682953, -0.5780728
-0.9350586, 0.4101562, -0.9160156, 0.7317073, 209.146347, 74.6951218, -0.5003586
-0.9379883, 0.3901367, -0.8979492, -0.2439024, 209.5731812, 72.1341476, -0.4239872
-0.9418945, 0.3486328, -0.902832, -1.1585366, 210.9756165, 69.5121994, -0.3768215
-0.9453125, 0.3364258, -0.9199219, -0.7317073, 211.9512177, 69.2682953, -0.3390555
-0.9560547, 0.3330078, -0.9482422, 0.1829268, 214.146347, 71.8292694, -0.2928969
-0.9526367, 0.3388672, -0.956543, 0.8536586, 214.146347, 73.6585388, -0.2500954
-0.9389648, 0.3530273, -0.9819336, 1.1585366, 214.0243988, 76.3414688, -0.1928588
-0.9345703, 0.3603516, -0.996582, 1.1585366, 213.8414612, 76.5243912, -0.2143435
-0.9287109, 0.3691406, -1.0244141, -0.4878049, 214.0853729, 76.4024429, -0.1871519
-0.9345703, 0.3642578, -1.0297852, -0.6707317, 214.0243988, 76.4024429, -0.1475395
-0.9414062, 0.3725586, -1.0170898, -1.8902439, 212.8048859, 76.0975647, -0.1270619
-0.9213867, 0.375, -0.9848633, -2.2560976, 211.4634247, 76.3414688, -0.1134661
-0.9013672, 0.3671875, -0.9580078, -2.6219513, 211.4634247, 75.7317123, -0.0683146
-0.8544922, 0.3383789, -0.9208984, -4.5121951, 213.8414612, 73.9634171, -0.0844282
-0.8344727, 0.3310547, -0.9169922, -5, 215.6097565, 72.8048782, -0.1406577
-0.8198242, 0.3251953, -0.9326172, -6.5853658, 219.7561035, 71.8902435, -0.1560998
-0.8217773, 0.3374023, -0.9614258, -6.7073174, 221.2804871, 72.8658524, -0.1962158
-0.8266602, 0.3671875, -1.0029297, -7.1341467, 223.2926941, 76.7682953, -0.2398566
-0.8251953, 0.3779297, -1.0107422, -7.1951222, 223.4756165, 78.7804871, -0.2532845
-0.8110352, 0.3681641, -0.9838867, -7.5609756, 222.4390259, 79.3292694, -0.2529488
-0.8046875, 0.3603516, -0.9702148, -8.2317076, 222.1951294, 77.9268341, -0.3271382
-0.8066406, 0.3632812, -0.9785156, -10.6707315, 224.3292694, 74.5731735, -0.3739681
-0.8193359, 0.3608398, -1.0078125, -13.3536587, 227.6829376, 74.3902435, -0.4206302
-0.8227539, 0.3642578, -1.0102539, -14.2682934, 228.7804871, 75.1219559, -0.4728313
-0.8095703, 0.355957, -1.0014648, -15.6707325, 228.0487823, 76.9512177, -0.5164721
-0.7910156, 0.3530273, -1.0097656, -16.4634151, 227.3780518, 77.8658524, -0.5124437
-0.769043, 0.3481445, -1.0605469, -19.8780499, 228.0487823, 78.1097565, -0.5654841
-0.777832, 0.3427734, -1.0732422, -21.5853672, 228.5365906, 78.5975647, -0.6440375
-0.7963867, 0.3349609, -1.0307617, -23.4146347, 227.4390259, 80.5487823, -0.6567941
-0.7939453, 0.3359375, -0.9946289, -23.2317085, 226.646347, 81.3414688, -0.6695506
-0.765625, 0.328125, -0.9355469, -22.5, 226.646347, 80.5487823, -0.6782788
-0.7412109, 0.3300781, -0.9345703, -21.4634151, 228.1707306, 79.2682953, -0.7078202
-0.730957, 0.3369141, -0.9536133, -22.5, 231.7682953, 78.2926865, -0.7199054
-0.7211914, 0.347168, -0.9799805, -25.7317085, 233.2926941, 79.8170776, -0.7068132
-0.706543, 0.34375, -0.9833984, -27.3780499, 233.2926941, 81.2195129, -0.7064775
-0.6860352, 0.3398438, -0.9692383, -30.1219521, 233.23172, 82.6219559, -0.6804608
-0.6767578, 0.3383789, -0.953125, -30.8536587, 233.5365906, 82.8048782, -0.6997635
-0.6625977, 0.3364258, -0.9487305, -31.4634151, 234.3292694, 82.3780518, -0.6626688
-0.6616211, 0.3393555, -0.96875, -31.6463413, 234.8780518, 82.3170776, -0.5916686
-0.6791992, 0.3583984, -1.0258789, -33.7195129, 235.73172, 83.4756088, -0.5513848
-0.6860352, 0.3735352, -1.0361328, -35, 234.7561035, 84.9390259, -0.5094224
-0.6855469, 0.394043, -1.0131836, -38.4146347, 232.3780518, 88.1097565, -0.4442969
-0.6416016, 0.3808594, -0.9951172, -39.6951218, 231.7682953, 89.0243912, -0.4244907
-0.6166992, 0.3613281, -1.0112305, -42.5609779, 231.2195129, 87.7439041, -0.4009918
-0.6113281, 0.3164062, -1.0551758, -46.0975609, 231.4634247, 85.6707306, -0.3299916
-0.6313477, 0.3027344, -1.0512695, -46.7682953, 230.6097565, 85.6097565, -0.2620127
-0.6630859, 0.2915039, -0.9912109, -45.3048782, 226.646347, 88.8414688, -0.2029297
-0.6586914, 0.296875, -0.9648438, -43.4756126, 225.0609741, 90.6097565, -0.13579
-0.6308594, 0.3168945, -0.9404297, -41.7682953, 225.0609741, 92.8048782, -0.0673075
-0.6220703, 0.3359375, -0.934082, -41.9512215, 225.8536682, 92.8658524, -0.0834211
-0.5981445, 0.3828125, -0.9541016, -44.6341476, 226.7682953, 92.9878082, -0.0522011
-0.5810547, 0.3916016, -0.9760742, -46.7682953, 226.9512177, 92.9878082, -0.0036927
-0.546875, 0.3774414, -1.0146484, -51.5243912, 224.8780518, 92.9268341, 0.0354162
-0.5361328, 0.3330078, -0.9931641, -54.0243912, 223.2926941, 92.5, 0.0770428
-0.5444336, 0.3144531, -0.9624023, -56.1585388, 220.4268341, 92.3170776, 0.139147
-0.5444336, 0.277832, -0.9101562, -53.2926826, 218.6585388, 92.7439041, 0.1445182
-0.5493164, 0.2617188, -0.8984375, -50.4878044, 218.4146423, 92.3170776, 0.1233692
-0.5693359, 0.2851562, -0.9091797, -46.0365868, 218.4146423, 92.9268341, 0.1408255
-0.5742188, 0.3071289, -0.9135742, -44.3902435, 217.9268341, 93.7195129, 0.1361257
-0.5693359, 0.3535156, -0.8740234, -44.2073174, 215.8536682, 95.5487823, 0.1193408
-0.5478516, 0.3691406, -0.8505859, -45.0609779, 215.36586, 95.6707306, 0.0891279
-0.484375, 0.3725586, -0.8046875, -47.9268303, 215.6707306, 93.2317123, 0.0780499
-0.4604492, 0.3637695, -0.7817383, -49.3292694, 216.3414612, 91.0365906, 0.0783856
-0.4140625, 0.3310547, -0.7290039, -50.4268303, 218.1707306, 86.646347, 0.0908064
-0.3789062, 0.3027344, -0.71875, -50.6707344, 219.0243988, 85.3048782, 0.0897993
-0.3652344, 0.2978516, -0.7441406, -51.341465, 221.1585388, 84.6341476, 0.0058747
-0.375, 0.2944336, -0.8061523, -51.5243912, 222.9878082, 86.2195129, -0.0209812
-0.3945312, 0.3027344, -0.8149414, -51.0365868, 222.3170776, 87.3780518, -0.0374304
-0.4194336, 0.347168, -0.809082, -49.2682953, 218.4756165, 89.8170776, -0.0488441
-0.4174805, 0.3676758, -0.8154297, -49.0853653, 216.5243988, 90.1219559, -0.0528725
-0.4111328, 0.3823242, -0.8618164, -51.341465, 214.146347, 87.9268341, -0.0169528
-0.4121094, 0.3759766, -0.8730469, -53.5975609, 213.1707306, 86.0975647, -0.0424659
-0.4213867, 0.359375, -0.8442383, -58.4146347, 209.0853729, 83.4146347, -0.0800641
-0.4204102, 0.3447266, -0.815918, -60.0609779, 206.2195129, 82.9268341, -0.0639506
-0.3896484, 0.3056641, -0.7880859, -60.0609779, 202.86586, 82.68293, -0.054551
-0.3662109, 0.2744141, -0.7802734, -59.6341476, 201.8902435, 81.9512177, -0.0431373
-0.3686523, 0.2661133, -0.7724609, -57.3170738, 199.2073212, 81.2804871, 0.0035248
-0.371582, 0.2827148, -0.7568359, -55.2439041, 194.7561035, 81.8292694, 0.0468299
-0.3618164, 0.2856445, -0.7666016, -54.6951218, 192.9268341, 82.3170776, 0.0196384
-0.3334961, 0.2700195, -0.8056641, -54.7560997, 189.6951294, 82.8048782, 0.0535439
-0.3325195, 0.2514648, -0.809082, -54.9390259, 187.2561035, 82.5, 0.1297475
-0.3466797, 0.2392578, -0.777832, -53.9024391, 180.7317047, 81.8292694, 0.2116579
-0.3510742, 0.2304688, -0.7651367, -52.7439041, 176.9512177, 81.8292694, 0.2858473
-0.3515625, 0.2045898, -0.7368164, -49.3292694, 170.7926941, 82.1341476, 0.3731289
-0.3486328, 0.1948242, -0.7094727, -47.9268303, 167.9878082, 81.8292694, 0.415259
-0.3349609, 0.1787109, -0.6259766, -45, 163.2926941, 80.3048782, 0.4251621
-0.2973633, 0.1826172, -0.5444336, -43.2317085, 161.5243988, 79.3292694, 0.5178149
-0.2758789, 0.2001953, -0.5288086, -38.4756088, 160.5487823, 77.5, 0.6037537
-0.2451172, 0.2495117, -0.5180664, -34.2073174, 161.3414612, 77.1341476, 0.6953994
-0.2338867, 0.2788086, -0.5117188, -32.6219521, 161.2195129, 77.7439041, 0.7549859
-0.1767578, 0.3164062, -0.5375977, -31.8292694, 159.3292694, 78.4756088, 0.7954376
-0.1503906, 0.3217773, -0.5556641, -32.9268303, 157.9268341, 77.68293, 0.8464637
-0.1279297, 0.3178711, -0.5751953, -36.2195129, 154.4512177, 74.7560959, 0.9042039
-0.1367188, 0.3115234, -0.5717773, -37.3780479, 152.5, 73.1097565, 0.9659724
-0.1674805, 0.2958984, -0.5639648, -38.2317085, 148.7804871, 70.6097565, 0.95523
-0.1821289, 0.2827148, -0.5678711, -36.8902435, 147.4390259, 70.1219559, 0.9928283
-0.2104492, 0.2529297, -0.5961914, -33.7804871, 143.4146423, 68.7195129, 1.0277409
-0.2412109, 0.237793, -0.5898438, -32.3780479, 140.5487823, 67.8048782, 1.049897
-0.2539062, 0.2421875, -0.5708008, -30.4268303, 133.1097565, 66.4024429, 1.0754101
-0.246582, 0.2646484, -0.5517578, -29.2682934, 126.5243912, 65.6097565, 1.123415
-0.2348633, 0.2646484, -0.5483398, -28.9634151, 124.8170776, 64.7560959, 1.1029374
-0.2036133, 0.2651367, -0.5239258, -29.5731716, 121.4634171, 61.9512215, 1.0364691
-0.1879883, 0.2670898, -0.5195312, -29.5731716, 119.3902435, 60.6097565, 1.007599
-0.1469727, 0.2441406, -0.5375977, -29.0243912, 114.6951218, 57.6219521, 0.9636225
-0.1279297, 0.2226562, -0.5419922, -28.2926826, 112.1951218, 56.1585388, 0.9183032
-0.1186523, 0.1796875, -0.5273438, -26.2195129, 105.0609818, 54.2682953, 0.9154498
-0.1113281, 0.15625, -0.5, -25, 100.3048782, 53.841465, 0.9228351
-0.0883789, 0.1157227, -0.4350586, -22.560976, 92.4390259, 53.2926826, 0.83505
-0.0668945, 0.0869141, -0.3603516, -21.4024391, 89.4512253, 52.9878044, 0.7645533
-0.0615234, 0.0776367, -0.3354492, -18.1707325, 86.5243912, 52.3170738, 0.7242695
-0.0415039, 0.0610352, -0.3046875, -13.9024391, 84.2682953, 52.8048782, 0.6779431
-0.027832, 0.059082, -0.2924805, -11.5243902, 82.9878082, 53.4146347, 0.6494087
0.0117188, 0.0649414, -0.2397461, -6.0975609, 78.4756088, 53.2926826, 0.6534371
0.0390625, 0.0708008, -0.2089844, -3.5365853, 76.5853653, 52.9268303, 0.6077821
0.0898438, 0.1035156, -0.1542969, 0.6707317, 75, 51.7682953, 0.5302358
0.1118164, 0.1323242, -0.1362305, 2.3170731, 75.5487823, 50.9756126, 0.5114366
0.1499023, 0.1855469, -0.1391602, 4.5731707, 77.7439041, 50.0609779, 0.490959
0.1665039, 0.2133789, -0.1489258, 4.7560978, 78.1097565, 49.5121956, 0.4770275
0.199707, 0.2490234, -0.1508789, 3.6585367, 77.9878082, 48.2317085, 0.4469825
0.2397461, 0.2543945, -0.1323242, 0.4878049, 76.5853653, 45.5487823, 0.4278477
0.2558594, 0.2441406, -0.1201172, -1.2195122, 76.2804871, 43.9024391, 0.413077
0.2822266, 0.2006836, -0.1254883, -4.5121951, 76.8292694, 40, 0.4145876
0.2802734, 0.1728516, -0.1357422, -5, 77.1341476, 37.3780479, 0.452018
0.2578125, 0.1279297, -0.1538086, -3.4146342, 75.9146347, 33.9634171, 0.4322118
0.2304688, 0.1196289, -0.1601562, -1.402439, 74.3902435, 33.3536606, 0.4600748
0.1982422, 0.1254883, -0.1875, 3.5975611, 70.5487823, 34.2073174, 0.5107652
0.1884766, 0.1337891, -0.2143555, 5.670732, 69.0243912, 35.1219521, 0.5374533
0.1943359, 0.1411133, -0.2832031, 8.1097565, 65.7926865, 36.5853653, 0.5537346
0.1870117, 0.1435547, -0.3134766, 8.6585369, 64.1463394, 36.4024391, 0.6114748
0.1645508, 0.1430664, -0.3476562, 8.6585369, 58.5365868, 35.3658562, 0.6386664
0.1479492, 0.1518555, -0.3666992, 9.3292685, 51.2195129, 34.2073174, 0.6544442
0.1459961, 0.1557617, -0.3681641, 9.5731707, 47.5609779, 33.6585388, 0.7121843
0.1435547, 0.1577148, -0.3310547, 11.1585369, 40.5487823, 32.3170738, 0.7511254
0.1538086, 0.1572266, -0.2924805, 11.8292685, 36.9512215, 31.5853672, 0.7732815
0.2021484, 0.1420898, -0.2338867, 13.5365858, 30.5487804, 28.9634151, 0.7974517
0.234375, 0.1308594, -0.2172852, 13.5975609, 29.0243912, 27.1341476, 0.8276646
0.2807617, 0.1191406, -0.1967773, 12.3170738, 26.7682934, 23.4756107, 0.7880522
0.293457, 0.1137695, -0.1811523, 10.9146347, 25.060976, 22.7439022, 0.7907378
0.324707, 0.1083984, -0.1816406, 10, 20.5487804, 23.4756107, 0.8135653
0.3476562, 0.1040039, -0.1967773, 9.3902445, 19.1463413, 24.5121956, 0.8159152
0.3720703, 0.1025391, -0.2075195, 9.6341467, 16.2195129, 26.3414631, 0.8014801
0.3725586, 0.1176758, -0.2026367, 8.9634151, 9.8170738, 28.1707325, 0.824979
0.3735352, 0.1318359, -0.2016602, 8.2317076, 6.5853658, 29.0853672, 0.8075227
0.3798828, 0.1499023, -0.2060547, 5.3048782, 2.1341465, 30.3048782, 0.7282979
0.3857422, 0.1586914, -0.1948242, 2.9878049, 0.2439024, 30, 0.6886854
0.4223633, 0.1411133, -0.1445312, -1.5853659, -4.0853658, 27.5, 0.6255741
0.4477539, 0.1313477, -0.1035156, -3.3536587, -6.2195125, 25.1829281, 0.5728695
0.4902344, 0.1142578, -0.0146484, -4.390244, -8.5365858, 19.1463413, 0.5114366
0.5102539, 0.1113281, 0.0229492, -4.1463413, -8.780488, 16.1585369, 0.4515145
0.5361328, 0.1264648, 0.059082, -4.2682929, -7.9268293, 11.4634151, 0.4006561
0.5561523, 0.1464844, 0.0639648, -4.5731707, -7.1341467, 10.060976, 0.3523156
0.5805664, 0.1894531, 0.0585938, -7.3780489, -5.9756098, 7.6829271, 0.2818189
0.6035156, 0.2314453, 0.0415039, -11.1585369, -4.6951222, 6.0975609, 0.1441825
0.6142578, 0.25, 0.0161133, -13.5365858, -3.9634147, 4.9390244, 0.0538796
0.6235352, 0.2617188, -0.0581055, -19.6341476, -2.0731707, 1.8902439, -0.0045319
0.6206055, 0.2573242, -0.0834961, -22.6829281, -1.8902439, 0.0609756, -0.061265
0.5859375, 0.2363281, -0.1411133, -26.8902454, -3.2926829, -3.6585367, -0.1228656
0.5605469, 0.2182617, -0.171875, -28.0487804, -4.9390244, -5.3048782, -0.1592889
0.4931641, 0.1791992, -0.2426758, -28.2926826, -9.0853662, -7.6219516, -0.2418708
0.4584961, 0.1577148, -0.293457, -27.3170738, -12.0121956, -8.0487804, -0.3405661
0.3989258, 0.1166992, -0.3930664, -24.8780499, -18.9024391, -7.9878049, -0.3978027
0.3730469, 0.0966797, -0.4208984, -22.9878063, -23.1707325, -7.5, -0.4627604
0.3325195, 0.0649414, -0.4536133, -17.439024, -33.2317085, -6.8292685, -0.5033799
0.3144531, 0.0473633, -0.4814453, -11.9512196, -43.4756126, -6.9512196, -0.5456779
0.3120117, 0.0444336, -0.4941406, -9.5731707, -48.7195129, -7.2560978, -0.5688411
0.3134766, 0.0649414, -0.5009766, -6.890244, -58.5365868, -8.5365858, -0.6623331
0.3173828, 0.0820312, -0.5063477, -5.5487804, -63.6585388, -9.2073174, -0.6972457
0.331543, 0.1201172, -0.5004883, -3.4756098, -71.7682953, -10.6707315, -0.6943923
0.331543, 0.1425781, -0.484375, -2.3170731, -74.8170776, -11.219512, -0.7101701
0.3193359, 0.1967773, -0.4360352, 1.402439, -83.4146347, -12.560976, -0.7390402
0.3164062, 0.2324219, -0.4135742, 2.9268293, -88.0487823, -13.2317076, -0.730312
0.3378906, 0.2807617, -0.3520508, 4.9390244, -96.3414688, -15.6097565, -0.7699245
0.3730469, 0.3071289, -0.3310547, 5.1829271, -99.7561035, -17.7439022, -0.8159152
0.3911133, 0.3227539, -0.3212891, 4.8780489, -103.5975647, -21.8902435, -0.8100404
0.4277344, 0.3266602, -0.2993164, 1.7073171, -105.1219559, -26.4634151, -0.8107118
0.4453125, 0.3164062, -0.2871094, -0.5487805, -106.8902435, -29.1463413, -0.8018158
0.4794922, 0.2753906, -0.2539062, -4.4512196, -110, -34.4512215, -0.8222934
0.480957, 0.2475586, -0.2412109, -5.7317076, -111.0975647, -37.6829262, -0.8563668
0.4526367, 0.2167969, -0.2426758, -6.7682929, -112.5609818, -41.5853653, -0.8743267
0.4326172, 0.2158203, -0.2548828, -6.890244, -112.5609818, -43.3536606, -0.8803693
0.3979492, 0.2568359, -0.2680664, -6.4024391, -112.3170776, -45.1829262, -0.880705
0.375, 0.2885742, -0.2705078, -5.7926831, -112.0731735, -45.6097565, -0.9443198
0.315918, 0.3554688, -0.2739258, -5.7317076, -111.2195129, -45.9756126, -0.9663081
0.3325195, 0.3842773, -0.2548828, -6.5243902, -111.4024429, -46.0365868, -0.98645
0.3720703, 0.371582, -0.2485352, -11.341464, -117.5609818, -49.0243912, -1.0133059
0.4628906, 0.3061523, -0.2348633, -16.3414631, -120.0609818, -55.6707344, -1.0307622
0.4873047, 0.2597656, -0.2216797, -18.1707325, -118.1707382, -59.3292694, -1.0381476
0.4697266, 0.1694336, -0.2099609, -20.3048782, -115.2439041, -65.2439041, -1.1136797
0.4379883, 0.1313477, -0.2226562, -20.3658543, -116.2195129, -66.7682953, -1.2315099
0.3725586, 0.0908203, -0.2905273, -16.7682934, -119.2073212, -66.3414612, -1.2875715
0.3354492, 0.081543, -0.3422852, -13.6585369, -120.4268341, -65.6097565, -1.3322194
0.2573242, 0.0722656, -0.4506836, -5.3658538, -124.0243912, -63.6585388, -1.38056
0.2128906, 0.0800781, -0.4882812, -1.2195122, -126.646347, -63.2926826, -1.4077516
0.1289062, 0.1157227, -0.5092773, 6.7682929, -134.2073212, -64.0243912, -1.4255436
0.0625, 0.1645508, -0.5053711, 9.8780489, -138.3536682, -64.6341476, -1.5470665
0.0507812, 0.1875, -0.5161133, 12.8658543, -143.8414612, -66.6463394, -1.6081636
0.0512695, 0.2124023, -0.5288086, 12.7439032, -147.3780518, -70.5487823, -1.6390478
0.0541992, 0.2148438, -0.5263672, 11.6463413, -148.9024353, -72.5609741, -1.6798352
0.0639648, 0.2104492, -0.5249023, 9.0853662, -152.6219482, -75.4878082, -1.7085374
0.0756836, 0.2045898, -0.5307617, 7.9268293, -154.2073212, -75.9146347, -1.6961166
0.097168, 0.1884766, -0.5698242, 5.7926831, -157.1341553, -75.6097565, -1.7283436
0.1030273, 0.1831055, -0.5966797, 4.8780489, -158.5975647, -75.1219559, -1.7875944
0.0947266, 0.1865234, -0.6352539, 5.7926831, -162.5, -73.7195129, -1.7921263
0.0844727, 0.1914062, -0.637207, 7.3170733, -165.1829376, -73.7195129, -1.8001831
0.0527344, 0.2119141, -0.5947266, 11.5853662, -171.5243988, -74.1463394, -1.7839017
0.0224609, 0.2348633, -0.5410156, 13.1707315, -174.146347, -74.8170776, -1.7756771
0.0097656, 0.2416992, -0.5273438, 13.7195129, -177.1341553, -78.1097565, -1.7901122
-0.0014648, 0.2382812, -0.5581055, 10.3658543, -176.8902435, -82.0731735, -1.7739986
-0.0068359, 0.2246094, -0.5991211, 8.1097565, -176.7073212, -83.9634171, -1.7184405
-0.0327148, 0.1757812, -0.6674805, 7.1951222, -177.6219482, -85.4878082, -1.6400549
-0.0537109, 0.1533203, -0.6782227, 9.5121956, -180.2439117, -85.3658524, -1.6157168
-0.0942383, 0.1523438, -0.6411133, 16.8292694, -187.1951294, -83.1707306, -1.56318
-0.1098633, 0.1767578, -0.6103516, 20.3658543, -190.4268341, -81.2804871, -1.4980545
-0.1210938, 0.253418, -0.5273438, 22.6829281, -192.4390259, -79.0853653, -1.4364538
-0.1074219, 0.2890625, -0.4907227, 20.6707325, -191.0365906, -78.5365906, -1.3793851
-0.0737305, 0.3510742, -0.4462891, 11.4634151, -186.0975647, -79.5731735, -1.2587015
-0.0263672, 0.3574219, -0.4790039, 5.9146342, -183.2926941, -80.5487823, -1.1882048
-0.0102539, 0.3432617, -0.5131836, -4.3292685, -178.5365906, -82.8658524, -1.1482567
-0.0083008, 0.3076172, -0.5878906, -7.8048782, -177.4390259, -82.9268341, -1.064332
-0.0283203, 0.2895508, -0.6279297, -6.8292685, -178.1707306, -81.7682953, -0.9837644
-0.0966797, 0.2773438, -0.7114258, -2.5609756, -181.1585388, -77.6219559, -0.9256886
-0.1450195, 0.2885742, -0.7514648, -1.402439, -183.2926941, -75.7926865, -0.8471351
-0.2504883, 0.3076172, -0.8222656, -3.9024391, -188.6585388, -71.9512177, -0.7610285
-0.3007812, 0.3232422, -0.8447266, -7.2560978, -191.4024506, -71.0975647, -0.7491112
-0.390625, 0.3623047, -0.8364258, -14.9390249, -196.4634247, -71.2804871, -0.6953994
-0.4301758, 0.3837891, -0.8369141, -17.8048782, -198.5365906, -72.0121994, -0.6128176
-0.4921875, 0.4155273, -0.9321289, -22.3780499, -202.012207, -74.9390259, -0.5540703
-0.5483398, 0.4282227, -1.1357422, -23.9634151, -203.6585388, -76.2195129, -0.4963302
-0.5839844, 0.4296875, -1.2128906, -25.6097565, -210.1829376, -77.9268341, -0.3962921
-0.659668, 0.4482422, -1.1918945, -24.6951218, -223.5365906, -76.9512177, -0.3721218
-0.6850586, 0.4711914, -1.1054688, -24.3902435, -231.5853729, -76.4634171, -0.3956207
-0.6313477, 0.5200195, -0.890625, -27.3170738, -242.7439117, -77.9268341, -0.3828641
-0.5722656, 0.534668, -0.793457, -32.3780479, -242.4390259, -80.9756088, -0.3748074
-0.4296875, 0.53125, -0.6210938, -48.0487823, -233.1707306, -91.2195129, -0.3365377
-0.3662109, 0.5131836, -0.5771484, -56.0365868, -227.3780518, -96.8292694, -0.3221027
-0.2485352, 0.4316406, -0.6469727, -66.6463394, -218.23172, -103.4146347, -0.3177386
-0.2045898, 0.3642578, -0.7421875, -66.4024429, -215.36586, -104.3902435, -0.2858473
-0.1962891, 0.2402344, -0.8920898, -55.0609779, -216.8292694, -101.4634171, -0.2670481
-0.3046875, 0.1875, -0.8847656, -45.4878044, -221.2804871, -98.3536606, -0.2499275
-0.3774414, 0.2041016, -0.8432617, -25.4268303, -232.7439117, -91.5243912, -0.2902113
-0.5146484, 0.2822266, -0.7983398, -16.1585369, -237.3170776, -87.5, -0.2747692
-0.5722656, 0.3320312, -0.7875977, -17.0121956, -236.2195129, -87.1951218, -0.2408637
-0.6640625, 0.421875, -0.75, -25.5487804, -231.646347, -88.8414688, -0.2133364
-0.6835938, 0.4599609, -0.7275391, -31.1585369, -230.1219635, -90.3658524, -0.1747311
-0.6665039, 0.5136719, -0.7109375, -39.0243912, -227.012207, -92.8658524, -0.0985275
-0.6357422, 0.5258789, -0.722168, -41.5853653, -224.2682953, -93.7195129, -0.0874495
-0.5668945, 0.550293, -0.7363281, -45.8536606, -219.512207, -94.2682953, -0.0941634
-0.5297852, 0.5615234, -0.722168, -47.9878044, -218.3536682, -94.2682953, -0.0552224
-0.4545898, 0.5742188, -0.6547852, -54.2682953, -217.2561035, -95.3658524, -0.0048676
-0.3979492, 0.5810547, -0.5878906, -58.3536606, -216.646347, -96.8902435, 0.0471656
-0.3828125, 0.5761719, -0.6005859, -66.8902435, -211.8902435, -101.0365906, 0.1143053
-0.3984375, 0.5415039, -0.7949219, -74.8780518, -207.0731812, -104.6951218, 0.2106508
-0.4301758, 0.5078125, -0.9375, -77.5, -205.9146423, -105.3658524, 0.237171
-0.5825195, 0.4418945, -1.1582031, -75.4878082, -211.2195129, -104.0243912, 0.3345235
-0.6879883, 0.4189453, -1.203125, -71.0975647, -217.9878082, -101.9512253, 0.4429541
-0.9121094, 0.4287109, -1.1826172, -59.8170738, -236.3414764, -95.7317123, 0.5215076
-0.9912109, 0.4541016, -1.1191406, -55.6097565, -244.5731812, -92.7439041, 0.5987182
-1.0449219, 0.5068359, -0.9443359, -55.6707344, -252.3170776, -90.3658524, 0.7155413
-1.0229492, 0.5166016, -0.8706055, -59.5731735, -251.646347, -92.1951218, 0.758175
-0.9038086, 0.5029297, -0.8686523, -71.4024429, -243.1097565, -101.9512253, 0.7699245
-0.7949219, 0.4223633, -0.9921875, -79.8780518, -235.1219635, -113.8414688, 0.8924544
-0.7797852, 0.3867188, -1.0302734, -79.6951218, -235.7926941, -116.7073212, 0.9928283
-0.7861328, 0.3515625, -0.9912109, -69.3292694, -245.2439117, -113.4756088, 1.0982376
-0.7875977, 0.3666992, -0.9296875, -61.5853691, -251.2195129, -108.2317123, 1.1663844
-0.737793, 0.453125, -0.7636719, -49.6951218, -256.8902588, -97.6219559, 1.2331884
-0.6987305, 0.4990234, -0.684082, -49.1463432, -255.3048859, -94.5731735, 1.3063706
-0.6142578, 0.5776367, -0.574707, -58.1707344, -245.6097565, -96.0365906, 1.3948272
-0.5864258, 0.5947266, -0.5625, -65.2439041, -240.0609741, -99.5731735, 1.4711986
-0.5678711, 0.5898438, -0.6367188, -77.3780518, -231.0975647, -107.9268341, 1.4742199
-0.5849609, 0.5786133, -0.6953125, -79.8170776, -228.7195129, -110.3048782, 1.5158465
-0.6801758, 0.5693359, -0.7939453, -75.5487823, -229.0853729, -110.36586, 1.5645228
-0.8051758, 0.5961914, -0.8276367, -66.0365906, -233.8414764, -105, 1.612192
-0.862793, 0.6176758, -0.815918, -63.2926826, -236.5853729, -101.8902435, 1.6413977
-0.9233398, 0.6508789, -0.7978516, -67.2560959, -238.2926941, -98.2926865, 1.6783246
-0.9208984, 0.6542969, -0.8334961, -73.4756088, -237.012207, -98.8414688, 1.6387121
-0.9101562, 0.6074219, -0.9980469, -90.6097565, -232.0731812, -103.2317123, 1.5749294
-0.9233398, 0.5693359, -1.0629883, -97.4390259, -231.4024506, -106.4024429, 1.5667048
-1.0019531, 0.4985352, -1.0957031, -100.7926865, -237.9878082, -108.2926865, 1.5615015
-1.0415039, 0.480957, -1.0878906, -97.7439041, -244.146347, -106.7682953, 1.5608301
-1.0917969, 0.4692383, -1.0449219, -87.68293, -254.2073212, -100.9756088, 1.5561303
-1.0942383, 0.4770508, -1.015625, -84.5121994, -257.3170776, -98.1097565, 1.5396811
-1.0732422, 0.4794922, -0.949707, -85.4878082, -258.2926941, -94.9390259, 1.4456855
-1.0322266, 0.4414062, -0.8554688, -92.8048782, -255.36586, -96.2804871, 1.3919738
-1.0102539, 0.4174805, -0.7924805, -96.0365906, -253.8414764, -97.9878082, 1.3701534
-0.9580078, 0.3588867, -0.7016602, -97.0121994, -250.1829376, -101.5243912, 1.3466545
-0.9345703, 0.3256836, -0.706543, -95.0609741, -247.5609741, -102.5, 1.3261769
-0.934082, 0.2944336, -0.7783203, -85.5487823, -240.9756165, -100.8536606, 1.3345693
-0.9648438, 0.2993164, -0.8291016, -79.6951218, -239.9390259, -97.8048782, 1.2942855
-1.0649414, 0.3505859, -0.902832, -66.7073212, -241.9512177, -88.9634171, 1.22916
-1.1162109, 0.3920898, -0.9213867, -60.8536606, -244.3292694, -83.9634171, 1.2096895
-1.1967773, 0.4946289, -0.9077148, -53.6585388, -248.1097565, -75.6707306, 1.183505
-1.2167969, 0.5439453, -0.8828125, -51.8292694, -248.4756165, -73.6585388, 1.1855192
-1.2275391, 0.6113281, -0.8076172, -55, -247.3780518, -73.9634171, 1.1529564
-1.1879883, 0.6425781, -0.7016602, -63.5975609, -242.2561035, -78.5975647, 1.1140154
-1.1518555, 0.6411133, -0.6425781, -68.9634171, -237.9268341, -81.646347, 1.1116655
-1.0644531, 0.6196289, -0.5415039, -79.5731735, -227.9268341, -88.5975647, 1.1282826
-1.0219727, 0.5996094, -0.5288086, -83.8414688, -222.6829376, -90.6097565, 1.1747768
-0.9545898, 0.5522461, -0.6166992, -88.7804871, -212.2561035, -93.2926865, 1.1464103
-0.9521484, 0.5273438, -0.6894531, -89.3292694, -208.0487823, -93.0487823, 1.1365072
-1.0268555, 0.484375, -0.8173828, -83.5975647, -205.9146423, -89.2682953, 1.1365072
-1.0859375, 0.4736328, -0.8466797, -78.5975647, -208.5975647, -85.6707306, 1.1237507
-1.2177734, 0.4848633, -0.8334961, -66.2804871, -214.7561035, -79.146347, 1.1401999
-1.3056641, 0.5263672, -0.7719727, -61.5853691, -216.7682953, -76.5853653, 1.1969329
-1.328125, 0.5488281, -0.7402344, -58.9024391, -215.7926941, -75.4268341, 1.190219
-1.3203125, 0.565918, -0.7329102, -64.3292694, -209.5731812, -79.6951218, 1.1519493
-1.2983398, 0.5600586, -0.7504883, -68.4756088, -205.6097565, -82.7439041, 1.1465782
-1.2744141, 0.5219727, -0.784668, -75.1219559, -200.0609741, -88.5975647, 1.1355001
-1.2695312, 0.4995117, -0.7851562, -75.7926865, -199.0853729, -89.8170776, 1.109987
-1.2675781, 0.4697266, -0.7705078, -71.7682953, -199.3292694, -87.4390259, 1.0962234
-1.2641602, 0.4736328, -0.7558594, -68.1097565, -199.7561035, -84.7560959, 1.0968948
-1.253418, 0.4975586, -0.7128906, -62.9878082, -199.0243988, -78.2926865, 1.0169986
-1.2416992, 0.5117188, -0.6777344, -62.1341476, -197.7439117, -75.9756088, 0.9854429
-1.2114258, 0.5356445, -0.6474609, -63.1097565, -193.6585388, -75, 0.9565728
-1.1904297, 0.5395508, -0.675293, -64.2682953, -190.4268341, -76.0365906, 0.9169604
-1.2011719, 0.5395508, -0.6938477, -66.1585388, -184.4512177, -80, 0.8746624
-1.2451172, 0.5512695, -0.7036133, -63.7195129, -183.3536682, -81.4024429, 0.8471351
-1.2666016, 0.5625, -0.7041016, -61.2804909, -183.5975647, -80.7317123, 0.7596857
-1.2866211, 0.6088867, -0.6972656, -57.5, -182.9878082, -77.8048782, 0.6161746
-1.2832031, 0.6245117, -0.7006836, -56.8292694, -181.4634247, -76.2804871, 0.5231861
-1.2553711, 0.6357422, -0.730957, -58.6585388, -176.5243988, -75.4268341, 0.4476539
-1.2412109, 0.6201172, -0.7529297, -60.6097565, -174.3902435, -76.2804871, 0.391928
-1.234375, 0.5625, -0.8017578, -64.8170776, -172.4390259, -79.7560959, 0.3046464
-1.2436523, 0.5292969, -0.8022461, -65.7926865, -172.9878082, -81.0975647, 0.2234073
-1.2666016, 0.4887695, -0.7460938, -64.0853653, -175.0609741, -81.1585388, 0.1233692
-1.2680664, 0.4804688, -0.6748047, -61.7073174, -175.5487823, -79.9390259, 0.0372625
-1.2602539, 0.4868164, -0.6352539, -55.4878044, -173.2317047, -76.7073212, -0.0397803
-1.2216797, 0.4897461, -0.6088867, -50.3658562, -168.7804871, -74.5731735, -0.1713741
-1.1982422, 0.484375, -0.6289062, -49.2073174, -166.4634247, -74.3902435, -0.2521096
-1.1723633, 0.4765625, -0.6611328, -47.6219521, -162.0121918, -75.3048782, -0.3012894
-1.1787109, 0.4765625, -0.6630859, -46.0365868, -160.7926941, -75.7317123, -0.3586938
-1.2172852, 0.5053711, -0.6494141, -39.2073174, -160.2439117, -73.5365906, -0.4211337
-1.2260742, 0.5317383, -0.640625, -35.7317085, -160.2439117, -71.8292694, -0.4536965
-1.2265625, 0.5878906, -0.6235352, -31.4634151, -158.5365906, -67.8048782, -0.5429923
-1.2197266, 0.6098633, -0.6191406, -32.1951218, -156.4024353, -66.2804871, -0.6332952
-1.1884766, 0.6240234, -0.5966797, -39.9390259, -150.9146423, -65.7317123, -0.6636759
-1.1474609, 0.6030273, -0.5419922, -45.0609779, -147.9878082, -66.6463394, -0.6967422
-1.125, 0.5776367, -0.5200195, -53.5975609, -142.6219482, -69.6951218, -0.7380331
-1.1020508, 0.5273438, -0.484375, -55.7317085, -136.8292694, -71.8902435, -0.7534752
-1.097168, 0.5087891, -0.4804688, -54.1463432, -133.7804871, -72.1341476, -0.7356832
-1.1030273, 0.4824219, -0.4960938, -49.5121956, -128.7804871, -70.2439041, -0.7722744
-1.1083984, 0.4760742, -0.5102539, -47.3170738, -126.646347, -68.7195129, -0.7789883
-1.1201172, 0.4814453, -0.534668, -44.3292694, -123.0487823, -65.4878082, -0.7695888
-1.1210938, 0.4946289, -0.5395508, -43.5975609, -121.7682953, -63.7804909, -0.7736172
-1.1206055, 0.5200195, -0.5576172, -43.0487823, -118.4146347, -62.1341476, -0.7769741
-1.1210938, 0.5405273, -0.5600586, -43.0487823, -116.8292694, -61.9512215, -0.7309834
-1.1230469, 0.5708008, -0.5722656, -42.6219521, -114.2073212, -62.0121956, -0.7209125
-1.1108398, 0.5878906, -0.5786133, -42.6219521, -113.4756088, -62.6219521, -0.7361868
-1.1064453, 0.5996094, -0.5742188, -43.2926826, -112.0731735, -63.9024391, -0.7061418
-1.0927734, 0.6098633, -0.5649414, -45.0609779, -110.4268341, -64.8780518, -0.6957351
-1.0864258, 0.6147461, -0.5634766, -46.1585388, -109.0243912, -65.3658524, -0.6799573
-1.0678711, 0.6118164, -0.5458984, -48.4146347, -106.2804871, -65.7317123, -0.6866712
-1.0625, 0.6088867, -0.5356445, -49.2682953, -105.6707306, -65.9146347, -0.719234
-1.043457, 0.5942383, -0.5170898, -50.8536606, -103.5975647, -66.7682953, -0.7113451
-1.0302734, 0.5834961, -0.5073242, -51.4024391, -102.5, -67.1341476, -0.6715648
-1.0058594, 0.5556641, -0.4853516, -51.8902435, -100, -67.9268341, -0.6420233
-1.0004883, 0.543457, -0.4765625, -51.8292694, -98.4756088, -68.6585388, -0.6990921
-0.9960938, 0.5268555, -0.4599609, -50.7926826, -95.8536606, -69.5731735, -0.7145342
-0.9980469, 0.512207, -0.4477539, -50.0609779, -94.5731735, -69.4512177, -0.7096666
-0.9956055, 0.5014648, -0.4501953, -48.2317085, -92.1341476, -69.0853653, -0.7177234
-0.9956055, 0.4853516, -0.4570312, -46.5853653, -89.4512253, -68.3536606, -0.7361868
-0.9926758, 0.4765625, -0.4628906, -46.0975609, -88.4756088, -68.2317123, -0.7635462
-0.9951172, 0.4672852, -0.4677734, -45.3658562, -86.8902435, -67.7439041, -0.8380713
-0.9941406, 0.4658203, -0.4711914, -45.3048782, -86.3414688, -67.4390259, -0.9146105
-1.0004883, 0.4643555, -0.4785156, -44.4512215, -85.2439041, -67.1341476, -0.9330739
-1.0043945, 0.46875, -0.4824219, -43.7804871, -84.8780518, -66.7682953, -0.9537194
-1.0117188, 0.4765625, -0.4824219, -42.5, -84.0853653, -65.7317123, -0.9790646
-1.0107422, 0.4780273, -0.4848633, -41.5243912, -83.7195129, -65.4878082, -1.0059205
-1.0126953, 0.4667969, -0.4907227, -41.5243912, -83.7195129, -65.1219559, -1.0211948
-1.0166016, 0.4433594, -0.4936523, -41.8292694, -83.4756088, -65.4878082, -1.109987
-1.0195312, 0.4331055, -0.4868164, -43.6585388, -83.2926865, -65.0609741, -1.1442283
-1.0258789, 0.4140625, -0.4833984, -44.8780479, -82.5609741, -64.5121994, -1.1482567
-1.0288086, 0.4038086, -0.480957, -44.8780479, -82.0731735, -63.841465, -1.1566491
-1.043457, 0.3994141, -0.4760742, -43.2317085, -82.3170776, -61.9512215, -1.156817
-1.0454102, 0.3999023, -0.4697266, -41.7682953, -82.2560959, -60.8536606, -1.1227436
-1.0483398, 0.40625, -0.465332, -39.1463432, -82.8048782, -59.0853691, -1.1341573
-1.0478516, 0.4106445, -0.4648438, -38.4146347, -82.7439041, -58.6585388, -1.1819944
-1.0532227, 0.4189453, -0.4707031, -38.1707344, -82.1951218, -58.1707344, -1.162356
-1.0605469, 0.4199219, -0.4736328, -38.2926826, -81.5243912, -58.1707344, -1.1341573
-1.065918, 0.4257812, -0.4658203, -38.7804871, -81.0975647, -57.4390259, -1.0985733
-1.0698242, 0.4257812, -0.4619141, -38.4146347, -81.3414688, -57.1341476, -1.0844739
-1.0703125, 0.4287109, -0.4609375, -37.5609779, -81.0975647, -56.4024391, -1.0529183
-1.0629883, 0.4233398, -0.449707, -37.3780479, -79.8780518, -55.7317085, -0.9891356
-1.0595703, 0.4155273, -0.4414062, -37.7439041, -79.4512177, -55.6707344, -0.8830549
-1.0473633, 0.402832, -0.4121094, -37.9268303, -77.8658524, -56.0365868, -0.7919127
-1.0419922, 0.3935547, -0.3935547, -37.6219521, -77.2560959, -55.9756126, -0.7878843
-1.0229492, 0.3828125, -0.3642578, -36.2195129, -75.3658524, -55.7317085, -0.729305
-1.0107422, 0.3833008, -0.3642578, -35.0609779, -74.1463394, -55.3048782, -0.6661936
-0.9921875, 0.3764648, -0.3725586, -33.7804871, -70.7317123, -54.0243912, -0.5866331
-0.9882812, 0.371582, -0.3710938, -33.4756088, -69.6951218, -53.2317085, -0.4896162
-0.9741211, 0.3574219, -0.3686523, -34.7560997, -68.4756088, -51.5243912, -0.3803464
-0.9628906, 0.331543, -0.3691406, -36.0975609, -67.9268341, -50.7926826, -0.3278096
-0.9570312, 0.3173828, -0.3686523, -38.6585388, -65.8536606, -48.9634171, -0.3054856
-0.9672852, 0.3105469, -0.3642578, -39.4512215, -63.1707344, -47.0731735, -0.2324712
-0.9741211, 0.3032227, -0.3554688, -38.9634171, -62.8658562, -46.341465, -0.1707027
-0.9882812, 0.300293, -0.3330078, -35.1829262, -61.7073174, -43.841465, -0.1210193
-0.996582, 0.3071289, -0.315918, -32.8048782, -61.2195129, -42.6219521, -0.057908
-1.0078125, 0.3217773, -0.3066406, -28.9024391, -59.0243912, -40.3658562, 0.0085603
-1.0063477, 0.3339844, -0.3115234, -27.6829281, -57.3170738, -39.2073174, 0.0052033
-1.0048828, 0.3427734, -0.3330078, -27.7439022, -53.3536606, -37.9268303, 0.0320592
-1.003418, 0.3461914, -0.3457031, -28.5365868, -51.8292694, -37.3780479, 0.0683146
-1.0048828, 0.3374023, -0.3652344, -31.1585369, -49.3902435, -37.5609779, 0.0965133
-1.0063477, 0.3115234, -0.378418, -32.9268303, -47.5609779, -36.9512215, 0.1156481
-1.0126953, 0.3022461, -0.3823242, -32.9878044, -46.4634171, -36.5853653, 0.1576104
-1.034668, 0.2890625, -0.3881836, -31.5243912, -44.8170738, -34.9390259, 0.1196765
-1.0424805, 0.2871094, -0.3935547, -30.060976, -44.6341476, -33.5365868, 0.0451514
-1.0566406, 0.2832031, -0.3862305, -27.560976, -43.1707344, -30.3048782, 0.0350805
-1.0595703, 0.284668, -0.3793945, -26.4634151, -42.3780479, -28.5365868, 0.026688
-1.0541992, 0.2915039, -0.3603516, -24.2682934, -40.7317085, -26.1585369, 0.040116
-1.0424805, 0.2910156, -0.3500977, -23.0487804, -39.3292694, -24.8170738, 0.0199741
-1.0214844, 0.296875, -0.3310547, -20.8536587, -36.6463432, -23.9024391, -0.0303807
-1.0146484, 0.300293, -0.3173828, -20, -35, -23.4756107, -0.0599222
-0.9975586, 0.3129883, -0.2924805, -19.2682934, -31.7682934, -22.0121956, -0.0746929
-0.9741211, 0.3251953, -0.2871094, -19.4512196, -27.1951218, -20.5487804, -0.082414
-0.96875, 0.3256836, -0.2841797, -19.4512196, -24.8780499, -20.060976, -0.1515679
-0.9663086, 0.3203125, -0.2797852, -17.9268303, -20.060976, -18.780489, -0.1623102
-0.9750977, 0.3203125, -0.2851562, -16.0365849, -17.6829281, -17.9878044, -0.1639887
-0.9921875, 0.3125, -0.3173828, -11.1585369, -14.9390249, -16.1585369, -0.1701991
-1.0004883, 0.3085938, -0.3393555, -9.1463413, -13.841464, -14.5121956, -0.1757382
-1.0302734, 0.2973633, -0.3681641, -7.5609756, -12.2560978, -11.341464, -0.1472038
-1.0493164, 0.293457, -0.3764648, -7.5, -11.219512, -10.1219511, -0.1693599
-1.0625, 0.2714844, -0.3857422, -8.5365858, -8.5975609, -7.5609756, -0.2072938
-1.0668945, 0.2592773, -0.394043, -8.4756098, -6.8292685, -6.5853658, -0.1965515
-1.0732422, 0.2387695, -0.4111328, -6.8292685, -2.6219513, -5.2439027, -0.1837949
-1.0961914, 0.2304688, -0.434082, -0.9756098, -0.0609756, -3.8414636, -0.1529107
-1.1098633, 0.2314453, -0.4418945, 2.6829269, 0.1219512, -2.5, -0.103563
-1.1225586, 0.2387695, -0.4545898, 8.9634151, -0.2439024, 1.2195122, -0.0323949
-1.1147461, 0.2490234, -0.4584961, 10.5487804, -0.1829268, 3.4146342, -0.0370947
-1.0976562, 0.2719727, -0.4511719, 10.7317076, 0.8536586, 7.0731707, -0.0092317
-1.0869141, 0.2832031, -0.4335938, 10.3658543, 1.6463414, 8.1707315, 0.0337377
-1.0634766, 0.3251953, -0.3925781, 10.5487804, 4.2682929, 9.6341467, 0.0750286
-1.0566406, 0.3452148, -0.3774414, 12.2560978, 6.4634147, 10.6097565, 0.1327687
-1.0537109, 0.3867188, -0.3842773, 16.4024391, 10.7317076, 12.0731707, 0.2495918
-1.0566406, 0.4135742, -0.4042969, 17.9878044, 12.0121956, 13.3536587, 0.2912184
-1.0644531, 0.4492188, -0.4267578, 18.0487804, 13.1097565, 15.8536587, 0.307332
-1.0532227, 0.4614258, -0.4301758, 14.4512196, 13.9024391, 17.3780499, 0.3751431
-1.0522461, 0.4541016, -0.4228516, 12.0121956, 14.9390249, 17.5, 0.4340581
-1.0498047, 0.4194336, -0.4106445, 8.1097565, 19.6341476, 15.9756098, 0.497673
-1.0620117, 0.3945312, -0.4042969, 7.4390244, 21.8292694, 15.4268293, 0.5335927
-1.0957031, 0.3515625, -0.4023438, 8.1707315, 26.3414631, 15.2439032, 0.5423209
-1.1123047, 0.3330078, -0.4213867, 9.0853662, 27.9878063, 16.0365849, 0.5758907
-1.1425781, 0.3134766, -0.4443359, 12.3170738, 31.341465, 18.780489, 0.6141604
-1.1542969, 0.3129883, -0.4458008, 14.8170738, 33.2926826, 20.9756107, 0.6396735
-1.1679688, 0.3242188, -0.4511719, 20, 36.7073174, 26.3414631, 0.5899901
-1.1625977, 0.3525391, -0.4550781, 22.7439022, 38.5975609, 28.9634151, 0.603418
-1.1469727, 0.3569336, -0.4677734, 26.0365868, 43.2926826, 32.7439041, 0.6363165
-1.1367188, 0.3671875, -0.5234375, 27.0731716, 48.1097565, 34.2682953, 0.6316167
-1.140625, 0.3701172, -0.5507812, 26.0975609, 50.0609779, 34.6951218, 0.6131533
-1.1699219, 0.3720703, -0.5649414, 24.0243912, 50.9756126, 36.2195129, 0.6054322
-1.1850586, 0.3720703, -0.550293, 22.9878063, 50.3048782, 37.7439041, 0.5570916
-1.2001953, 0.3686523, -0.5102539, 23.3536587, 51.0975609, 41.5243912, 0.4923018
-1.1948242, 0.3637695, -0.4916992, 23.8414631, 52.8658562, 42.8658562, 0.4756847
-1.1879883, 0.3457031, -0.4428711, 24.5731716, 57.9268303, 45.0609779, 0.4607462
-1.1860352, 0.3364258, -0.4243164, 24.8170738, 60.7926826, 45.6097565, 0.424155
-1.1772461, 0.3442383, -0.3925781, 25.5487804, 67.2560959, 47.1951218, 0.4073701
-1.1650391, 0.3642578, -0.4077148, 25.9756107, 70.8536606, 48.841465, 0.4006561
-1.1606445, 0.3837891, -0.4233398, 26.8902454, 78.7195129, 52.5609779, 0.3106889
-1.1704102, 0.4233398, -0.4658203, 28.2926826, 84.6951218, 57.0121956, 0.2640269
-1.175293, 0.4438477, -0.4887695, 29.0243912, 87.2560959, 59.0853691, 0.2267643
-1.1918945, 0.4716797, -0.5170898, 30.2439022, 89.8780518, 62.0731735, 0.1589532
-1.1992188, 0.4858398, -0.5239258, 30.6097565, 90.9756088, 62.9268303, 0.0916457
-1.2026367, 0.4946289, -0.5493164, 29.1463413, 93.7195129, 63.0487823, 0.0575723
-1.2001953, 0.4946289, -0.5668945, 27.9878063, 96.3414688, 61.9512215, -0.0263523
-1.2241211, 0.4790039, -0.5893555, 25.1829281, 102.3780518, 60.5487823, -0.1508965
-1.2402344, 0.4726562, -0.5888672, 24.8780499, 104.6951218, 60.5487823, -0.2106508
-1.2651367, 0.4599609, -0.5664062, 25.3658543, 106.8902435, 62.5609779, -0.2589914
-1.2480469, 0.4609375, -0.5419922, 26.9512196, 107.5609818, 64.0243912, -0.2724193
-1.2299805, 0.4624023, -0.5507812, 29.6341476, 111.8902435, 66.5243912, -0.2458991
-1.2197266, 0.4697266, -0.5708008, 31.2195129, 118.7195129, 68.4756088, -0.1884947
-1.2211914, 0.4692383, -0.5742188, 32.0121956, 120.9756088, 69.4512177, -0.0679789
-1.2241211, 0.4848633, -0.5629883, 32.3780479, 123.1707382, 71.5853653, 0.0595865
-1.2231445, 0.4907227, -0.5634766, 32.7439041, 124.146347, 72.5, 0.1404898
-1.2109375, 0.503418, -0.5551758, 32.6829262, 128.2317047, 73.7195129, 0.1287404
-1.2080078, 0.5063477, -0.5571289, 32.4390259, 130.4878082, 74.0853653, 0.1163195
-1.2080078, 0.5131836, -0.5654297, 32.1341476, 136.2804871, 75.0609741, 0.1218585
-1.2060547, 0.5161133, -0.5717773, 31.7682934, 138.9024353, 75.7317123, 0.1374685
-1.2099609, 0.5161133, -0.5986328, 31.8292694, 143.1707306, 77.0731735, 0.1290761
-1.21875, 0.5219727, -0.6308594, 32.0731697, 145.3048859, 77.9878082, 0.1493858
-1.2226562, 0.5205078, -0.6542969, 31.8902454, 148.9024353, 80.4268341, 0.1092699
-1.2338867, 0.5180664, -0.6977539, 31.4634151, 152.0121918, 82.9878082, 0.0381018
-1.2480469, 0.5117188, -0.7016602, 31.5853672, 153.2926941, 84.146347, 0.040116
-1.2568359, 0.5102539, -0.6806641, 32.0121956, 153.7804871, 86.2195129, 0.0599222
-1.2504883, 0.5117188, -0.659668, 33.2926826, 154.3902435, 86.8292694, 0.0750286
-1.2265625, 0.5219727, -0.612793, 36.6463432, 157.86586, 87.68293, 0.1163195
-1.2089844, 0.53125, -0.6123047, 38.0487823, 160.1219482, 87.68293, 0.1502251
-1.1855469, 0.5537109, -0.6621094, 39.7560997, 166.9512177, 87.9268341, 0.0991989
-1.1870117, 0.5610352, -0.6958008, 39.0243912, 169.5731812, 89.146347, 0.0555581
-1.2006836, 0.5673828, -0.7426758, 35.9756088, 171.5243988, 91.646347, 0.0092317
-1.2124023, 0.5595703, -0.7685547, 34.1463432, 171.0365906, 93.2317123, -0.0699931
-1.2226562, 0.5600586, -0.7807617, 31.1585369, 170.1829376, 95.9146347, -0.1666743
-1.2539062, 0.5595703, -0.7905273, 30.6097565, 170.9756165, 98.4146347, -0.230457
-1.2700195, 0.5615234, -0.7841797, 30.9756107, 171.5243988, 99.4512253, -0.3256275
-1.2841797, 0.5605469, -0.7543945, 32.1341476, 172.2561035, 100.5487823, -0.399649
-1.2822266, 0.5595703, -0.7373047, 33.3536606, 172.9268341, 100.6097565, -0.3922637
-1.2558594, 0.5629883, -0.7163086, 34.8170738, 175.7926941, 99.2073212, -0.3738003
-1.2426758, 0.5708008, -0.7216797, 35.1829262, 178.5365906, 98.2926865, -0.3623865
-1.2255859, 0.5834961, -0.7587891, 34.8780479, 184.5731812, 98.8414688, -0.4318761
-1.2216797, 0.5942383, -0.777832, 33.7195129, 186.3414612, 99.8170776, -0.5194934
-1.2114258, 0.6044922, -0.8168945, 31.7073174, 186.5853729, 103.2317123, -0.6030823
-1.2006836, 0.5966797, -0.7998047, 30.7926846, 186.1585388, 104.8170776, -0.6583047
-1.2041016, 0.5888672, -0.7636719, 30.3048782, 185.5487823, 105.7926865, -0.6719005
-1.1938477, 0.5810547, -0.7089844, 32.9878044, 186.5243988, 105.18293, -0.7272908
-1.184082, 0.5800781, -0.7080078, 34.8170738, 189.146347, 104.146347, -0.7168841
-1.1894531, 0.5825195, -0.7177734, 36.2195129, 196.0365906, 102.9878082, -0.6826429
-1.1977539, 0.5922852, -0.7172852, 36.0365868, 198.3536682, 103.1707306, -0.6531014
-1.1884766, 0.6108398, -0.7104492, 34.5121956, 200.7926941, 104.7561035, -0.6373236
-1.1689453, 0.6074219, -0.7109375, 33.1707306, 202.1341553, 105.6707306, -0.6118105
-1.1347656, 0.5996094, -0.7270508, 29.8780499, 206.9512177, 106.4634171, -0.6285954
-1.1313477, 0.5913086, -0.7329102, 27.8658543, 209.3902435, 106.1585388, -0.6809644
-1.1298828, 0.5712891, -0.7456055, 25.6707325, 213.2317047, 105.8536606, -0.6796216
-1.1450195, 0.5600586, -0.7729492, 24.8780499, 214.2682953, 106.0975647, -0.6495766
-1.1557617, 0.5561523, -0.7919922, 25.3658543, 216.4024506, 108.5365906, -0.600061
-1.1777344, 0.5639648, -0.8442383, 25.9146347, 217.4390259, 111.7682953, -0.5112688
-1.1884766, 0.5756836, -0.8569336, 25.6707325, 217.2561035, 113.5365906, -0.4103914
-1.1914062, 0.6030273, -0.8442383, 23.2926826, 215.7926941, 116.646347, -0.3929351
-1.1782227, 0.6118164, -0.8203125, 21.7682934, 215, 117.2561035, -0.3338521
-1.1347656, 0.6298828, -0.7578125, 19.2073174, 216.5853729, 115.6707306, -0.2259251
-1.1142578, 0.6362305, -0.7373047, 18.2926826, 219.2682953, 113.9024429, -0.0894636
-1.0771484, 0.6352539, -0.7470703, 16.8292694, 225.6707306, 110.9146347, 0.1030594
-1.0693359, 0.6245117, -0.7822266, 15.9146347, 228.9634247, 109.8170776, 0.2871901
-1.0732422, 0.5791016, -0.8598633, 12.8048782, 232.1951294, 109.3292694, 0.3637293
-1.1015625, 0.5366211, -0.8632812, 10.3658543, 231.8292694, 110.4878082, 0.3597009
-1.1098633, 0.5234375, -0.824707, 8.0487804, 227.9878082, 114.3292694, 0.3603723
-1.081543, 0.5239258, -0.7275391, 9.8170738, 227.3780518, 118.6585388, 0.3603723
-1.0537109, 0.5351562, -0.7041016, 11.7073174, 229.5731812, 119.6341476, 0.4187839
-0.9995117, 0.5625, -0.7578125, 15.060976, 237.8048859, 118.9634171, 0.4966659
-0.9887695, 0.5712891, -0.831543, 14.6341467, 241.8292694, 117.9268341, 0.6007324
-1.0249023, 0.5913086, -0.9833984, 9.5121956, 244.8170776, 117.5609818, 0.7340047
-1.0600586, 0.6015625, -1.0200195, 6.2195125, 242.6219635, 119.8780518, 0.8726482
-1.1069336, 0.6113281, -0.9785156, 2.8658538, 234.5731812, 126.3414688, 0.9706722
-1.0947266, 0.6049805, -0.9272461, 3.0487804, 230.5487823, 128.5365906, 0.9726864
-1.034668, 0.5708008, -0.847168, 5.0609756, 228.7195129, 127.0121994, 0.9941711
-1.0083008, 0.5556641, -0.8422852, 5.4878049, 230.36586, 123.4756088, 0.9679866
-1.0146484, 0.5595703, -0.8603516, 2.9878049, 234.2682953, 117.2561035, 0.8964828
-1.0356445, 0.5834961, -0.8984375, -2.4390244, 235.73172, 117.5609818, 0.8045014
-1.0302734, 0.5981445, -0.9077148, -4.5731707, 235.7926941, 119.8780518, 0.7625391
-0.9873047, 0.6044922, -0.9057617, -6.7682929, 234.512207, 124.8780518, 0.6732433
-0.9633789, 0.6079102, -0.9003906, -7.3170733, 233.7195129, 125.9146347, 0.5282216
-0.9365234, 0.6176758, -0.8886719, -8.4146347, 232.5609741, 125.7926865, 0.4313725
-0.9350586, 0.6264648, -0.8720703, -9.3902445, 231.4634247, 125, 0.2989395
-0.9223633, 0.6191406, -0.800293, -11.4634151, 231.0975647, 122.9268341, 0.124712
-0.9008789, 0.5942383, -0.7749023, -12.3170738, 232.012207, 120.9756088, -0.0569009
-0.8603516, 0.5195312, -0.7910156, -15.2439032, 236.1585388, 116.1585388, -0.2166934
-0.8857422, 0.4736328, -0.8520508, -18.4756107, 239.146347, 114.0243912, -0.3610437
-0.9140625, 0.46875, -0.8706055, -19.2682934, 238.8414764, 116.5243912, -0.3244526
-0.9404297, 0.4785156, -0.8710938, -18.1097565, 235.1219635, 125.36586, -0.1733883
-0.9355469, 0.4838867, -0.8642578, -16.5853653, 232.9878082, 129.5121918, -0.0313878
-0.890625, 0.5, -0.8447266, -13.4756098, 230.4878082, 133.7804871, 0.0558938
-0.8681641, 0.5029297, -0.8481445, -13.4146347, 230.1829376, 133.1097565, 0.1062486
-0.8579102, 0.5024414, -0.8564453, -16.280489, 229.8780518, 129.5121918, 0.0354162
-0.8632812, 0.5078125, -0.8549805, -18.2926826, 229.3902435, 128.0487823, -0.10692
-0.8642578, 0.5141602, -0.8662109, -22.0121956, 227.0731812, 127.7439041, -0.248249
-0.8544922, 0.5073242, -0.8769531, -24.0243912, 226.2195129, 128.8414612, -0.4335546
-0.8408203, 0.4960938, -0.8549805, -26.0975609, 223.8414612, 132.0121918, -0.567834
-0.8120117, 0.4853516, -0.7749023, -27.0121956, 220.6097565, 134.2073212, -0.6215457
-0.7802734, 0.4790039, -0.7485352, -26.8292694, 219.6951294, 134.4512177, -0.5367819
-0.7255859, 0.4443359, -0.7631836, -27.8048782, 222.3170776, 132.0121918, -0.3576867
-0.7236328, 0.4350586, -0.7758789, -29.0853672, 224.2073212, 130.9146423, -0.1935302
-0.7543945, 0.4204102, -0.784668, -29.5121956, 224.6341553, 131.7682953, -0.0958419
-0.7597656, 0.409668, -0.7895508, -29.6951218, 222.5609741, 133.1707306, -0.1216907
-0.7392578, 0.3857422, -0.8222656, -30.8536587, 218.0487823, 137.3170776, -0.1819486
-0.7265625, 0.3754883, -0.8291016, -32.5609779, 216.7073212, 139.146347, -0.2385138
-0.715332, 0.3676758, -0.7861328, -35.3048782, 214.6951294, 142.0731812, -0.3063249
-0.7089844, 0.3618164, -0.7416992, -35.4268303, 213.4756165, 143.1097565, -0.3575189
-0.6616211, 0.3579102, -0.6337891, -32.4390259, 211.3414612, 143.1097565, -0.3776608
-0.6049805, 0.3955078, -0.5683594, -27.2560978, 212.8048859, 141.1585388, -0.4412757
-0.5825195, 0.4238281, -0.5683594, -25.5487804, 215.4878082, 140.5487823, -0.5144579
-0.5385742, 0.4682617, -0.6103516, -25.8536587, 221.646347, 141.0365906, -0.5265431
-0.519043, 0.4799805, -0.6196289, -27.9268303, 223.4146423, 141.4024353, -0.5648127
-0.4716797, 0.480957, -0.5898438, -33.5365868, 224.0853729, 141.4634247, -0.6087892
-0.4458008, 0.4672852, -0.5771484, -35.3658562, 224.0243988, 140.36586, -0.6304417
-0.4272461, 0.434082, -0.5957031, -37.9268303, 225.7926941, 138.6585388, -0.6448768
-0.4418945, 0.4267578, -0.6079102, -38.1707344, 226.8292694, 138.4756165, -0.7326619
-0.4956055, 0.4248047, -0.6118164, -37.7439041, 226.7682953, 140.6097565, -0.779324
-0.5131836, 0.4331055, -0.6000977, -37.4390259, 225.7926941, 142.7439117, -0.7999695
-0.5151367, 0.4316406, -0.5639648, -36.2804871, 223.5975647, 144.8780518, -0.8380713
-0.4907227, 0.4189453, -0.5634766, -36.5853653, 224.8170776, 142.0121918, -0.8880903
-0.4887695, 0.4116211, -0.5673828, -37.1951218, 226.0975647, 139.3292694, -0.9193103
-0.5058594, 0.409668, -0.5649414, -36.8902435, 226.0975647, 135, -1.038819
-0.5097656, 0.4189453, -0.5620117, -36.4024391, 225.36586, 134.2682953, -1.2375525
-0.4863281, 0.4311523, -0.5722656, -34.9390259, 223.7195129, 134.8170776, -1.4043946
-0.4658203, 0.4326172, -0.5917969, -35.1829262, 223.23172, 135.0609741, -1.5927214
-0.4394531, 0.4204102, -0.6264648, -37.3780479, 221.7073212, 134.5121918, -1.7350576
-0.440918, 0.4091797, -0.6157227, -38.7804871, 220.0609741, 133.8414612, -1.8095827
-0.4453125, 0.3930664, -0.5488281, -39.8170738, 215.8536682, 133.0487823, -1.7753414
-0.4248047, 0.362793, -0.5039062, -38.9634171, 214.4512177, 132.6829224, -1.6427405
-0.4072266, 0.3496094, -0.527832, -36.6463432, 213.8414612, 129.7561035, -1.4658274
-0.4208984, 0.3442383, -0.6147461, -36.4634171, 213.8414612, 127.2561035, -1.2422522
-0.4467773, 0.3598633, -0.6376953, -36.7073174, 212.5609741, 127.7439041, -1.10663
-0.4863281, 0.4160156, -0.6044922, -35.7926826, 205.2439117, 131.3414612, -0.9478447
-0.4814453, 0.4433594, -0.5541992, -34.2682953, 200.9146423, 133.7195129, -0.8186007
-0.4018555, 0.4667969, -0.4570312, -32.0731697, 195.8536682, 133.4146423, -0.7457542
-0.3491211, 0.4536133, -0.4428711, -32.6829262, 196.646347, 129.8170776, -0.7209125
-0.2836914, 0.3999023, -0.4765625, -38.3536606, 199.4512177, 118.5365906, -0.673579
-0.2768555, 0.3603516, -0.5151367, -42.0121956, 199.7561035, 113.2317123, -0.6960708
-0.315918, 0.2910156, -0.5551758, -47.2560997, 195.6097565, 108.8414688, -0.7538109
-0.359375, 0.2451172, -0.5488281, -47.6219521, 191.646347, 110, -0.7316548
-0.3779297, 0.2211914, -0.5341797, -42.3170738, 183.2926941, 117.0731735, -0.676936
-0.3652344, 0.1933594, -0.4785156, -34.2073174, 176.4024506, 122.9878082, -0.5953613
-0.3461914, 0.1894531, -0.449707, -30.6097565, 173.2317047, 123.8414688, -0.509926
-0.3032227, 0.1928711, -0.4082031, -25.7317085, 167.9878082, 119.6951218, -0.4661173
-0.2895508, 0.2011719, -0.4018555, -24.5121956, 166.4024353, 116.1585388, -0.4996872
-0.2792969, 0.2368164, -0.4589844, -23.7195129, 164.5731812, 110, -0.3798428
-0.2749023, 0.2568359, -0.5048828, -23.9024391, 163.1707306, 108.4146347, -0.0854353
-0.28125, 0.2866211, -0.550293, -25.060976, 155.3048859, 109.0243912, 0.3580224
-0.2734375, 0.3007812, -0.5395508, -25.8536587, 149.6951294, 110.18293, 0.8598917
-0.2148438, 0.3173828, -0.4692383, -27.1951218, 139.5121918, 111.4024429, 1.350515
-0.1313477, 0.2978516, -0.3486328, -28.1707325, 136.4024353, 110.1219559, 1.7004807
-0.0854492, 0.2739258, -0.2851562, -29.5121956, 133.7804871, 102.5, 1.9589685
-0.0258789, 0.2456055, -0.1855469, -29.0243912, 132.9878082, 91.0365906, 2.2563973
-0.0073242, 0.2431641, -0.1655273, -28.5975609, 133.5975647, 86.1585388, 2.5242847
0.0117188, 0.2382812, -0.1772461, -27.5, 135.9756165, 80.7317123, 2.8035859
0.0112305, 0.2446289, -0.1987305, -27.0121956, 136.9512177, 80.3658524, 3.0728161
0.0175781, 0.2563477, -0.2416992, -26.7682934, 135.5487823, 82.5609741, 3.3539635
0.0283203, 0.2617188, -0.2607422, -27.1341476, 133.5975647, 83.7804871, 3.6307469
0.0532227, 0.265625, -0.2895508, -27.7439022, 129.5731812, 84.4512253, 3.8543221
0.0629883, 0.2646484, -0.296875, -27.9268303, 127.8048782, 82.9268341, 4.0238499
0.0620117, 0.2519531, -0.315918, -28.1097565, 123.1707382, 78.5365906, 4.0758831
0.0356445, 0.2407227, -0.3095703, -28.0487804, 120.0609818, 75.2439041, 4.1047532
0.0258789, 0.2290039, -0.2998047, -27.3780499, 114.3292694, 69.3902435, 4.1057603
0.0087891, 0.2050781, -0.2924805, -25.7317085, 109.6951218, 65.3658524, 4.1007248
0.0087891, 0.1933594, -0.2851562, -24.5731716, 107.5, 63.4756126, 4.1389944
0.0224609, 0.1650391, -0.2685547, -21.5243912, 103.1097565, 60.18293, 4.2047913
0.0366211, 0.1494141, -0.2543945, -19.0853672, 100.7926865, 58.5365868, 4.197406
0.0537109, 0.137207, -0.2353516, -14.5121956, 96.9512253, 55.9756126, 4.1430228
0.0678711, 0.1450195, -0.2416992, -12.5, 95.3048782, 54.9390259, 4.0698405
0.09375, 0.1474609, -0.2666016, -8.4146347, 92.3170776, 53.4146347, 3.9083696
0.1044922, 0.1499023, -0.2783203, -6.8292685, 89.8780518, 52.6219521, 3.7185321
0.1206055, 0.1464844, -0.2915039, -3.8414636, 83.0487823, 51.4024391, 3.5132525
0.1337891, 0.1376953, -0.2734375, -2.5, 79.146347, 50.4878044, 3.3165332
0.1425781, 0.1376953, -0.2631836, -0.5487805, 70.3048782, 48.841465, 3.0835584
0.1728516, 0.1147461, -0.2275391, -1.2804878, 60.7317085, 45.6097565, 2.9405509
0.1914062, 0.0981445, -0.2050781, -2.1341465, 56.2195129, 43.4146347, 2.854612
0.215332, 0.0732422, -0.1499023, -2.6219513, 49.0853653, 39.5121956, 2.7545739
0.2177734, 0.0708008, -0.1303711, -2.0121951, 46.1585388, 37.8048782, 2.587396
0.2382812, 0.0800781, -0.1176758, 0.6707317, 41.4634171, 36.8902435, 2.4051118
0.246582, 0.0844727, -0.125, 2.195122, 38.1707344, 36.9512215, 2.1828794
0.2788086, 0.0874023, -0.1420898, 3.9634147, 30.8536587, 36.5243912, 1.936141
0.2880859, 0.0927734, -0.1430664, 4.3292685, 26.9512196, 35.7317085, 1.7541924
0.3061523, 0.1108398, -0.1416016, 3.9634147, 18.7195129, 33.5365868, 1.6027924
0.3325195, 0.128418, -0.1420898, 3.0487804, 15.060976, 32.6829262, 1.4742199
0.3369141, 0.1391602, -0.1416016, 0, 7.6219516, 29.5121956, 1.3144274
0.3525391, 0.1494141, -0.1269531, -4.0243902, 0.1829268, 26.7682934, 1.1123369
0.3647461, 0.15625, -0.1206055, -5.8536587, -3.7195122, 25.2439022, 0.8927901
0.3818359, 0.1621094, -0.0932617, -9.2073174, -10.8536587, 22.0731716, 0.6786145
0.3911133, 0.1625977, -0.0742188, -10.4268293, -13.780488, 20.4878044, 0.4483253
0.4145508, 0.1538086, -0.0302734, -12.0121956, -19.0853672, 17.2560978, 0.1475395
0.4267578, 0.1459961, -0.0058594, -12.3170738, -21.280489, 15.2439032, -0.1132982
0.4516602, 0.1103516, 0.0244141, -12.0121956, -25.4268303, 10.9146347, -0.3748074
0.4624023, 0.0874023, 0.0336914, -11.4024391, -27.560976, 8.5975609, -0.6285954
0.4614258, 0.0424805, 0.0410156, -10.3048782, -31.8902454, 3.1097562, -0.8671092
0.4482422, 0.0249023, 0.0585938, -9.1463413, -34.2682953, 1.2804878, -1.0435187
0.4345703, 0.0327148, 0.0756836, -7.0121951, -38.6585388, -0.4878049, -1.2268101
0.425293, 0.0693359, 0.0839844, -4.0243902, -41.8292694, -1.3414634, -1.3933165
0.4296875, 0.0957031, 0.0834961, -2.8658538, -42.8658562, -1.7073171, -1.4792554
0.453125, 0.1542969, 0.0541992, -2.0731707, -45.2439041, -4.2682929, -1.566537
0.4589844, 0.1835938, 0.0302734, -2.0731707, -46.5853653, -6.0365853, -1.686717
0.4633789, 0.2285156, -0.012207, -4.390244, -50.0609779, -11.219512, -1.8159609
0.4541016, 0.2460938, -0.0307617, -5.9756098, -52.1341476, -13.6585369, -1.9582971
0.4394531, 0.2568359, -0.0644531, -10.9756098, -57.1951218, -18.2926826, -2.1798581
0.4355469, 0.2470703, -0.0742188, -13.5365858, -60.0609779, -20.5487804, -2.3601282
0.4282227, 0.2094727, -0.0893555, -17.9268303, -64.6341476, -24.6341476, -2.5481193
0.3916016, 0.1499023, -0.078125, -18.9634151, -67.0731735, -26.7682934, -2.7523919
0.3720703, 0.1240234, -0.0654297, -17.0121956, -72.5, -30.5487804, -2.954818
0.3393555, 0.1044922, -0.0444336, -12.9268293, -78.6585388, -33.9634171, -3.0979934
0.3198242, 0.1157227, -0.0454102, -11.341464, -81.5243912, -35.3658562, -3.2671855
0.3061523, 0.1616211, -0.0556641, -10.060976, -85.2439041, -37.6219521, -3.4545052
0.3007812, 0.1860352, -0.0712891, -10.2439022, -86.8902435, -38.9634171, -3.5857633
0.296875, 0.2514648, -0.1035156, -12.5, -89.8780518, -41.7073174, -3.7601587
0.2988281, 0.28125, -0.1279297, -14.0243902, -91.7073212, -43.1707344, -3.9187762
0.3149414, 0.3095703, -0.1811523, -18.1097565, -96.1585388, -47.0121956, -3.9684596
0.3217773, 0.3125, -0.2089844, -20.2439022, -98.9634171, -49.2682953, -3.837705
0.3061523, 0.3017578, -0.2421875, -24.8170738, -105.5487823, -53.841465, -3.4514839
0.2836914, 0.2719727, -0.2514648, -27.560976, -108.9024429, -55.9756126, -2.8895247
0.2739258, 0.2543945, -0.2548828, -32.1341476, -115.9756088, -60.1219521, -2.3277333
0.2397461, 0.2207031, -0.2460938, -34.9390259, -122.3170776, -63.7195129, -1.9378195
0.222168, 0.2133789, -0.2363281, -35.1829262, -125.5487823, -64.9390259, -1.6665751
0.1865234, 0.2084961, -0.2124023, -33.0487823, -131.1585388, -67.5, -1.5101396
0.1743164, 0.2133789, -0.2080078, -31.280489, -133.3536682, -68.4146347, -1.4080873
0.1611328, 0.2182617, -0.2304688, -27.1951218, -135.7926788, -70.7926865, -1.3154345
0.1523438, 0.2119141, -0.2451172, -24.3902435, -136.8292694, -72.0731735, -1.1828336
0.1313477, 0.2055664, -0.2514648, -18.9024391, -140.7926788, -75.4878082, -1.0992447
0.1147461, 0.2080078, -0.2480469, -16.2195129, -143.5975647, -77.3780518, -1.0665141
0.0893555, 0.2202148, -0.2402344, -11.8902445, -148.2926788, -80.7926865, -0.9874571
0.0761719, 0.2368164, -0.2553711, -9.6341467, -150.0609741, -83.1707306, -0.8545205
0.0664062, 0.2426758, -0.2763672, -9.1463413, -150.36586, -84.0853653, -0.721416
0.0498047, 0.2460938, -0.3295898, -9.3902445, -151.4024353, -85.2439041, -0.624567
0.0424805, 0.2470703, -0.3613281, -9.6341467, -152.3780518, -85.6707306, -0.5151293
0.0195312, 0.2382812, -0.4125977, -9.0853662, -156.4634247, -85.4268341, -0.4150912
0.003418, 0.234375, -0.4321289, -8.1707315, -159.5121918, -85.4268341, -0.2032654
-0.0200195, 0.2485352, -0.4487305, -4.5121951, -166.0365906, -85.4878082, 0.1183337
-0.0361328, 0.2631836, -0.4560547, -2.8658538, -169.0853729, -85.4878082, 0.4899519
-0.0703125, 0.3051758, -0.4746094, 0.2439024, -173.7804871, -85.7317123, 0.8113832
-0.0917969, 0.3295898, -0.4726562, 1.2195122, -175.5487823, -86.0975647, 1.0284123
-0.1298828, 0.390625, -0.4072266, 2.0731707, -179.2682953, -87.68293, 1.0686961
-0.1308594, 0.4560547, -0.3720703, 0.4268293, -183.2317047, -90.5487823, 0.9985351
-0.1147461, 0.4814453, -0.3979492, -2.6219513, -183.1097565, -92.68293, 0.8914473
-0.1020508, 0.5, -0.4677734, -11.7682934, -180.7317047, -97.5, 0.6866712
-0.1118164, 0.4936523, -0.4951172, -15.7317076, -179.8170776, -99.3902435, 0.4872663
-0.1479492, 0.4506836, -0.5053711, -20.6097565, -182.86586, -101.5243912, 0.3093462
-0.1552734, 0.4213867, -0.5097656, -21.280489, -185.7317047, -102.2561035, 0.178088
-0.1777344, 0.3730469, -0.5361328, -20.9146347, -190.1219482, -102.9878082, 0.100206
-0.1982422, 0.3535156, -0.5693359, -19.3902435, -190.4268341, -103.9024429, 0.0458228
-0.2685547, 0.3266602, -0.6303711, -14.6341467, -191.2195129, -104.2073212, -0.033402
-0.3193359, 0.3242188, -0.6289062, -10.7926836, -192.5, -103.7195129, -0.2190433
-0.4057617, 0.3476562, -0.559082, -4.3292685, -198.2317047, -101.4024429, -0.3526513
-0.4057617, 0.3754883, -0.4926758, -1.2195122, -200.9146423, -99.9390259, -0.4568856
-0.3793945, 0.3813477, -0.4716797, -1.7073171, -199.0243988, -101.2195129, -0.5429923
-0.3183594, 0.3803711, -0.4482422, -4.6341462, -192.86586, -106.7073212, -0.6403449
-0.2993164, 0.378418, -0.4462891, -6.0975609, -190, -110, -0.767071
-0.2871094, 0.3920898, -0.4848633, -6.280488, -187.2561035, -114.9390259, -0.9642939
-0.2866211, 0.4125977, -0.5209961, -4.7560978, -186.5853729, -115.4268341, -1.21355
-0.3251953, 0.4614258, -0.5854492, 0.6707317, -186.1585388, -112.4390259, -1.4168154
-0.3486328, 0.4936523, -0.6010742, 3.4756098, -187.1951294, -110.0609818, -1.5886931
-0.3876953, 0.5449219, -0.5795898, 5, -191.0975647, -105.5487823, -1.7434501
-0.3955078, 0.5615234, -0.5512695, 2.5, -192.6829376, -104.5731735, -1.8438239
-0.387207, 0.5654297, -0.5458984, -8.780488, -190.8536682, -106.646347, -1.9069352
-0.3823242, 0.5229492, -0.6591797, -25.2439022, -183.9634247, -113.3536606, -2.0412146
-0.3950195, 0.4814453, -0.7553711, -32.6219521, -181.2195129, -116.7073212, -2.0925765
-0.4765625, 0.378418, -0.9501953, -39.0853653, -182.86586, -120.5487823, -2.0833448
-0.5395508, 0.3422852, -1.0273438, -36.9512215, -187.3780518, -119.5121994, -2.0999619
-0.6860352, 0.3203125, -1.0351562, -25.5487804, -201.646347, -110.8536606, -2.060853
-0.7504883, 0.34375, -0.9589844, -18.4756107, -209.6951294, -104.5731735, -1.9462119
-0.7866211, 0.4350586, -0.7836914, -9.6341467, -221.8902435, -93.9634171, -1.8800793
-0.7460938, 0.4824219, -0.7592773, -9.3292685, -222.4390259, -91.9512253, -1.8218357
-0.6333008, 0.5307617, -0.8496094, -17.9268303, -214.0243988, -96.4634171, -1.7172656
-0.6132812, 0.5449219, -0.9394531, -22.5, -209.8780518, -102.1341476, -1.6034638
-0.6425781, 0.5561523, -0.9321289, -24.8170738, -211.1585388, -112.5609818, -1.4779126
-0.7006836, 0.612793, -0.8286133, -15.1219511, -222.5, -115.36586, -1.347158
-0.7070312, 0.6557617, -0.762207, -9.7560978, -226.8292694, -113.4756088, -1.1838407
-0.6342773, 0.7143555, -0.6645508, -6.9512196, -225.73172, -108.6585388, -1.0650034
-0.5791016, 0.7207031, -0.6181641, -11.4024391, -220.9146423, -108.2317123, -1.0240482
-0.4541016, 0.6582031, -0.5170898, -26.5853672, -210.36586, -113.7195129, -0.9031968
-0.402832, 0.6015625, -0.4824219, -34.3292694, -205.8536682, -119.3292694, -0.685832
-0.3422852, 0.4707031, -0.4873047, -41.5853653, -198.7195129, -131.2804871, -0.2975967
-0.3491211, 0.4140625, -0.5205078, -39.5731735, -196.0975647, -135.4878082, 0.3644007
-0.4624023, 0.3579102, -0.5742188, -26.3414631, -194.8170776, -135.9756165, 1.2533303
-0.6269531, 0.4233398, -0.6152344, -17.5, -196.3414612, -131.4634247, 2.1456168
-0.6914062, 0.4775391, -0.6484375, -3.5975611, -199.3902435, -117.0731735, 2.9244373
-0.7636719, 0.6054688, -0.7124023, -2.1341465, -197.6219482, -103.2317123, 3.4971389
-0.7817383, 0.6542969, -0.7265625, -6.1585369, -195.6707306, -100.0609818, 3.8133669
-0.7807617, 0.7128906, -0.6962891, -17.560976, -193.7195129, -101.8902435, 3.9865873
-0.7675781, 0.7285156, -0.6801758, -23.5365868, -193.1097565, -106.7682953, 4.0654765
-0.7241211, 0.7348633, -0.7475586, -35, -190.1829376, -119.8780518, 4.096025
-0.7163086, 0.7299805, -0.8457031, -39.9390259, -188.0487823, -126.0975647, 4.1040818
-0.7553711, 0.7182617, -1.0859375, -47.1951218, -187.012207, -133.5975647, 4.1121386
-0.7998047, 0.7124023, -1.1708984, -49.4512215, -189.9390259, -133.5365906, 4.0094148
-0.8979492, 0.7036133, -1.1987305, -50.3048782, -203.4756165, -127.3780518, 3.9322042
-0.9433594, 0.703125, -1.0400391, -50.5487823, -211.2195129, -122.4390259, 3.9046769
-0.9296875, 0.6894531, -0.9399414, -54.8170738, -221.0365906, -115.36586, 3.8227665
-0.8442383, 0.6264648, -0.8134766, -66.5853653, -218.5975647, -117.7439041, 3.7252461
-0.7998047, 0.5722656, -0.8032227, -73.7195129, -213.5975647, -122.8048782, 3.6858015
-0.7729492, 0.4472656, -0.8183594, -83.1707306, -205.2439117, -135.4878082, 3.6260472
-0.7949219, 0.4008789, -0.8242188, -81.3414688, -204.146347, -139.8780518, 3.5629358
-0.8862305, 0.3710938, -0.8208008, -66.4634171, -207.9878082, -139.2073212, 3.6142977
-0.9243164, 0.4008789, -0.815918, -55.7926826, -210.4268341, -134.2682953, 3.7136645
-0.9692383, 0.4980469, -0.8266602, -38.4756088, -212.4390259, -118.9024429, 3.7757687
-0.9707031, 0.5566406, -0.8500977, -34.5731697, -211.7073212, -112.0121994, 3.7311208
-0.9389648, 0.6259766, -0.8916016, -36.4634171, -207.3780518, -104.6341476, 3.5568933
-0.9199219, 0.65625, -0.8701172, -39.3902435, -205.5487823, -105.4878082, 3.2943771
-0.9199219, 0.6577148, -0.8452148, -40.6707344, -205.0609741, -112.1341476, 2.9455863
-0.9414062, 0.6621094, -0.8349609, -37.5, -206.5853729, -120.7317123, 2.5491264
-0.9526367, 0.6567383, -0.8710938, -35.6707344, -206.1585388, -122.9268341, 2.1201038
-0.9931641, 0.6386719, -0.9912109, -33.841465, -203.6585388, -123.4146347, 1.7781949
-1.027832, 0.6289062, -1.0268555, -33.5365868, -203.7804871, -121.9512253, 1.4802625
-1.09375, 0.6171875, -1.0112305, -33.1097565, -209.8170776, -116.1585388, 1.1673915
-1.1152344, 0.6245117, -0.956543, -33.4146347, -213.7804871, -113.0487823, 0.83505
-1.1118164, 0.6538086, -0.8056641, -34.5731697, -218.4146423, -108.1097565, 0.5403067
-1.0922852, 0.6723633, -0.7666016, -35.7317085, -218.0487823, -107.5609818, 0.2385138
-1.0395508, 0.7163086, -0.7905273, -40.1829262, -211.646347, -109.6341476, -0.054551
-1.0356445, 0.7275391, -0.8173828, -42.8048782, -207.9878082, -111.4024429, -0.2445563
-1.0507812, 0.734375, -0.8037109, -47.8658562, -207.012207, -114.2682953, -0.4359045
-1.0605469, 0.7329102, -0.7299805, -50.6707344, -209.3902435, -114.6951218, -0.6717327
-1.0493164, 0.7231445, -0.6850586, -53.0487823, -208.9634247, -114.5731735, -0.8899367
-1.0107422, 0.6708984, -0.6005859, -60.6097565, -203.4756165, -115.3048782, -1.1616846
-0.984375, 0.6289062, -0.5893555, -65.1219559, -198.8414612, -116.4634171, -1.5712367
-0.9584961, 0.5224609, -0.6235352, -71.9512177, -190.5487823, -120.18293, -1.9485618
-0.9707031, 0.4697266, -0.6435547, -72.0731735, -187.9268341, -121.5243912, -2.3064164
-1.0380859, 0.3979492, -0.6606445, -62.2560997, -187.3780518, -120.36586, -2.6451362
-1.0810547, 0.3984375, -0.6572266, -54.2682953, -188.7804871, -117.1951218, -2.9423972
-1.1533203, 0.4580078, -0.6748047, -39.1463432, -190.6097565, -106.7682953, -3.1495232
-1.168457, 0.550293, -0.7275391, -34.3902435, -190.4268341, -101.7682953, -3.2819562
-1.1582031, 0.5869141, -0.7617188, -33.7195129, -188.5365906, -94.8780518, -3.2305943
-1.137207, 0.628418, -0.8168945, -39.5731735, -187.012207, -95.8536606, -2.9484398
-1.1352539, 0.6376953, -0.8237305, -42.7439041, -187.4390259, -97.9268341, -2.600824
-1.1538086, 0.6435547, -0.8266602, -45.4878044, -190.6707306, -102.7439041, -2.3420005
-1.1640625, 0.6435547, -0.8491211, -45.4878044, -192.0731812, -104.146347, -2.2958419
-1.1845703, 0.6416016, -0.9331055, -45.4878044, -193.1707306, -104.3902435, -2.4289464
-1.2036133, 0.6396484, -0.9814453, -45.4878044, -194.0853729, -102.8048782, -2.6933089
-1.2641602, 0.6298828, -1.0219727, -44.6951218, -198.2926941, -99.146347, -2.9351797
-1.2958984, 0.6289062, -1.0024414, -44.5121956, -202.0731812, -96.8902435, -3.1940032
-1.3217773, 0.6469727, -0.8920898, -43.7195129, -210.3048859, -93.7195129, -3.5219806
-1.296875, 0.6694336, -0.7368164, -43.5365868, -212.7439117, -93.0487823, -3.8007782
-1.265625, 0.6757812, -0.6606445, -46.5243912, -211.0975647, -96.0365906, -3.9808804
-1.175293, 0.6582031, -0.5737305, -52.5609779, -202.86586, -102.4390259, -4.0946822
-1.1318359, 0.6323242, -0.5605469, -55.7317085, -197.9268341, -106.0365906, -4.1883421
-1.0678711, 0.5522461, -0.5991211, -58.4146347, -190.1829376, -112.1341476, -4.2356756
-1.0625, 0.5214844, -0.6269531, -57.3780518, -187.7439117, -112.9878082, -4.2959335
-1.1064453, 0.4853516, -0.6762695, -49.2682953, -186.9512177, -109.2682953, -4.4414588
-1.1416016, 0.4956055, -0.6918945, -43.6585388, -187.86586, -104.6951218, -4.6462348
-1.1923828, 0.5488281, -0.7207031, -34.3292694, -189.2073212, -93.9024429, -4.7670863
-1.2143555, 0.5839844, -0.7211914, -32.0731697, -189.2682953, -89.146347, -4.8296941
-1.2192383, 0.6396484, -0.6894531, -33.7195129, -189.0853729, -85.6097565, -4.90103
-1.1958008, 0.6484375, -0.6118164, -36.7682953, -188.4756165, -86.7073212, -4.9674983
-1.1796875, 0.6323242, -0.5805664, -44.3902435, -185.7926941, -93.5975647, -5.0876783
-1.1499023, 0.5615234, -0.5537109, -49.5121956, -179.5121918, -101.5853653, -5.1660639
-1.152832, 0.5175781, -0.5527344, -50.3048782, -175.9146423, -104.2073212, -5.2451209
-1.1826172, 0.4384766, -0.5703125, -46.9512215, -171.3414612, -104.3902435, -5.3567407
-1.2070312, 0.4194336, -0.5844727, -42.6829262, -170.6097565, -102.1341476, -5.4848096
-1.2485352, 0.4223633, -0.6181641, -32.8658562, -169.5121918, -93.5975647, -5.4920272
-1.2587891, 0.4472656, -0.6376953, -28.5365868, -168.9024506, -88.9634171, -5.4925307
-1.2695312, 0.5136719, -0.6582031, -23.7195129, -167.3170776, -82.2560959, -5.4926986
-1.2651367, 0.550293, -0.6689453, -23.2926826, -166.9512177, -80.7317123, -5.4926986
-1.2368164, 0.605957, -0.6884766, -25.6707325, -166.5243988, -82.6219559, -5.2597238
-1.2055664, 0.612793, -0.6875, -27.7439022, -165.6097565, -85.0609741, -4.6284428
-1.1967773, 0.6025391, -0.6816406, -31.0365868, -164.6341553, -90.5487823, -3.9548638
-1.1923828, 0.5561523, -0.6767578, -32.2560997, -164.0243988, -93.9634171, -3.3235828
-1.1943359, 0.5371094, -0.6723633, -32.5609779, -163.9024353, -94.0243912, -2.7817655
-1.1992188, 0.4897461, -0.6625977, -32.9878044, -163.9024353, -92.0121994, -2.343679
-1.1943359, 0.4726562, -0.6455078, -32.8658562, -163.5365906, -90.2439041, -1.9485618
-1.1777344, 0.4238281, -0.609375, -31.280489, -162.4390259, -87.8048782, -1.6195773
-1.1650391, 0.4101562, -0.5869141, -30.3048782, -161.7073212, -87.1341476, -1.2476234
-1.1459961, 0.3842773, -0.543457, -27.8048782, -159.6951294, -87.1341476, -0.8489815
-1.1420898, 0.3813477, -0.5249023, -26.3414631, -158.5365906, -87.4390259, -0.4328832
-1.1367188, 0.4077148, -0.4946289, -23.8414631, -155.9146423, -86.4634171, 0.0146029
-1.1279297, 0.4580078, -0.484375, -20.7926826, -153.0487823, -84.3292694, 0.4879377
-1.1196289, 0.4897461, -0.4897461, -19.2073174, -151.2195129, -83.0487823, 0.8927901
-1.105957, 0.550293, -0.5068359, -18.2317085, -148.3536682, -81.0365906, 1.278172
-1.097168, 0.5727539, -0.5166016, -18.9634151, -147.2561035, -80.9756088, 1.6749676
-1.0830078, 0.6044922, -0.5175781, -22.3170738, -145.8536682, -82.0121994, 1.9831388
-1.074707, 0.6040039, -0.5126953, -24.3292694, -144.6341553, -83.5365906, 2.2302129
-1.0678711, 0.5732422, -0.5087891, -29.0243912, -142.7439117, -87.0731735, 2.470573
-1.0678711, 0.5473633, -0.5087891, -30.8536587, -141.8292694, -88.8414688, 2.6511788
-1.0898438, 0.487793, -0.5073242, -32.5609779, -140.0609741, -90.9756088, 2.6928054
-1.1035156, 0.4624023, -0.5112305, -32.5, -139.4512177, -91.5243912, 2.7894865
-1.1240234, 0.4282227, -0.5185547, -30.6707325, -138.4146423, -90.4878082, 2.9499504
-1.1411133, 0.4067383, -0.5258789, -28.3536587, -137.7439117, -88.1707306, 3.1580835
-1.1499023, 0.4091797, -0.5244141, -27.0121956, -137.5, -87.0731735, 3.389044
-1.1503906, 0.4179688, -0.5097656, -24.6341476, -137.6219482, -84.9390259, 3.6153048
-1.1430664, 0.4233398, -0.5014648, -23.4756107, -137.3170776, -84.3292694, 3.7066148
-1.1293945, 0.4291992, -0.4946289, -22.560976, -136.2804871, -83.9024429, 3.6883192
-1.1230469, 0.4267578, -0.4956055, -22.560976, -135.4268341, -84.2682953, 3.6777447
-1.1176758, 0.4189453, -0.4995117, -22.9878063, -134.2682953, -84.7560959, 3.6864729
-1.1176758, 0.4155273, -0.4985352, -22.9268303, -133.7195129, -84.7560959, 3.7630121
-1.1157227, 0.4052734, -0.4960938, -21.280489, -132.5, -83.5365906, 3.916762
-1.1206055, 0.4008789, -0.4960938, -20, -131.8902435, -82.8658524, 4.1443656
-1.1245117, 0.3823242, -0.5029297, -15.7317076, -130.8536682, -80.9146347, 4.3612268
-1.1264648, 0.3598633, -0.5361328, -12.9878054, -130.1219482, -79.146347, 4.5210193
-1.1269531, 0.3496094, -0.5498047, -12.1951218, -130.2439117, -78.7804871, 4.5955444
-1.1357422, 0.3422852, -0.546875, -12.0121956, -130.7317047, -76.7682953, 4.4800641
-1.1367188, 0.3383789, -0.534668, -11.8902445, -130.7317047, -75.9756088, 4.3635767
-1.1328125, 0.3364258, -0.4902344, -10.2439022, -130.36586, -73.6585388, 4.2870375
-1.1240234, 0.3334961, -0.4731445, -9.1463413, -129.8780518, -72.5609741, 4.190692
-1.1000977, 0.3300781, -0.4326172, -7.6829271, -127.5, -70.9146347, 4.0517128
-1.0849609, 0.3295898, -0.4135742, -7.1951222, -125.9146347, -69.8780518, 3.9389181
-1.0512695, 0.3349609, -0.3901367, -6.9512196, -122.5, -69.2682953, 3.80766
-1.0390625, 0.3369141, -0.3759766, -6.9512196, -120.1219559, -68.7804871, 3.6790875
-1.0302734, 0.3603516, -0.3818359, -6.8292685, -116.0365906, -66.8902435, 3.5743496
-1.0234375, 0.3857422, -0.3876953, -6.280488, -112.0731735, -64.3902435, 3.4373846
-1.0244141, 0.3979492, -0.3964844, -5.8536587, -110.6707306, -63.1707344, 3.2547646
-1.0170898, 0.4194336, -0.4282227, -6.2195125, -107.9878082, -62.0731735, 3.0956435
-1.019043, 0.4277344, -0.449707, -6.9512196, -106.1585388, -62.0121956, 2.991577
-1.0336914, 0.418457, -0.4838867, -8.780488, -103.5365906, -61.5853691, 2.812314
-1.0390625, 0.4130859, -0.4931641, -9.9390249, -103.2926865, -61.341465, 2.600824
-1.059082, 0.3779297, -0.4946289, -11.1585369, -102.6219559, -60.9756126, 2.3762417
-1.0595703, 0.3603516, -0.4887695, -11.0365858, -102.0121994, -60.5487823, 2.1684443
-1.0668945, 0.328125, -0.4599609, -9.8170738, -101.2195129, -59.3292694, 2.0489357
-1.065918, 0.3173828, -0.4199219, -8.6585369, -100.6097565, -58.4146347, 2.0069734
-1.0629883, 0.3173828, -0.40625, -5.9146342, -98.2317123, -56.4634171, 1.9072709
-1.0483398, 0.3354492, -0.3925781, -4.2073174, -94.4512253, -54.1463432, 1.7541924
-1.0371094, 0.3500977, -0.3979492, -3.5975611, -92.5609741, -53.0487823, 1.5964141
-1.0117188, 0.3720703, -0.4541016, -2.6219513, -88.4756088, -51.0365868, 1.3835813
-1.0043945, 0.3759766, -0.4858398, -2.804878, -86.646347, -50.1829262, 1.1391928
-1.0024414, 0.3510742, -0.5068359, -3.1707318, -86.3414688, -48.5365868, 0.8907759
-1.0048828, 0.3432617, -0.4951172, -3.3536587, -86.8902435, -47.9878044, 0.6940566
-1.0136719, 0.3208008, -0.4389648, -3.9024391, -86.4024429, -47.0121956, 0.4926375
-1.0170898, 0.3110352, -0.4072266, -3.5365853, -85.2439041, -46.5243912, 0.265034
-1.0102539, 0.2915039, -0.3530273, -2.3780489, -81.4024429, -45.1829262, 0.0172885
-1.0019531, 0.2871094, -0.2958984, -1.5243902, -79.0853653, -44.6341476, -0.3425803
-0.9921875, 0.2919922, -0.3193359, 0.4878049, -73.5365906, -43.4756126, -0.6527657
-0.9536133, 0.2919922, -0.3916016, 1.2804878, -64.8170776, -41.8902435, -0.8491493
-0.9550781, 0.2861328, -0.3984375, 1.5853659, -62.1341476, -40.4878044, -0.9604334
-0.9584961, 0.2866211, -0.3828125, 3.5365853, -61.8902435, -37.9268303, -0.9743648
-0.9580078, 0.2949219, -0.3696289, 4.6341462, -61.0975609, -36.5243912, -0.8608988
-0.9555664, 0.3295898, -0.3583984, 7.3170733, -55.9146347, -34.5731697, -0.7697566
-0.9555664, 0.3476562, -0.3647461, 7.9878049, -53.2926826, -33.7195129, -0.7046311
-0.9541016, 0.3740234, -0.4165039, 7.5609756, -49.3292694, -32.3780479, -0.6131533
-0.9501953, 0.3793945, -0.4428711, 6.4024391, -48.1097565, -32.1951218, -0.557763
-0.9536133, 0.3623047, -0.4716797, 3.7804878, -46.4024391, -31.7073174, -0.564477
-0.9638672, 0.3481445, -0.4736328, 2.804878, -45.6097565, -31.4024391, -0.5292287
-0.9726562, 0.3383789, -0.4697266, 1.7682927, -44.0853653, -30.3658543, -0.5198291
-0.9819336, 0.315918, -0.4648438, 2.3780489, -41.7682953, -28.3536587, -0.5567559
-0.9873047, 0.3095703, -0.4643555, 2.9878049, -40.6097565, -27.4390259, -0.512108
-0.9868164, 0.3007812, -0.4794922, 5.8536587, -37.5, -25.7926826, -0.3398947
-0.9990234, 0.3007812, -0.4863281, 7.6219516, -36.0975609, -24.3292694, -0.2433814
-1.0112305, 0.3188477, -0.496582, 11.8902445, -34.2682953, -21.1585369, -0.2499275
-1.0151367, 0.331543, -0.5014648, 13.4756098, -33.1707306, -19.5121956, -0.1587854
-1.0063477, 0.3427734, -0.4970703, 14.3292685, -31.5243912, -16.5853653, -0.0323949
-0.9887695, 0.3374023, -0.4863281, 14.3292685, -30.5487804, -15.9146347, 0.0172885
-0.9638672, 0.3188477, -0.4570312, 13.2317076, -28.0487804, -16.2195129, 0.1015488
-0.9477539, 0.2944336, -0.4428711, 12.8658543, -26.4024391, -16.2195129, 0.321767
-0.9521484, 0.2871094, -0.4399414, 13.9024391, -21.6463413, -14.9390249, 0.7000992
-0.96875, 0.284668, -0.4550781, 16.8902435, -18.2317085, -11.7073174, 1.0680247
-0.9741211, 0.2910156, -0.4790039, 18.780489, -16.4634151, -9.3292685, 1.3263447
-0.9853516, 0.3095703, -0.5253906, 22.8048782, -13.4146347, -4.6341462, 1.5359884
-0.9892578, 0.3154297, -0.5400391, 24.1463413, -12.6219511, -2.7439024, 1.6692607
-0.9985352, 0.3266602, -0.5478516, 26.0975609, -12.4390249, -0.7926829, 1.6373693
-1.0019531, 0.3334961, -0.5405273, 26.3414631, -11.8902445, -0.3048781, 1.5111467
-1.0097656, 0.3452148, -0.5283203, 24.8780499, -9.4512196, 0.3048781, 1.4419928
-1.0117188, 0.3457031, -0.5161133, 24.2073174, -7.8658538, 0.5487805, 1.3587396
-1.003418, 0.3447266, -0.4863281, 22.1341476, -4.2682929, 2.0731707, 1.2338598
-0.9916992, 0.3520508, -0.4628906, 21.7682934, -2.0731707, 2.804878, 1.1067979
-0.9838867, 0.3530273, -0.4506836, 22.6219521, 2.6219513, 5.0609756, 0.9538872
-0.9702148, 0.3608398, -0.4423828, 23.4146347, 7.6219516, 7.3780489, 0.6782788
-0.9658203, 0.362793, -0.4521484, 23.5975609, 10.4268293, 8.2317076, 0.3932708
-0.9589844, 0.3696289, -0.5039062, 22.6219521, 16.2195129, 10.4268293, 0.2579843
-0.9638672, 0.3735352, -0.5395508, 22.0731716, 18.780489, 11.6463413, 0.2267643
-0.9887695, 0.3754883, -0.5883789, 21.6463413, 22.2560978, 14.0243902, 0.2599985
-1.0029297, 0.3862305, -0.5996094, 22.3780499, 23.1707325, 15.6097565, 0.2277714
-1.0415039, 0.4067383, -0.6049805, 23.5975609, 24.1463413, 19.0853672, 0.0139315
-1.0493164, 0.4140625, -0.6030273, 23.8414631, 24.8170738, 20.3048782, -0.4382544
-1.0478516, 0.4243164, -0.6020508, 23.0487804, 26.4634151, 21.9512196, -0.9515373
-1.0405273, 0.4111328, -0.6005859, 21.9512196, 27.7439022, 22.3780499, -1.4581064
-1.0341797, 0.3945312, -0.6025391, 19.3292694, 31.341465, 22.6829281, -1.9485618
-1.0385742, 0.3530273, -0.5795898, 17.560976, 34.6951218, 24.0243912, -2.3886625
-1.0429688, 0.3344727, -0.5551758, 17.8048782, 36.7073174, 25.1219521, -2.6928054
-1.0292969, 0.2939453, -0.5087891, 19.3292694, 41.0365868, 27.8658543, -2.9551537
-1.0253906, 0.2802734, -0.4941406, 20.9146347, 44.0853653, 29.1463413, -3.2128023
-1.0161133, 0.2724609, -0.5009766, 24.3902435, 50.3048782, 31.8292694, -3.3235828
-1.0234375, 0.2817383, -0.515625, 26.280489, 53.2926826, 33.3536606, -3.3490959
-1.0395508, 0.3310547, -0.5473633, 30.1829281, 58.1707344, 37.9878044, -3.3490959
-1.0483398, 0.3623047, -0.5537109, 31.5243912, 59.9390259, 40.4878044, -3.3900511
-1.0576172, 0.4287109, -0.5585938, 32.9878044, 63.1097565, 44.5121956, -3.4504768
-1.043457, 0.4726562, -0.5532227, 32.9268303, 64.3292694, 45.5487823, -3.5209735
-1.0327148, 0.4848633, -0.5605469, 30, 68.5975647, 45.0609779, -3.6247044
-1.027832, 0.4882812, -0.5864258, 25.2439022, 73.7804871, 42.8658562, -3.7774472
-1.0317383, 0.4829102, -0.609375, 22.7439022, 76.5243912, 42.3170738, -4.012604
-1.0600586, 0.4707031, -0.6381836, 20.1219521, 79.6951218, 42.5, -4.2527962
-1.0776367, 0.46875, -0.6479492, 19.8170738, 80.5487823, 43.7804871, -4.4589151
-1.1000977, 0.4638672, -0.6352539, 20.9756107, 82.0731735, 47.3170738, -4.5755703
-1.1000977, 0.4580078, -0.6235352, 22.1951218, 83.4146347, 48.4756126, -4.6225681
-1.0927734, 0.4335938, -0.6298828, 22.8658543, 86.7682953, 49.8170738, -4.5478752
-1.090332, 0.4145508, -0.6342773, 21.7682934, 88.7195129, 50.3658562, -4.4451514
-1.0932617, 0.3720703, -0.644043, 18.9024391, 92.2561035, 50.5487823, -4.303151
-1.1079102, 0.3374023, -0.6196289, 17.9268303, 93.4146347, 50.9756126, -3.9815518
-1.1152344, 0.3237305, -0.6025391, 18.9024391, 96.1585388, 53.5975609, -3.571664
-1.1376953, 0.3217773, -0.6069336, 24.2682934, 99.5121994, 57.68293, -3.1812467
-1.1474609, 0.3369141, -0.612793, 27.4390259, 100.9756088, 60.18293, -2.754406
-1.1699219, 0.3911133, -0.6367188, 32.1951218, 103.1097565, 64.5731735, -2.2006714
-1.1748047, 0.4272461, -0.6601562, 33.9024391, 104.2682953, 66.4634171, -1.6507973
-1.1796875, 0.4897461, -0.7016602, 33.3536606, 106.4024429, 69.4512177, -1.0738994
-1.1762695, 0.5078125, -0.7148438, 31.8292694, 107.7439041, 70.1219559, -0.5460136
-1.1791992, 0.5161133, -0.7255859, 29.6341476, 109.0853653, 69.5121994, -0.1834592
-1.184082, 0.5087891, -0.7255859, 28.841465, 109.3292694, 68.5365906, 0.0508583
-1.2143555, 0.4824219, -0.6860352, 27.6829281, 108.4146347, 67.5609741, 0.2821546
-1.2290039, 0.4521484, -0.6225586, 27.0731716, 108.3536606, 67.9878082, 0.4830701
-1.2304688, 0.4345703, -0.59375, 25.7926826, 111.0975647, 68.9024429, 0.7024491
-1.2280273, 0.409668, -0.5297852, 24.0243912, 117.7439041, 71.4024429, 1.0190127
-1.2250977, 0.3979492, -0.503418, 23.9634151, 121.8292694, 72.5, 1.3923095
-1.2133789, 0.3881836, -0.4985352, 25.4268303, 130.1219482, 74.5731735, 1.8132753
-1.2167969, 0.3920898, -0.5146484, 27.3780499, 134.2682953, 75.7926865, 2.2114137
-1.2402344, 0.418457, -0.5859375, 30.8536587, 141.5243988, 78.5975647, 2.5536584
-1.2646484, 0.440918, -0.6328125, 32.4390259, 143.9024353, 80.6707306, 2.8208743
-1.3095703, 0.496582, -0.7226562, 33.4756088, 146.4634247, 85.7317123, 3.0191043
-1.3261719, 0.5161133, -0.7509766, 33.2317085, 146.7073212, 88.4756088, 3.1728542
-1.355957, 0.5361328, -0.7646484, 30.8536587, 146.0975647, 91.5853653, 3.2077668
-1.3666992, 0.5112305, -0.7109375, 28.4146347, 145.6707306, 90.7926865, 3.2644999
-1.3769531, 0.4907227, -0.6640625, 27.7439022, 146.2804871, 89.3292694, 3.4058289
-1.3764648, 0.4589844, -0.5839844, 29.2073174, 150.4268341, 86.0365906, 3.638468
-1.3706055, 0.4462891, -0.5844727, 31.5243912, 155.3048859, 85.4268341, 3.9127337
-1.3916016, 0.4438477, -0.668457, 36.9512215, 166.3414612, 87.1341476, 4.1712215
-1.4086914, 0.449707, -0.7265625, 39.0243912, 169.5121918, 89.6951218, 4.327657
-1.440918, 0.4604492, -0.8168945, 40.6707344, 170.2439117, 97.2561035, 4.3813687
-1.4506836, 0.4614258, -0.8232422, 41.0975609, 167.86586, 100.8536606, 4.4491798
-1.4467773, 0.4702148, -0.7578125, 42.1951218, 163.2317047, 106.2195129, 4.493492
-1.440918, 0.4760742, -0.7084961, 42.7439041, 162.6829376, 106.9512253, 4.4840925
-1.4277344, 0.5073242, -0.6386719, 45.2439041, 166.2195129, 105.6097565, 4.4787213
-1.4150391, 0.5463867, -0.6293945, 48.4146347, 175.2439117, 102.5, 4.5183337
-1.4135742, 0.5581055, -0.6464844, 49.3902435, 179.9390259, 101.5853653, 4.5136339
-1.4169922, 0.5795898, -0.6938477, 49.8780518, 187.3780518, 101.4634171, 4.5680171
-1.4179688, 0.5932617, -0.7138672, 49.8170738, 189.0853729, 102.1341476, 4.5921874
-1.4042969, 0.6074219, -0.7587891, 46.7073174, 190.8536682, 104.9390259, 4.5673457
-1.3935547, 0.6103516, -0.7749023, 44.6341476, 191.7682953, 106.5853653, 4.5025559
-1.3779297, 0.590332, -0.7714844, 40.4268303, 194.0243988, 106.646347, 4.4793927
-1.3735352, 0.5766602, -0.7529297, 38.9634171, 194.6951294, 106.4024429, 4.4307164
-1.3720703, 0.5639648, -0.7260742, 39.5731735, 197.6829376, 103.7804871, 4.3706264
-1.371582, 0.5620117, -0.7260742, 40.9146347, 200.1219635, 102.68293, 4.3692836
-1.371582, 0.5620117, -0.7338867, 44.7560997, 205.9756165, 102.9268341, 4.3296712
-1.3618164, 0.5571289, -0.78125, 48.2926826, 211.3414612, 103.9024429, 4.2202335
-1.3540039, 0.550293, -0.8120117, 48.7195129, 212.8048859, 104.2073212, 4.0208286
-1.3618164, 0.5483398, -0.8706055, 46.4634171, 214.0853729, 104.9390259, 3.7500877
-1.3701172, 0.5507812, -0.887207, 44.5731735, 213.8414612, 106.0975647, 3.455848
-1.3916016, 0.5668945, -0.8598633, 41.0975609, 212.0731812, 108.9634171, 3.1419699
-1.3950195, 0.5737305, -0.8232422, 40.3048782, 211.2804871, 110.7317123, 2.7888151
-1.3696289, 0.5947266, -0.7456055, 41.8292694, 212.5, 112.1951218, 2.3816129
-1.3457031, 0.6079102, -0.7182617, 42.5, 215.1829376, 111.7073212, 2.1039902
-1.2958984, 0.6254883, -0.7207031, 42.8048782, 222.9268341, 107.7439041, 1.9237201
-1.2832031, 0.6352539, -0.7470703, 42.1951218, 227.4390259, 105.5487823, 1.693431
-1.2724609, 0.6582031, -0.8125, 38.7195129, 233.23172, 102.9268341, 1.4389715
-1.2841797, 0.6767578, -0.8632812, 34.8780479, 235.5487823, 105.0609818, 1.2305028
-1.2802734, 0.6757812, -0.8789062, 33.1707306, 236.0365906, 106.7073212, 1.0898451
-1.2666016, 0.6489258, -0.8706055, 30.2439022, 236.2195129, 108.9024429, 1.0791028
-1.2680664, 0.6318359, -0.8520508, 29.0243912, 235.8536682, 108.5975647, 1.1284504
-1.2709961, 0.6049805, -0.8251953, 28.1097565, 237.012207, 106.3414688, 1.0425116
-1.2709961, 0.5947266, -0.831543, 27.8048782, 238.9634247, 105.4268341, 0.7692531
-1.2861328, 0.5869141, -0.875, 25.4878063, 244.6951294, 104.6951218, 0.4268406
-1.2905273, 0.5820312, -0.8969727, 23.9634151, 246.8902435, 105.7317123, 0.0320592
-1.2983398, 0.5615234, -0.9404297, 22.0731716, 249.146347, 108.9024429, -0.5782406
-1.3012695, 0.5571289, -0.9726562, 21.7073174, 249.3902435, 110.7317123, -1.1791409
-1.3071289, 0.5668945, -0.9736328, 22.3170738, 247.7439117, 114.5731735, -1.6887312
-1.3115234, 0.5893555, -0.9389648, 24.3902435, 245.1219635, 118.4756088, -2.1483024
-1.2949219, 0.59375, -0.9208984, 25.7317085, 244.3292694, 119.5121994, -2.5081712
-1.2407227, 0.5874023, -0.9003906, 26.3414631, 245, 117.68293, -2.68542
-1.2304688, 0.5820312, -0.8876953, 26.280489, 246.5243988, 115.4268341, -2.787808
-1.2226562, 0.5839844, -0.862793, 26.4024391, 249.6341553, 112.8048782, -2.9019455
-1.2177734, 0.5913086, -0.8579102, 26.5243912, 251.2195129, 112.6219559, -2.9865415
-1.1801758, 0.6074219, -0.8920898, 26.1585369, 254.512207, 115.2439041, -3.1681544
-1.1567383, 0.6044922, -0.9140625, 25.3048782, 255.73172, 116.8292694, -3.4872358
-1.1289062, 0.5844727, -0.9331055, 23.0487804, 256.3414612, 119.0853653, -3.8932631
-1.128418, 0.546875, -0.8979492, 21.9512196, 255.4268341, 119.2682953, -4.303151
-1.1337891, 0.5371094, -0.8803711, 22.0121956, 252.8048859, 118.5975647, -4.6829938
-1.1479492, 0.5610352, -0.8798828, 23.4146347, 253.9024506, 119.5121994, -4.9998932
-1.159668, 0.5830078, -0.878418, 24.5731716, 255.3048859, 121.2195129, -5.1850309
-1.1401367, 0.6289062, -0.8452148, 25.7317085, 256.9512329, 124.6951218, -5.3421378
-1.1088867, 0.637207, -0.8227539, 25.4268303, 256.8902588, 124.8780518, -5.4344549
-1.0258789, 0.6435547, -0.7924805, 21.4024391, 258.4756165, 120.7317123, -5.4905165
-0.9921875, 0.6401367, -0.7841797, 18.5365849, 260.9756165, 116.9512253, -5.492195
-0.9667969, 0.6308594, -0.7836914, 13.1097565, 267.1951294, 111.2804871, -5.4925307
-0.9624023, 0.6240234, -0.8007812, 10.9756098, 270.0609741, 110.2439041, -5.4926986
-0.956543, 0.6171875, -0.8349609, 8.9634151, 273.4146423, 111.4634171, -5.4928664
-0.9492188, 0.6118164, -0.8271484, 9.2682924, 273.6585388, 113.1707306, -5.4930343
-0.934082, 0.6044922, -0.8227539, 10.7317076, 272.3780518, 115.0609818, -5.4932021
-0.9008789, 0.5825195, -0.8369141, 10.8536587, 273.5975647, 113.7195129, -5.4932021
-0.9057617, 0.5688477, -0.84375, 10.4268293, 274.6951294, 112.1951218, -5.4932021
-0.934082, 0.5566406, -0.8618164, 9.5731707, 275.9756165, 110.3048782, -5.4754101
-0.9536133, 0.5458984, -0.8540039, 9.1463413, 276.0365906, 110.36586, -5.2786908
-0.9506836, 0.5576172, -0.8496094, 8.9024391, 275.1219482, 111.8292694, -5.131487
-0.9321289, 0.5605469, -0.8686523, 8.5975609, 275.1829224, 112.6219559, -4.9174792
-0.9042969, 0.5732422, -0.8920898, 6.7682929, 276.5243835, 112.7439041, -4.5962158
-0.9033203, 0.5717773, -0.875, 5.9146342, 276.4024353, 112.5, -4.2561532
-0.8632812, 0.5483398, -0.7983398, 6.7073174, 274.2073364, 110.6097565, -3.8981308
-0.8139648, 0.5170898, -0.7905273, 7.8658538, 272.9878235, 108.7195129, -3.532723
-0.809082, 0.512207, -0.8022461, 8.2317076, 274.6341553, 104.8780518, -3.313344
-0.8310547, 0.5283203, -0.8095703, 6.8292685, 276.0975647, 105.4878082, -3.1703365
-0.8266602, 0.534668, -0.8027344, 6.3414636, 275.4878235, 107.5609818, -3.0073548
-0.7851562, 0.5332031, -0.7841797, 6.7073174, 272.6829224, 110.18293, -2.9457542
-0.7504883, 0.5224609, -0.7734375, 7.0731707, 272.012207, 109.8780518, -2.773373
-0.7216797, 0.5131836, -0.7749023, 7.5609756, 271.8902588, 105.9146347, -2.3347829
-0.7285156, 0.5136719, -0.7797852, 7.8048782, 272.012207, 104.3292694, -1.7249866
-0.7543945, 0.5327148, -0.7734375, 8.4146347, 270.3048706, 103.1097565, -1.0438544
-0.7509766, 0.5410156, -0.7651367, 8.6585369, 268.7804871, 103.4756088, -0.40972
-0.7041016, 0.5092773, -0.7651367, 7.9878049, 265.4878235, 103.2926865, 0.1126268
-0.6655273, 0.4375, -0.7236328, 6.3414636, 263.8414612, 101.8292694, 0.381857
-0.6577148, 0.3994141, -0.6850586, 2.804878, 259.8780518, 97.1341476, 0.4830701
-0.6489258, 0.3422852, -0.6313477, 1.3414634, 257.5, 93.9634171, 0.557763
-0.6411133, 0.3217773, -0.6225586, 1.1585366, 257.6219482, 93.8414688, 0.6390021
-0.6381836, 0.3232422, -0.609375, 4.390244, 259.0853577, 95.9146347, 0.7685817
-0.6352539, 0.331543, -0.5908203, 6.4024391, 258.8414612, 97.8048782, 1.0619821
-0.5839844, 0.362793, -0.5605469, 10.3658543, 255.8536682, 100.5487823, 1.3909667
-0.5463867, 0.3740234, -0.5493164, 10.9146347, 255.2439117, 100.2439041, 1.6776532
-0.4838867, 0.3813477, -0.5405273, 9.1463413, 255, 95.8536606, 1.9911955
-0.4692383, 0.375, -0.5375977, 7.0121951, 254.9390259, 92.9878082, 2.3557641
-0.4658203, 0.34375, -0.5556641, 3.6585367, 253.6585388, 88.1097565, 2.8235599
-0.4780273, 0.2958984, -0.6357422, 2.3780489, 252.1341553, 86.7682953, 3.3689021
-0.5029297, 0.2763672, -0.659668, 1.3414634, 247.9268341, 87.5, 3.8314946
-0.5581055, 0.2480469, -0.6293945, 2.2560976, 240.9756165, 91.646347, 4.099382
-0.5639648, 0.2436523, -0.5771484, 3.6585367, 236.9512177, 93.5365906, 4.0597696
-0.5283203, 0.2392578, -0.4541016, 7.9268293, 232.9878082, 93.4756088, 3.8425727
-0.4902344, 0.2416992, -0.4296875, 10.4268293, 233.1707306, 91.2195129, 3.6414893
-0.4267578, 0.2397461, -0.4765625, 12.4390249, 236.4634247, 84.0243912, 3.6032197
-0.4169922, 0.2431641, -0.5097656, 11.8292685, 237.012207, 81.0975647, 3.7703975
-0.4345703, 0.2587891, -0.5288086, 10, 233.5365906, 80.2439041, 4.0033722
-0.4277344, 0.2651367, -0.5166016, 8.780488, 229.9390259, 81.8292694, 4.2611887
-0.3793945, 0.2543945, -0.5068359, 6.5853658, 223.9634247, 85.1219559, 4.4995346
-0.347168, 0.2353516, -0.5229492, 5.5487804, 222.0731812, 85.18293, 4.6294499
-0.3544922, 0.2275391, -0.5166016, 3.7195122, 219.0853729, 83.2317123, 4.6378424
-0.3847656, 0.2275391, -0.4667969, 5.1219511, 213.9024506, 81.2804871, 4.4834211
-0.394043, 0.2299805, -0.4633789, 6.5853658, 211.4024506, 80.6707306, 4.2840162
-0.3662109, 0.2182617, -0.4663086, 7.8658538, 207.3780518, 78.8414688, 4.1040818
-0.3569336, 0.2084961, -0.4575195, 7.9268293, 205.4878082, 77.1951218, 3.8868849
-0.3432617, 0.2070312, -0.4365234, 7.1951222, 200, 74.3902435, 3.6804303
-0.3300781, 0.2055664, -0.4267578, 6.7682929, 197.5609741, 73.2926865, 3.4407416
-0.3041992, 0.1855469, -0.4116211, 5.609756, 193.4146423, 71.4634171, 3.2990768
-0.2954102, 0.1767578, -0.4111328, 4.9390244, 191.4634247, 70.7926865, 3.2258946
-0.2749023, 0.1538086, -0.402832, 3.3536587, 186.9512177, 69.3902435, 3.2023957
-0.277832, 0.1489258, -0.3769531, 3.2317073, 184.146347, 68.9634171, 3.2050813
-0.2729492, 0.1435547, -0.3759766, 4.2682929, 179.2682953, 69.3902435, 3.2767529
-0.2426758, 0.1308594, -0.4082031, 5.0609756, 173.9634247, 69.3902435, 3.2879988
-0.2387695, 0.1176758, -0.4208984, 5.2439027, 171.2195129, 68.5365906, 3.1950103
-0.2368164, 0.1064453, -0.3896484, 7.0731707, 163.8414612, 66.6463394, 3.047303
-0.2392578, 0.1137695, -0.3710938, 8.5975609, 159.3292694, 65.9756088, 2.7720302
-0.2197266, 0.1362305, -0.3598633, 11.1585369, 154.3902435, 65.18293, 2.3842985
-0.2114258, 0.1455078, -0.3701172, 12.1341467, 153.1707306, 64.6951218, 2.0073091
-0.1884766, 0.15625, -0.3930664, 11.219512, 149.4512177, 63.5975609, 1.591043
-0.1762695, 0.1611328, -0.3852539, 10.060976, 146.2195129, 62.8658562, 1.1163653
-0.1479492, 0.1542969, -0.3203125, 7.8658538, 138.1707306, 61.2804909, 0.8199435
-0.1010742, 0.1450195, -0.2685547, 7.0731707, 133.2317047, 57.9878044, 0.7397116
-0.081543, 0.1308594, -0.2729492, 6.4024391, 132.6219482, 55.9756126, 0.7220874
-0.0688477, 0.0795898, -0.3110352, 5.1829271, 130.4268341, 52.4390259, 0.688014
-0.0756836, 0.059082, -0.3237305, 5.7317076, 127.1341476, 51.2195129, 0.6561227
-0.0952148, 0.0517578, -0.3173828, 7.9268293, 118.9024429, 51.341465, 0.5812619
-0.1020508, 0.0634766, -0.3081055, 9.3292685, 114.8780518, 52.2560997, 0.4583963
-0.0810547, 0.0966797, -0.3012695, 10.7926836, 109.0243912, 54.6341476, 0.3878996
-0.0668945, 0.1098633, -0.3076172, 10.4878054, 106.9512253, 54.9390259, 0.3100175
-0.034668, 0.1162109, -0.2915039, 9.4512196, 101.7682953, 53.7195129, 0.2077974
-0.0200195, 0.1201172, -0.269043, 9.5121956, 98.2317123, 51.8292694, 0.0092317
0.0107422, 0.128418, -0.2231445, 10.1219511, 91.7682953, 47.1951218, -0.2109865
0.0371094, 0.1337891, -0.2246094, 11.5243902, 88.2317123, 42.8658562, -0.4019989
0.0532227, 0.1342773, -0.2485352, 11.280488, 86.9512253, 41.4024391, -0.5648127
0.0708008, 0.1274414, -0.2758789, 10.6097565, 81.8902435, 39.4512215, -0.6081178
0.078125, 0.1210938, -0.2548828, 10.6707315, 77.6219559, 39.0243912, -0.659144
0.1000977, 0.1201172, -0.1796875, 10.8536587, 68.8414688, 38.7195129, -0.6571298
0.1225586, 0.1181641, -0.1459961, 10.9756098, 66.3414612, 38.0487823, -0.7262837
0.1733398, 0.1235352, -0.1069336, 9.8780489, 64.6951218, 35.1219521, -0.9478447
0.1948242, 0.1225586, -0.1049805, 9.0853662, 64.4512177, 33.1707306, -1.165713
0.2182617, 0.1162109, -0.1274414, 8.841464, 62.9878082, 29.0243912, -1.2576944
0.2236328, 0.1186523, -0.1445312, 9.2073174, 61.2195129, 27.1951218, -1.2706188
0.2236328, 0.1411133, -0.1699219, 10.1219511, 56.7073174, 25.7317085, -1.1960937
0.2133789, 0.1723633, -0.2133789, 9.8780489, 52.2560997, 26.5243912, -1.0680247
0.2172852, 0.1835938, -0.237793, 9.3292685, 49.6341476, 26.8292694, -1.1361715
0.2290039, 0.1899414, -0.2392578, 6.3414636, 43.7195129, 26.280489, -1.3684749
0.237793, 0.1865234, -0.2207031, 5, 40, 24.8780499, -1.700145
0.2631836, 0.1811523, -0.1782227, 3.3536587, 32.6219521, 20.1829281, -2.1066758
0.2792969, 0.1723633, -0.1606445, 2.7439024, 30.3048782, 17.6829281, -2.4309606
0.293457, 0.1621094, -0.1513672, 1.9512196, 27.1951218, 12.8048782, -2.3789273
0.300293, 0.1591797, -0.1552734, 2.0731707, 25.4878063, 10.7926836, -1.8891432
0.315918, 0.1557617, -0.1655273, 2.0121951, 21.2195129, 8.9024391, -1.1113298
0.3149414, 0.1557617, -0.1689453, 2.0731707, 18.780489, 8.4756098, -0.2841688
0.3198242, 0.1635742, -0.168457, 2.3170731, 13.4146347, 8.4756098, 0.3503014
0.3310547, 0.1762695, -0.2036133, 0.7926829, 8.5365858, 8.780488, 0.6356451
0.3330078, 0.1831055, -0.2148438, 0, 6.2195125, 8.2317076, 0.6967422
0.3261719, 0.1772461, -0.2050781, -1.3414634, 0.2439024, 6.5243902, 0.8088655
0.3300781, 0.1796875, -0.1948242, -1.402439, -3.2317073, 5.3048782, 0.940795
0.3286133, 0.1826172, -0.1796875, -1.097561, -9.3902445, 2.2560976, 1.120058
0.3325195, 0.1855469, -0.1762695, -1.5243902, -11.9512196, 0.8536586, 1.2885786
0.3432617, 0.1958008, -0.1777344, -3.1707318, -16.7682934, -1.3414634, 1.4035554
0.3486328, 0.2006836, -0.1772461, -4.0243902, -18.9634151, -2.2560976, 1.5148394
0.3652344, 0.1987305, -0.1660156, -6.7073174, -23.9634151, -3.4756098, 1.6118563
0.371582, 0.1918945, -0.1547852, -7.8658538, -26.5243912, -3.9634147, 1.5977569
0.3896484, 0.1850586, -0.1220703, -8.841464, -31.5853672, -5.670732, 1.4188296
0.3984375, 0.1796875, -0.1508789, -9.4512196, -36.4024391, -7.8658538, 1.2600443
0.3974609, 0.184082, -0.1572266, -10.1219511, -38.7195129, -9.2073174, 1.1398642
0.390625, 0.1889648, -0.140625, -11.219512, -42.1341476, -12.1951218, 1.1049516
0.3833008, 0.1923828, -0.1367188, -11.0975609, -43.7804871, -13.4146347, 1.2318456
0.3681641, 0.1977539, -0.1347656, -10.060976, -47.1341476, -16.0975609, 1.4641489
0.3632812, 0.2060547, -0.1396484, -9.5731707, -49.2073174, -17.0731716, 1.6004425
0.3481445, 0.2470703, -0.1767578, -9.6341467, -53.3536606, -19.2073174, 1.5729152
0.3432617, 0.2709961, -0.2006836, -10.7317076, -55.1219521, -20.060976, 1.4364538
0.3339844, 0.3012695, -0.2177734, -14.1463413, -58.9024391, -21.3414631, 1.2294957
0.3266602, 0.3139648, -0.1992188, -16.1585369, -61.0975609, -22.2560978, 1.0086061
0.328125, 0.3110352, -0.1923828, -19.1463413, -66.5243912, -25.7926826, 0.8041657
0.3364258, 0.2880859, -0.2167969, -22.439024, -70.18293, -30.6707325, 0.5819333
0.3286133, 0.2734375, -0.2348633, -23.9024391, -71.8902435, -33.0487823, 0.2944076
0.2944336, 0.2431641, -0.269043, -25.1829281, -75.7926865, -36.2195129, 0.0461585
0.2709961, 0.2285156, -0.2758789, -24.4512196, -78.2926865, -37.3780479, -0.142504
