Application:, Trigno Discover (1.6.5)
Date/Time:, 04/02/2025 15:12:14
Collection Length (seconds):, 31.779
wrist (81457), , , , , , bicep (81139)
sensor mode: 609, , , , , , sensor mode: 40
ACC X (G), ACC Y (G), ACC Z (G), GYRO X (deg/s), GYRO Y (deg/s), GYRO Z (deg/s), EMG 1 (mV)
370.3704 Hz, 370.3704 Hz, 370.3704 Hz, 370.3704 Hz, 370.3704 Hz, 370.3704 Hz, 2148.1481 Hz
-1.0385742, 0.0830078, -0.090332, -43.4146347, -16.3414631, -8.1707315, -0.0364233
-1.0444336, 0.0776367, -0.0908203, -42.2560997, -16.6463413, -7.8048782, -0.0676432
-1.043457, 0.078125, -0.0859375, -41.4634171, -17.1341476, -7.3780489, -0.1062486
-1.0351562, 0.0874023, -0.081543, -40.9146347, -17.439024, -6.280488, -0.1263905
-1.0268555, 0.0986328, -0.0776367, -40.4268303, -17.1951218, -5.9756098, -0.13579
-1.0209961, 0.1015625, -0.074707, -39.8170738, -16.0975609, -5.9146342, -0.1500572
-1.0048828, 0.1015625, -0.0830078, -39.3902435, -15.6707325, -6.1585369, -0.19823
-1.0029297, 0.0922852, -0.0869141, -39.4512215, -15.9756098, -7.1341467, -0.2386816
-1.0058594, 0.0927734, -0.0859375, -39.0243912, -16.0365849, -7.9878049, -0.2559701
-1.0117188, 0.0922852, -0.0878906, -39.3292694, -16.5853653, -8.2317076, -0.2791333
-1.0161133, 0.1010742, -0.09375, -39.3292694, -16.6463413, -7.8048782, -0.2918898
-1.0200195, 0.1049805, -0.0932617, -39.1463432, -16.1585369, -6.7073174, -0.2952468
-1.0195312, 0.109375, -0.0864258, -39.3292694, -16.1585369, -6.0365853, -0.3264668
-1.0166016, 0.1103516, -0.0878906, -39.3292694, -16.0365849, -6.2195125, -0.3623865
-1.0112305, 0.1132812, -0.0913086, -39.3902435, -15.9146347, -6.9512196, -0.3687648
-1.0166016, 0.1118164, -0.0996094, -39.2682953, -15.7317076, -7.3780489, -0.3805142
-1.0170898, 0.1098633, -0.1005859, -39.7560997, -15.3658543, -8.1097565, -0.4003204
-1.0180664, 0.1005859, -0.0986328, -39.9390259, -15.6097565, -8.2317076, -0.3924315
-1.0200195, 0.0957031, -0.09375, -40.3048782, -15.6707325, -8.5975609, -0.3701076
-1.0185547, 0.0883789, -0.0795898, -40.3658562, -15.7317076, -8.2317076, -0.403006
-1.0180664, 0.0834961, -0.0712891, -39.4512215, -15.2439032, -7.5609756, -0.406363
-1.0112305, 0.0756836, -0.0683594, -39.0243912, -14.7560978, -7.6829271, -0.3962921
-1.0092773, 0.0756836, -0.0664062, -37.8658562, -14.3292685, -7.5609756, -0.3761501
-1.0107422, 0.0727539, -0.0727539, -37.0121956, -14.0853662, -7.6219516, -0.3492943
-1.0146484, 0.0795898, -0.0727539, -36.5853653, -13.7195129, -7.1951222, -0.3076677
-1.0078125, 0.0957031, -0.081543, -35.9146347, -12.8658543, -5.9756098, -0.3002823
-1.0039062, 0.105957, -0.0791016, -35.6097565, -12.7439032, -5.5487804, -0.3123674
-1.0014648, 0.1118164, -0.0810547, -35.7926826, -12.2560978, -4.9390244, -0.2868544
-0.9863281, 0.1054688, -0.0864258, -35.6097565, -12.1341467, -5.1219511, -0.2554665
-0.9868164, 0.0996094, -0.0878906, -35.7317085, -11.4024391, -6.2195125, -0.2116579
-0.9897461, 0.0883789, -0.0888672, -35.4268303, -11.7073174, -6.9512196, -0.1950408
-0.9907227, 0.0844727, -0.0854492, -35.5487823, -12.1951218, -7.4390244, -0.1918517
-1.0019531, 0.0834961, -0.0810547, -35.1829262, -12.3780489, -7.1951222, -0.173724
-1.0087891, 0.0883789, -0.0800781, -34.0853653, -12.4390249, -6.3414636, -0.1535821
-1.0092773, 0.0922852, -0.081543, -33.4146347, -11.8902445, -4.3292685, -0.1284047
-1.0014648, 0.1035156, -0.0888672, -33.2926826, -12.1341467, -3.7804878, -0.1418326
-1.0019531, 0.1113281, -0.0908203, -33.4146347, -12.0121956, -3.8414636, -0.1310903
-1.0058594, 0.121582, -0.1010742, -33.5975609, -12.1341467, -3.9634147, -0.1193408
-1.0068359, 0.1293945, -0.0986328, -34.3292694, -12.0731707, -4.8780489, -0.1062486
-1.0175781, 0.1376953, -0.0986328, -34.7560997, -11.9512196, -5.4268293, -0.1132982
-1.019043, 0.1416016, -0.0952148, -35.1219521, -12.0731707, -5.7317076, -0.1049058
-1.0195312, 0.1396484, -0.0883789, -35.3048782, -12.3170738, -6.1585369, -0.1065843
-1.0151367, 0.140625, -0.0776367, -35.9756088, -11.7682934, -6.8292685, -0.1186694
-1.0107422, 0.1352539, -0.0756836, -36.341465, -11.0365858, -7.6219516, -0.1178302
-1.0063477, 0.1362305, -0.0727539, -37.0731697, -10.7317076, -8.0487804, -0.1475395
-0.9970703, 0.1347656, -0.0649414, -37.2560997, -9.8780489, -8.1097565, -0.1720455
-0.9873047, 0.1313477, -0.0537109, -36.9512215, -9.2682924, -7.8658538, -0.1861448
-0.9799805, 0.1274414, -0.050293, -36.2804871, -8.5975609, -7.9268293, -0.1968872
-0.9731445, 0.1147461, -0.0498047, -36.0975609, -7.9878049, -8.1707315, -0.2358282
-0.9711914, 0.1079102, -0.0512695, -35.4268303, -7.3170733, -8.2317076, -0.2529488
-0.9682617, 0.1005859, -0.0566406, -35.6097565, -6.7073174, -8.5975609, -0.2784619
-0.9697266, 0.0942383, -0.0605469, -35.7317085, -5.9756098, -9.0853662, -0.3053178
-0.9804688, 0.0869141, -0.0664062, -35.5487823, -5.7317076, -8.5365858, -0.31841
-0.9887695, 0.0849609, -0.0678711, -35.4268303, -5.9146342, -7.6219516, -0.3210956
-0.9926758, 0.0883789, -0.0693359, -34.2682953, -6.2195125, -6.4024391, -0.3457694
-0.9975586, 0.0991211, -0.0708008, -33.9024391, -6.280488, -6.0365853, -0.3734646
-1.0029297, 0.1088867, -0.078125, -33.2317085, -6.4634147, -5.3048782, -0.370779
-1.0053711, 0.1210938, -0.0869141, -33.2317085, -6.4634147, -5, -0.3716182
-1.0078125, 0.1240234, -0.0869141, -33.841465, -6.2195125, -4.7560978, -0.3644007
-1.0048828, 0.1259766, -0.0917969, -34.0853653, -5.9756098, -5.0609756, -0.376318
-1.0083008, 0.1264648, -0.0854492, -34.8170738, -6.4634147, -5.9756098, -0.3845426
-1.0053711, 0.1142578, -0.0859375, -34.9390259, -6.7682929, -6.4634147, -0.3754788
-1.0078125, 0.1079102, -0.0874023, -35.3048782, -6.4024391, -7.0731707, -0.360708
-1.0068359, 0.0927734, -0.0844727, -35.3048782, -6.4634147, -7.0731707, -0.3479515
-1.0058594, 0.0864258, -0.0820312, -35.2439041, -6.5853658, -6.7682929, -0.3637293
-1.0083008, 0.0805664, -0.0722656, -34.7560997, -6.6463418, -5.5487804, -0.3427481
-1.0014648, 0.0805664, -0.0727539, -34.5121956, -6.890244, -4.7560978, -0.2999466
-1.0014648, 0.0761719, -0.0678711, -33.3536606, -6.5243902, -3.4146342, -0.2673838
-0.9960938, 0.0800781, -0.0639648, -32.6829262, -6.5853658, -2.7439024, -0.2375067
-0.9985352, 0.0839844, -0.0639648, -31.5853672, -6.5243902, -2.7439024, -0.2017548
-0.9970703, 0.0825195, -0.0664062, -30.9146347, -6.7073174, -2.9268293, -0.1858091
-0.996582, 0.0878906, -0.0673828, -30.4878063, -6.4634147, -3.1707318, -0.160296
-0.9990234, 0.0878906, -0.0693359, -30.4878063, -6.5853658, -3.1707318, -0.1156481
-0.9990234, 0.090332, -0.0688477, -30.1829281, -6.8292685, -2.8658538, -0.082414
-0.9975586, 0.0996094, -0.0678711, -29.6951218, -6.4634147, -2.5, -0.0407874
-0.9985352, 0.105957, -0.0664062, -29.3902454, -6.6463418, -1.7073171, -0.0060426
-0.9980469, 0.1176758, -0.0708008, -29.3292694, -6.9512196, -1.1585366, 0.0186313
-0.996582, 0.125, -0.0708008, -29.2682934, -7.0121951, -1.402439, 0.0099031
-0.9916992, 0.1411133, -0.0732422, -29.5121956, -7.2560978, -1.7682927, 0.0265202
-0.9916992, 0.140625, -0.0712891, -29.8170738, -7.1951222, -2.195122, 0.040116
-0.987793, 0.1420898, -0.0668945, -29.8170738, -7.2560978, -3.2926829, 0.0686503
-0.9907227, 0.1401367, -0.0712891, -30.1829281, -7.1341467, -4.1463413, 0.0929885
-0.9946289, 0.137207, -0.0703125, -30.2439022, -7.4390244, -5.1829271, 0.1218585
-0.9956055, 0.1289062, -0.0712891, -30.4878063, -7.3170733, -5.670732, 0.1126268
-0.9946289, 0.125, -0.0664062, -30.9756107, -7.4390244, -5.8536587, 0.1075914
-1.003418, 0.1191406, -0.0649414, -30.8536587, -7.3780489, -5.7926831, 0.1173266
-1.0029297, 0.1157227, -0.0644531, -30.6707325, -7.4390244, -5.670732, 0.1159838
-1.003418, 0.1166992, -0.0493164, -29.5731716, -7.2560978, -5.670732, 0.1038987
-1.0043945, 0.1176758, -0.043457, -29.4512196, -7.3170733, -5.609756, 0.0871138
-0.9926758, 0.1186523, -0.0478516, -28.780489, -6.6463418, -5.8536587, 0.0797284
-0.9873047, 0.1103516, -0.0639648, -28.841465, -6.0975609, -6.2195125, 0.0663005
-0.9858398, 0.105957, -0.0737305, -29.1463413, -5.7317076, -7.1341467, 0.0656291
-0.9941406, 0.0961914, -0.0839844, -29.2073174, -5.7926831, -7.3780489, 0.0542153
-1.0004883, 0.0942383, -0.0849609, -28.5975609, -7.4390244, -7.4390244, 0.0062104
-1.012207, 0.0927734, -0.090332, -27.9878063, -7.9878049, -7.1951222, 0.002182
-1.0185547, 0.0932617, -0.0932617, -26.6463413, -9.0853662, -6.0975609, -0.0015106
-1.027832, 0.0991211, -0.0952148, -26.1585369, -9.2682924, -5.670732, -0.0125887
-1.0273438, 0.1044922, -0.0917969, -25.9756107, -10.060976, -5.3048782, -0.0135958
-1.0336914, 0.1132812, -0.0908203, -25.4878063, -10.3048782, -5.670732, 0.0065461
-1.0307617, 0.1162109, -0.090332, -25.1829281, -10.4268293, -5.7317076, -0.0082246
-1.0307617, 0.1157227, -0.0869141, -25.3658543, -10.7317076, -6.3414636, -0.0196384
-1.0283203, 0.1069336, -0.0961914, -25.5487804, -10.8536587, -6.8292685, -0.0250095
-1.0268555, 0.1030273, -0.0952148, -25.9146347, -11.341464, -7.6829271, -0.0229953
-1.0327148, 0.0991211, -0.0917969, -25.8536587, -11.280488, -7.8658538, -0.0152743
-1.034668, 0.0908203, -0.0883789, -25.6707325, -11.7682934, -7.8658538, -0.0072175
-1.0327148, 0.0844727, -0.078125, -25.2439022, -11.9512196, -7.8658538, 0.0099031
-1.0327148, 0.0869141, -0.0712891, -24.5731716, -12.0731707, -7.4390244, -0.0171206
-1.0239258, 0.0834961, -0.059082, -24.0853672, -12.1951218, -7.0731707, 0.0041962
-1.0209961, 0.0859375, -0.0576172, -23.7195129, -11.8292685, -6.7073174, 0.0357519
-1.0029297, 0.0961914, -0.0581055, -23.7195129, -10.9146347, -6.6463418, 0.0713359
-0.9946289, 0.1010742, -0.0546875, -23.5365868, -10.7317076, -6.5853658, 0.0997024
-0.9848633, 0.1137695, -0.0449219, -23.9024391, -10.6097565, -6.280488, 0.1354543
-0.9707031, 0.121582, -0.0424805, -23.9634151, -10.4878054, -6.280488, 0.1435111
-0.96875, 0.1240234, -0.0454102, -24.8780499, -10.1829271, -6.4024391, 0.1414969
-0.9580078, 0.1230469, -0.0405273, -25.3048782, -9.7560978, -7.0731707, 0.1770809
-0.9648438, 0.1191406, -0.043457, -26.8902454, -9.1463413, -7.6829271, 0.2130007
-0.9746094, 0.1040039, -0.0463867, -27.1341476, -9.0243902, -7.9878049, 0.2395209
-0.9833984, 0.1000977, -0.0458984, -28.1097565, -8.6585369, -8.2317076, 0.2593271
-1.0004883, 0.0888672, -0.0454102, -27.8048782, -8.5975609, -8.3536587, 0.2798047
-1.0083008, 0.0888672, -0.0498047, -27.2560978, -8.5365858, -7.7439027, 0.3043107
-1.0219727, 0.0859375, -0.059082, -26.7682934, -8.2926826, -7.0731707, 0.3254597
-1.0249023, 0.0844727, -0.0585938, -26.8292694, -7.9878049, -7.1341467, 0.3456016
-1.0292969, 0.0776367, -0.0629883, -27.0121956, -7.7439027, -6.9512196, 0.332845
-1.0322266, 0.0756836, -0.0717773, -26.8292694, -7.5609756, -7.0121951, 0.3523156
-1.0366211, 0.0708008, -0.0800781, -26.5853672, -7.4390244, -7.2560978, 0.3748074
-1.0424805, 0.0615234, -0.081543, -26.4024391, -7.5, -7.1341467, 0.3717861
-1.0400391, 0.0620117, -0.0834961, -26.280489, -8.0487804, -6.9512196, 0.3687648
-1.0400391, 0.0615234, -0.0756836, -26.0975609, -8.3536587, -6.6463418, 0.3905852
-1.0366211, 0.0585938, -0.074707, -25.6707325, -8.3536587, -5.609756, 0.3724575
-1.0205078, 0.0600586, -0.0678711, -25.6097565, -8.5365858, -5.4268293, 0.336202
-1.0141602, 0.0649414, -0.0678711, -25.1829281, -8.5975609, -4.5731707, 0.3221027
-1.0024414, 0.0727539, -0.0732422, -24.5121956, -9.2682924, -4.2682929, 0.3038071
-0.9985352, 0.0751953, -0.0771484, -24.3902435, -9.1463413, -3.9024391, 0.2925612
-1.0004883, 0.0791016, -0.0776367, -23.9634151, -9.8780489, -3.9024391, 0.2858473
-1.0117188, 0.0844727, -0.0742188, -23.9634151, -9.8170738, -4.390244, 0.2791333
-1.0107422, 0.0859375, -0.0751953, -23.9024391, -10.6097565, -4.8170733, 0.2267643
-1.012207, 0.0898438, -0.0649414, -23.8414631, -10.7926836, -4.8170733, 0.1911803
-1.0175781, 0.0898438, -0.059082, -23.3536587, -10.4878054, -4.9390244, 0.1589532
-1.0166016, 0.0791016, -0.0517578, -23.3536587, -10.2439022, -4.8780489, 0.131426
-1.0131836, 0.0771484, -0.0512695, -22.8048782, -9.4512196, -5.3048782, 0.1126268
-1.0092773, 0.0585938, -0.0483398, -22.1341476, -9.3292685, -5.4878049, 0.1166552
-1.0092773, 0.059082, -0.0473633, -21.4634151, -9.3292685, -6.5243902, 0.0904707
-1.0014648, 0.0576172, -0.0424805, -20.6097565, -9.4512196, -6.890244, 0.0663005
-1.0029297, 0.059082, -0.0444336, -20.3658543, -9.2682924, -6.4634147, 0.0884565
-1.0068359, 0.0698242, -0.0449219, -20.1219521, -9.0243902, -5.4878049, 0.0958419
-1.0024414, 0.0883789, -0.0458984, -19.8170738, -8.9024391, -5, 0.0958419
-1.0004883, 0.0942383, -0.0424805, -19.3292694, -8.780488, -4.390244, 0.0991989
-0.9946289, 0.1108398, -0.046875, -19.2073174, -8.9634151, -4.4512196, 0.0938277
-0.9912109, 0.1162109, -0.0512695, -19.939024, -9.2682924, -5.3048782, 0.0897993
-0.9912109, 0.1147461, -0.0595703, -20.6097565, -8.780488, -6.2195125, 0.0891279
-0.9916992, 0.1123047, -0.0634766, -22.439024, -8.1707315, -8.1707315, 0.0985275
-1, 0.0947266, -0.0639648, -23.2317085, -7.8048782, -8.841464, 0.0897993
-0.9951172, 0.0800781, -0.0571289, -24.3902435, -7.9878049, -10.3048782, 0.10692
-1.0058594, 0.0600586, -0.050293, -24.0243912, -8.1707315, -10.7926836, 0.112459
-1.0117188, 0.0454102, -0.0498047, -23.4756107, -8.1097565, -10.6707315, 0.110277
-1.0146484, 0.0239258, -0.0483398, -22.8658543, -8.4756098, -10.060976, 0.1176623
-1.0151367, 0.019043, -0.0356445, -22.439024, -8.1707315, -9.2682924, 0.1386435
-1.0087891, 0.0166016, -0.0375977, -21.1585369, -7.5, -7.9268293, 0.1465324
-1.0053711, 0.0185547, -0.0385742, -20.3658543, -7.3170733, -7.1341467, 0.1401541
-0.9995117, 0.0283203, -0.0458984, -19.0853672, -6.5853658, -5.9756098, 0.156939
-0.9946289, 0.0405273, -0.0571289, -18.4146347, -6.4024391, -5.670732, 0.1628138
-0.9946289, 0.0493164, -0.0639648, -17.1341476, -6.890244, -4.9390244, 0.1680171
-0.9956055, 0.0625, -0.0693359, -16.7682934, -7.1341467, -4.8170733, 0.1804379
-0.996582, 0.0654297, -0.0712891, -16.5853653, -7.9268293, -4.5731707, 0.1999084
-0.9995117, 0.0722656, -0.0678711, -16.4024391, -8.1707315, -5.1829271, 0.173724
-1.0039062, 0.0761719, -0.0693359, -16.7682934, -8.5365858, -5.3658538, 0.1733883
-1.0131836, 0.0751953, -0.0712891, -17.439024, -9.1463413, -5.5487804, 0.1811093
-1.0205078, 0.0742188, -0.074707, -17.439024, -9.1463413, -5.8536587, 0.1743954
-1.0219727, 0.0737305, -0.0742188, -17.2560978, -9.4512196, -5.670732, 0.1723812
-1.03125, 0.0834961, -0.0830078, -17.3170738, -9.5121956, -5.5487804, 0.1898375
-1.0351562, 0.0898438, -0.081543, -16.7682934, -10.060976, -5.1829271, 0.1821164
-1.0400391, 0.0996094, -0.0766602, -16.9512196, -10.3658543, -5.1829271, 0.1445182
-1.0351562, 0.1025391, -0.074707, -17.5, -10.9756098, -5, 0.1226978
-1.0219727, 0.1079102, -0.0776367, -19.0853672, -10.9146347, -5.4268293, 0.0884565
-1.0117188, 0.1108398, -0.0717773, -19.7560978, -10.5487804, -6.0975609, 0.066804
-0.9990234, 0.1079102, -0.0620117, -21.0975609, -10.7317076, -7.6829271, 0.0320592
-0.9838867, 0.0908203, -0.0419922, -21.7682934, -10.8536587, -8.2926826, -0.0065461
-0.9829102, 0.0791016, -0.0375977, -22.8048782, -11.0365858, -9.5121956, -0.023331
-0.9780273, 0.0483398, -0.0195312, -22.8658543, -10.8536587, -10, -0.0485084
-0.9770508, 0.0332031, -0.0126953, -22.9878063, -9.9390249, -10.9756098, -0.0820783
-0.9770508, 0.0097656, -0.0073242, -22.9878063, -9.4512196, -11.0975609, -0.13579
-0.9799805, -0.0004883, -0.0024414, -22.3780499, -8.9024391, -10.5487804, -0.1552605
-0.9819336, -0.0063477, -0.0019531, -22.0121956, -8.6585369, -9.6341467, -0.1686885
-0.9833984, -0.0009766, -0.0073242, -20.7317085, -7.8658538, -7.5, -0.1921874
-0.9794922, 0.0200195, -0.0195312, -19.0853672, -7.2560978, -5.0609756, -0.2069581
-0.9794922, 0.034668, -0.0283203, -18.5975609, -7.1951222, -4.2682929, -0.203769
-0.9770508, 0.0639648, -0.0463867, -18.3536587, -7.9268293, -3.0487804, -0.2321355
-0.9804688, 0.0917969, -0.0522461, -18.3536587, -8.1707315, -3.2317073, -0.2680552
-0.9853516, 0.1030273, -0.0561523, -19.2682934, -8.5365858, -4.390244, -0.2673838
-0.9868164, 0.1147461, -0.0634766, -20.1219521, -8.4146347, -5.0609756, -0.2740978
-0.9902344, 0.1098633, -0.0683594, -22.1951218, -8.5365858, -7.5, -0.2818189
-0.9975586, 0.0996094, -0.0717773, -22.9878063, -8.6585369, -8.3536587, -0.2781262
-1.0029297, 0.0898438, -0.0708008, -24.8780499, -8.5365858, -9.8780489, -0.2568093
-1.015625, 0.0742188, -0.0668945, -25.1829281, -8.780488, -10.6097565, -0.2787976
-1.0205078, 0.0678711, -0.0615234, -25.1219521, -9.1463413, -10.6707315, -0.265034
-1.0239258, 0.0517578, -0.0639648, -24.8780499, -9.5731707, -9.9390249, -0.2411994
-1.0214844, 0.0488281, -0.0629883, -24.7560978, -9.7560978, -9.5731707, -0.2240787
-1.0146484, 0.0444336, -0.0639648, -24.0243912, -9.9390249, -8.9024391, -0.2180362
-1.0126953, 0.0429688, -0.0664062, -23.8414631, -10.1829271, -8.4756098, -0.1861448
-1.0131836, 0.046875, -0.0649414, -23.2926826, -10.2439022, -8.2317076, -0.1854734
-1.012207, 0.0512695, -0.0722656, -23.0487804, -11.0975609, -8.2926826, -0.173724
-1.0102539, 0.0493164, -0.0800781, -22.8048782, -11.7073174, -8.2926826, -0.142504
-1.0136719, 0.0585938, -0.0898438, -22.5, -11.7682934, -8.4146347, -0.1216907
-1.0151367, 0.0634766, -0.0864258, -22.6829281, -12.8658543, -8.4146347, -0.1049058
-1.0131836, 0.0629883, -0.0878906, -22.8658543, -13.6585369, -8.3536587, -0.1042344
-1.0136719, 0.0541992, -0.0898438, -23.5975609, -14.5731707, -8.6585369, -0.1037308
-1.0087891, 0.0380859, -0.0805664, -24.4512196, -15.3658543, -9.6951218, -0.0918135
-1.0078125, 0.0258789, -0.0712891, -24.7560978, -15.9146347, -10.2439022, -0.0767071
-1.0063477, 0.0087891, -0.0556641, -24.2682934, -15.8536587, -10.5487804, -0.0538796
-1.0058594, 0.0009766, -0.0361328, -23.6585369, -15.9146347, -10.1829271, -0.0773785
-1.0043945, 0.0019531, -0.0297852, -22.0731716, -16.0365849, -8.719512, -0.0802319
-0.9960938, 0.0170898, -0.0268555, -21.280489, -16.0975609, -7.6829271, -0.0800641
-0.987793, 0.0268555, -0.0332031, -20.5487804, -15.5487804, -6.1585369, -0.0755322
-0.9760742, 0.0449219, -0.0380859, -20.5487804, -15.3048782, -5.670732, -0.081239
-0.9692383, 0.0483398, -0.0361328, -21.0975609, -14.6341467, -5.3048782, -0.0809033
-0.9682617, 0.0517578, -0.0283203, -21.3414631, -14.4512196, -5.609756, -0.1119554
-0.9711914, 0.0488281, -0.0283203, -21.6463413, -13.780488, -6.7073174, -0.1601282
-0.9824219, 0.0419922, -0.027832, -21.0365868, -12.9878054, -8.2926826, -0.1720455
-0.9902344, 0.0327148, -0.0283203, -20.7926826, -12.4390249, -8.780488, -0.1898375
-1.0024414, 0.015625, -0.0249023, -19.8170738, -11.8902445, -9.2682924, -0.2069581
-1.0136719, 0.0092773, -0.0297852, -19.3292694, -11.5853662, -8.841464, -0.2128328
-1.0170898, 0.0068359, -0.0317383, -18.4146347, -10.7926836, -8.0487804, -0.2230716
-1.0205078, 0.0039062, -0.0283203, -18.2317085, -10.7926836, -7.1951222, -0.2709087
-1.0205078, 0.0097656, -0.03125, -17.7439022, -10, -5.670732, -0.2996109
-1.0058594, 0.0229492, -0.0463867, -17.6219521, -9.6951218, -4.7560978, -0.3165637
-1.0009766, 0.0234375, -0.0488281, -17.5, -9.2073174, -4.2682929, -0.3378805
-0.9941406, 0.03125, -0.0532227, -17.7439022, -9.1463413, -4.5731707, -0.3476158
-0.9941406, 0.0341797, -0.050293, -17.5, -8.841464, -4.9390244, -0.337377
-0.9936523, 0.0380859, -0.0449219, -17.3170738, -8.9634151, -5.670732, -0.3526513
-0.9941406, 0.0336914, -0.0458984, -17.3780499, -8.6585369, -6.280488, -0.367422
-0.9921875, 0.0297852, -0.0478516, -17.439024, -7.8048782, -6.5853658, -0.3702754
-1.0004883, 0.019043, -0.0517578, -17.6219521, -7.3170733, -6.9512196, -0.3769894
-1.0024414, 0.0166016, -0.0566406, -17.9878044, -7.0121951, -6.280488, -0.3654078
-1.0092773, 0.0087891, -0.0532227, -17.7439022, -7.1951222, -5.670732, -0.3667506
-1.0068359, 0.0063477, -0.0532227, -16.7682934, -7.3780489, -4.5121951, -0.3701076
-1.0107422, 0.0092773, -0.0478516, -16.2195129, -7.7439027, -4.3292685, -0.3627222
-1.0083008, 0.0078125, -0.0488281, -15.1219511, -7.8048782, -3.9634147, -0.3311666
-1.003418, 0.0083008, -0.0522461, -15.060976, -7.3780489, -3.7804878, -0.2959182
-1.0004883, 0.0053711, -0.059082, -14.5731707, -6.8292685, -3.6585367, -0.2997787
-1, 0.0039062, -0.0639648, -14.0243902, -6.1585369, -3.2926829, -0.2784619
-1.0024414, 0.0053711, -0.0634766, -13.9024391, -6.0365853, -3.2926829, -0.2573129
-1.0083008, 0.0073242, -0.0722656, -12.560976, -6.4634147, -2.8658538, -0.2398566
-1.0087891, 0.0117188, -0.0810547, -11.8292685, -6.890244, -2.5609756, -0.2109865
-1.0087891, 0.0107422, -0.0864258, -11.4024391, -8.1097565, -1.9512196, -0.1626459
-1.0073242, 0.0161133, -0.0844727, -11.0365858, -8.719512, -1.8292683, -0.1374685
-1.0126953, 0.0258789, -0.0771484, -10.4268293, -9.7560978, -1.6463414, -0.1337758
-1.0195312, 0.0449219, -0.0664062, -9.9390249, -10.1829271, -1.2195122, -0.1037308
-1.0180664, 0.050293, -0.059082, -8.841464, -10.3048782, -1.2195122, -0.0847639
-1.0146484, 0.0678711, -0.0605469, -8.780488, -10.2439022, -1.5243902, -0.0780499
-1.0117188, 0.0698242, -0.0615234, -8.9024391, -9.8780489, -2.0731707, -0.0582437
-1.0063477, 0.0800781, -0.0629883, -9.8170738, -9.1463413, -3.1707318, -0.0377661
-1.0102539, 0.0795898, -0.0664062, -10.7317076, -8.9024391, -4.2682929, -0.0471656
-1.0043945, 0.0771484, -0.0649414, -11.7682934, -8.6585369, -5.2439027, -0.0303807
-1.0097656, 0.0649414, -0.0566406, -12.1341467, -8.719512, -5.7317076, -0.0209812
-1.0083008, 0.0600586, -0.0537109, -12.7439032, -8.3536587, -6.280488, -0.0243381
-1.0078125, 0.0488281, -0.0507812, -12.8048782, -8.2317076, -6.5853658, -0.0172885
-1.0063477, 0.0390625, -0.0493164, -12.8658543, -7.8048782, -6.8292685, 0.0070497
-1.0058594, 0.0341797, -0.0507812, -12.6219511, -7.3170733, -7.0121951, -0.008896
-1.0048828, 0.0297852, -0.0507812, -12.5, -6.7073174, -6.5243902, -0.0532082
-1.0043945, 0.019043, -0.0537109, -12.3170738, -6.2195125, -6.6463418, -0.0686503
-1.0058594, 0.012207, -0.0541992, -11.8292685, -5.4268293, -6.5243902, -0.0746929
-1.003418, 0.0029297, -0.0629883, -11.4024391, -4.6341462, -6.4024391, -0.0706645
-1.0043945, 0.0004883, -0.0615234, -10.8536587, -4.3292685, -6.1585369, -0.0807355
-1.0004883, -0.0131836, -0.0703125, -8.9634151, -3.2926829, -5.1219511, -0.0921492
-0.9995117, -0.0288086, -0.0737305, -7.8048782, -2.5, -4.5731707, -0.1119554
-0.9985352, -0.0449219, -0.0756836, -4.9390244, -1.6463414, -3.5975611, -0.1273976
-1.0024414, -0.0654297, -0.0756836, -3.2926829, -2.0121951, -3.4146342, -0.1384756
-1.0063477, -0.0620117, -0.0712891, 1.0365853, -2.804878, -2.4390244, -0.1782559
-1.0249023, -0.0488281, -0.0693359, 2.8658538, -3.7804878, -1.4634147, -0.1888304
-1.0356445, -0.0317383, -0.0668945, 5.4878049, -4.4512196, 1.402439, -0.1955444
-1.0336914, 0.012207, -0.0722656, 5.9146342, -4.5731707, 3.4146342, -0.2036011
-1.0288086, 0.0415039, -0.0786133, 6.0365853, -4.0243902, 6.1585369, -0.2089723
-1.0126953, 0.0859375, -0.0849609, 4.6951222, -2.6829269, 7.0731707, -0.1999084
-1.0078125, 0.1054688, -0.0859375, 3.5975611, -2.1341465, 6.8292685, -0.230457
-0.9970703, 0.1269531, -0.0742188, 1.2195122, -1.6463414, 4.8780489, -0.2598306
-0.9882812, 0.1347656, -0.0644531, 0.4268293, -1.2804878, 3.5975611, -0.2509346
-0.980957, 0.125, -0.0708008, -0.9146342, 0.3658537, 1.097561, -0.2569772
-0.9726562, 0.1000977, -0.0957031, -1.3414634, 1.097561, -0.3048781, -0.2606699
-0.9804688, 0.0766602, -0.1113281, -2.6219513, 2.6829269, -2.2560976, -0.2432136
-0.9985352, 0.0341797, -0.1196289, -3.1097562, 2.5609756, -2.6219513, -0.2170291
-1.0117188, 0.0112305, -0.1147461, -4.0853658, 1.5853659, -1.4634147, -0.2136721
-1.0244141, -0.0161133, -0.0820312, -3.7804878, 0.5487805, -0.1829268, -0.1935302
-1.0229492, -0.0229492, -0.0625, -1.1585366, -0.9146342, 2.6219513, -0.1713741
-1.0219727, -0.0244141, -0.0454102, 3.5365853, -1.5243902, 6.4024391, -0.1542535
-1.0180664, -0.0180664, -0.0512695, 5.8536587, -1.1585366, 7.8048782, -0.1404898
-1.0166016, 0.003418, -0.0654297, 9.2682924, -1.3414634, 10.6707315, -0.1032273
-1.019043, 0.0258789, -0.0664062, 10.7317076, -2.0121951, 11.7682934, -0.0861067
-1.0195312, 0.046875, -0.0556641, 13.3536587, -3.8414636, 13.7195129, -0.0881209
-1.0185547, 0.0825195, -0.0566406, 14.7560978, -4.7560978, 14.6341467, -0.061265
-1.0161133, 0.1108398, -0.0634766, 18.2926826, -3.9634147, 15.9756098, -0.0391089
-1.0224609, 0.1503906, -0.0727539, 19.5121956, -3.2317073, 16.3414631, -0.0139315
-1.027832, 0.1674805, -0.0756836, 21.4024391, -2.9878049, 16.8902435, -0.0104067
-1.0263672, 0.1865234, -0.0947266, 21.5853672, -3.3536587, 16.7682934, -0.0048676
-1.0209961, 0.1845703, -0.1088867, 20.7926826, -3.9024391, 15.1829271, -0.0001678
-1.0195312, 0.1630859, -0.1220703, 18.6585369, -4.1463413, 12.5, 0.017792
-1.0234375, 0.1459961, -0.1171875, 18.0487804, -4.6341462, 11.5243902, 0.0345769
-1.0288086, 0.1123047, -0.0976562, 17.5, -5.8536587, 10.7926836, 0.0105745
-1.0415039, 0.0952148, -0.0756836, 18.7195129, -7.3170733, 11.4634151, -0.0028534
-1.0463867, 0.097168, -0.0678711, 22.8658543, -10.6097565, 14.1463413, -0.0065461
-1.0561523, 0.1430664, -0.0844727, 25.7317085, -12.4390249, 16.8292694, -0.0005035
-1.0566406, 0.1787109, -0.1020508, 30.3658543, -16.4024391, 23.9024391, -0.0154421
-1.0546875, 0.2617188, -0.144043, 31.6463413, -17.9268303, 27.3780499, -0.0285344
-1.0473633, 0.293457, -0.1518555, 30.9146347, -22.7439022, 31.5243912, -0.06009
-1.0234375, 0.3208008, -0.1000977, 28.4146347, -26.9512196, 29.9390259, -0.0951705
-1.0097656, 0.3208008, -0.059082, 27.3780499, -28.1097565, 27.0731716, -0.1077592
-0.9916992, 0.2856445, 0.0288086, 25.5487804, -28.4146347, 19.3902435, -0.1190051
-0.9902344, 0.2431641, 0.081543, 25.1219521, -27.5, 15.4878054, -0.139147
-0.9990234, 0.2260742, 0.0942383, 25.1219521, -24.5121956, 11.4024391, -0.1592889
-1.019043, 0.2094727, 0.1035156, 25.7317085, -23.3536587, 12.1341467, -0.1673457
-1.0258789, 0.2080078, 0.1040039, 28.1707325, -21.8292694, 18.5975609, -0.2224002
-1.0249023, 0.2255859, 0.1269531, 30.1829281, -21.7073174, 22.8048782, -0.2418708
-1.0175781, 0.2397461, 0.1484375, 34.0243912, -21.5243912, 30.4878063, -0.2526131
-0.9770508, 0.2661133, 0.1777344, 35.8536606, -20.2439022, 33.1707306, -0.2563058
-0.9492188, 0.2666016, 0.1674805, 37.6829262, -15.3658543, 33.6585388, -0.2626841
-0.9277344, 0.2436523, 0.144043, 37.6829262, -10.9756098, 28.7195129, -0.246067
-0.9379883, 0.2319336, 0.1425781, 37.2560997, -10.3048782, 26.7073174, -0.2625162
-0.9775391, 0.2348633, 0.1352539, 38.6585388, -8.841464, 26.8292694, -0.2915541
-1.0117188, 0.2612305, 0.1132812, 39.9390259, -8.0487804, 29.2073174, -0.2935683
-1.012207, 0.2788086, 0.1000977, 41.7682953, -7.4390244, 36.4634171, -0.2928969
-1.0043945, 0.324707, 0.074707, 42.2560997, -7.0121951, 40.2439041, -0.2870222
-0.9936523, 0.3535156, 0.0620117, 42.3170738, -6.1585369, 46.0975609, -0.2834974
-0.9853516, 0.4042969, 0.0532227, 42.5609779, -6.1585369, 47.6829262, -0.2808118
-0.9824219, 0.4223633, 0.0541992, 42.1951218, -7.6829271, 47.6219521, -0.2499275
-0.9672852, 0.4472656, 0.0498047, 41.8902435, -8.1707315, 46.5853653, -0.2207218
-0.9663086, 0.4526367, 0.043457, 40.8536606, -7.2560978, 43.3536606, -0.1871519
-0.9750977, 0.4511719, 0.0273438, 40.2439041, -6.7682929, 40.6097565, -0.1955444
-0.9853516, 0.4472656, 0.0200195, 40.7926826, -6.9512196, 40, -0.1696956
-0.9941406, 0.4223633, 0.0205078, 43.3536606, -7.6829271, 40.2439041, -0.1418326
-1.0019531, 0.3955078, -0.0039062, 44.8780479, -8.5365858, 40.8536606, -0.1070878
-1.0117188, 0.3842773, -0.0083008, 46.8902435, -10.9756098, 41.5243912, -0.0753643
-1.0317383, 0.375, 0.0185547, 47.6829262, -12.7439032, 42.6219521, -0.0327306
-1.0351562, 0.3803711, 0.0405273, 48.2317085, -14.8170738, 46.8292694, -0.0149386
-1.0166016, 0.3950195, 0.0693359, 48.2926826, -14.5731707, 49.5731735, -0.0149386
-0.9980469, 0.4023438, 0.0703125, 48.841465, -13.0487804, 53.4146347, 0.0124208
-0.9628906, 0.4331055, 0.0512695, 49.5121956, -12.1341467, 54.6951218, 0.0407874
-0.9541016, 0.4599609, 0.043457, 50.9146347, -12.2560978, 57.2560997, 0.0619364
-0.940918, 0.503418, 0.046875, 51.5853653, -13.780488, 59.4512215, 0.0876173
-0.9296875, 0.5161133, 0.0512695, 51.4634171, -14.1463413, 59.5121956, 0.1129625
-0.918457, 0.5131836, 0.0541992, 50.6097565, -13.5365858, 57.68293, 0.1072557
-0.934082, 0.4921875, 0.0541992, 49.3902435, -13.1707315, 56.2804909, 0.1245441
-0.9511719, 0.4770508, 0.0566406, 47.5609779, -11.7682934, 54.1463432, 0.1307546
-0.9848633, 0.4331055, 0.0722656, 47.0121956, -11.280488, 53.841465, 0.1411612
-1.0029297, 0.4179688, 0.0712891, 49.2073174, -10.6707315, 56.1585388, 0.1475395
-1.0332031, 0.3994141, 0.0429688, 50.9756126, -10.1829271, 58.7195129, 0.1680171
-1.0415039, 0.4003906, 0.0263672, 54.1463432, -9.9390249, 64.5121994, 0.1420005
-1.050293, 0.3994141, 0.0126953, 55.5487823, -10.3048782, 67.5609741, 0.1030594
-1.0522461, 0.4038086, 0.0136719, 57.9878044, -11.4024391, 72.1951218, 0.0998703
-1.0532227, 0.4101562, 0.0078125, 61.5243912, -12.1341467, 75.9146347, 0.1038987
-1.059082, 0.4174805, 0.0024414, 62.6219521, -12.8048782, 77.2560959, 0.1211872
-1.0600586, 0.434082, -0.0258789, 65.7317123, -13.5365858, 80.3048782, 0.1131304
-1.0625, 0.4560547, -0.0449219, 66.6463394, -14.2682934, 81.9512177, 0.0990311
-1.0566406, 0.4643555, -0.0649414, 67.5, -15.3658543, 85.0609741, 0.0850996
-1.0664062, 0.4711914, -0.0483398, 67.7439041, -15.4878054, 86.0365906, 0.0844282
-1.0541992, 0.4677734, -0.0488281, 69.1463394, -16.9512196, 87.8658524, 0.0871138
-1.0439453, 0.4794922, -0.0830078, 70, -16.6463413, 88.5975647, 0.0518654
-1.0375977, 0.4897461, -0.1020508, 71.0365906, -17.3170738, 92.0121994, 0.0522011
-1.0537109, 0.5141602, -0.0605469, 71.7682953, -19.6341476, 93.7195129, 0.0575723
-1.0498047, 0.5288086, -0.0639648, 74.8170776, -22.7439022, 97.4390259, 0.0555581
-1.0512695, 0.5327148, -0.059082, 76.7682953, -21.1585369, 98.3536606, 0.0659648
-1.0595703, 0.5205078, -0.0380859, 77.9268341, -20.9756107, 97.6219559, 0.0884565
-1.0751953, 0.4975586, 0.0185547, 80.7926865, -20.3048782, 94.6341476, 0.0783856
-1.0820312, 0.4833984, 0.0297852, 82.5609741, -18.8414631, 94.2073212, 0.0797284
-1.0849609, 0.4863281, 0.0078125, 85.6707306, -14.2073174, 95.4268341, 0.0995346
-1.0874023, 0.4882812, -0.0361328, 86.5243912, -12.7439032, 97.5609741, 0.1223621
-1.0805664, 0.4892578, -0.0429688, 88.1097565, -12.4390249, 102.2561035, 0.1488823
-1.0678711, 0.5014648, -0.0380859, 88.7804871, -12.6829271, 103.9634171, 0.191516
-1.0673828, 0.5058594, -0.0322266, 91.646347, -12.0731707, 106.4634171, 0.2475776
-1.0698242, 0.5283203, -0.0390625, 93.2926865, -11.280488, 107.0121994, 0.2489204
-1.078125, 0.5385742, -0.0439453, 95.6097565, -9.6341467, 107.3780518, 0.2729229
-1.0922852, 0.5380859, -0.0673828, 96.2804871, -7.5609756, 106.5243912, 0.3147173
-1.1025391, 0.5292969, -0.0712891, 96.1585388, -5.9756098, 105.18293, 0.3489586
-1.1254883, 0.4902344, -0.0942383, 97.2561035, -3.5365853, 104.0243912, 0.3959564
-1.1621094, 0.4462891, -0.1396484, 98.4146347, -2.2560976, 104.8780518, 0.4510109
-1.1855469, 0.4272461, -0.1665039, 101.7682953, -1.2804878, 107.8658524, 0.4808881
-1.2265625, 0.4101562, -0.1899414, 103.4756088, -1.402439, 110.3048782, 0.4933089
-1.2363281, 0.4145508, -0.1845703, 107.3170776, -3.3536587, 117.0121994, 0.5184863
-1.2382812, 0.4355469, -0.1943359, 108.7195129, -3.4146342, 120.7317123, 0.5429923
-1.2275391, 0.4545898, -0.203125, 111.646347, -1.4634147, 126.646347, 0.5782406
-1.2104492, 0.4814453, -0.2138672, 113.1707306, -0.7317073, 128.7804871, 0.5903258
-1.2011719, 0.4936523, -0.2202148, 114.6341476, -0.7926829, 130.3048859, 0.600061
-1.1704102, 0.4907227, -0.25, 115.9146347, 0.9146342, 129.6341553, 0.6228885
-1.1679688, 0.4814453, -0.2719727, 116.7073212, 1.8902439, 129.3292694, 0.6537728
-1.1923828, 0.472168, -0.2871094, 117.9878082, 1.2804878, 129.7561035, 0.6672007
-1.2055664, 0.4638672, -0.2421875, 119.146347, -0.0609756, 131.3414612, 0.6443732
-1.1977539, 0.465332, -0.2246094, 121.3414688, -0.1219512, 135.9146423, 0.6578012
-1.1806641, 0.4716797, -0.2045898, 122.9878082, 1.8902439, 138.2926788, 0.6708934
-1.1606445, 0.4677734, -0.262207, 124.6341476, 5.9146342, 141.1585388, 0.659144
-1.1621094, 0.4545898, -0.2797852, 124.4512253, 7.7439027, 141.5243988, 0.6443732
-1.1821289, 0.4619141, -0.234375, 126.646347, 4.1463413, 143.1097565, 0.6571298
-1.1694336, 0.4921875, -0.1679688, 129.3902435, 3.1097562, 144.8780518, 0.6336309
-1.1362305, 0.4956055, -0.1938477, 132.5609741, 8.2926826, 147.0731812, 0.6024109
-1.1030273, 0.4858398, -0.2788086, 132.0731812, 14.9390249, 145.3048859, 0.603418
-1.1289062, 0.4838867, -0.284668, 132.0121918, 14.3902445, 144.8170776, 0.5846189
-1.1538086, 0.4951172, -0.3056641, 133.1707306, 10.7926836, 147.1341553, 0.5537346
-1.1533203, 0.5107422, -0.3178711, 133.8414612, 10.9146347, 149.0243988, 0.5481956
-1.1611328, 0.5185547, -0.3085938, 135.7926788, 12.3170738, 152.7439117, 0.5376211
-1.1635742, 0.5341797, -0.3071289, 137.2561035, 12.9878054, 154.146347, 0.4899519
-1.1586914, 0.534668, -0.3022461, 138.6585388, 14.0853662, 153.9024353, 0.4778668
-1.1538086, 0.5239258, -0.2802734, 138.4146423, 14.5731707, 152.5609741, 0.4802167
-1.1455078, 0.5229492, -0.269043, 138.2926788, 17.0731716, 149.6341553, 0.4770275
-1.1352539, 0.5161133, -0.2885742, 138.5975647, 19.2073174, 148.8414612, 0.4745098
-1.1303711, 0.5136719, -0.3149414, 139.9390259, 23.8414631, 149.3902435, 0.4694743
-1.1230469, 0.5180664, -0.3569336, 141.0365906, 25.060976, 153.2317047, 0.4382544
-1.1132812, 0.5244141, -0.3676758, 141.0975647, 24.8170738, 155.36586, 0.4046845
-1.0976562, 0.5229492, -0.3583984, 142.4390259, 25.1219521, 158.1097565, 0.424155
-1.1054688, 0.5209961, -0.3500977, 143.9634247, 25.8536587, 158.4756165, 0.4137484
-1.1166992, 0.5229492, -0.3544922, 146.7073212, 27.6829281, 157.7439117, 0.4174411
-1.1352539, 0.5180664, -0.3901367, 147.86586, 28.9024391, 157.2561035, 0.4218051
-1.1455078, 0.512207, -0.4038086, 148.5975647, 31.4024391, 157.0121918, 0.4328832
-1.1625977, 0.5078125, -0.4228516, 148.6585388, 32.0121956, 157.6829376, 0.4523537
-1.1704102, 0.5131836, -0.4262695, 149.146347, 32.2560997, 160.2439117, 0.4667887
-1.1533203, 0.5292969, -0.4150391, 150.0609741, 32.9878044, 162.1951294, 0.4865949
-1.1411133, 0.5332031, -0.3979492, 151.7073212, 34.1463432, 165.1219482, 0.4738384
-1.1171875, 0.5410156, -0.3515625, 153.8414612, 36.0365868, 165.4268341, 0.4748455
-1.1079102, 0.5410156, -0.3466797, 154.8170776, 37.4390259, 164.9390259, 0.5107652
-1.090332, 0.5332031, -0.402832, 155.8536682, 42.4390259, 163.3536682, 0.5268788
-1.1049805, 0.512207, -0.4453125, 156.3414612, 44.5121956, 162.6829376, 0.5460136
-1.1274414, 0.5126953, -0.4462891, 157.5, 44.2073174, 163.1707306, 0.5718624
-1.1259766, 0.5307617, -0.434082, 158.1707306, 43.2926826, 164.6951294, 0.56112
-1.1147461, 0.546875, -0.4130859, 158.8414612, 44.2073174, 168.7195129, 0.5490349
-1.0664062, 0.5849609, -0.4086914, 158.9024353, 46.4024391, 170, 0.557763
-1.0400391, 0.5976562, -0.4272461, 158.3536682, 50.7926826, 170.7317047, 0.5520562
-1.0175781, 0.6191406, -0.4692383, 157.1341553, 52.2560997, 170.1829376, 0.5475242
-1.0151367, 0.6225586, -0.4755859, 155.5487823, 53.4146347, 167.6219482, 0.5580987
-1.0180664, 0.6293945, -0.4692383, 155.4268341, 53.6585388, 166.0365906, 0.5624628
-1.0244141, 0.6206055, -0.4633789, 155.6707306, 54.3292694, 165.4878082, 0.5147936
-1.0380859, 0.6079102, -0.4404297, 155.7926941, 56.1585388, 163.6585388, 0.4990158
-1.043457, 0.59375, -0.4472656, 155.9146423, 57.2560997, 163.2317047, 0.4872663
-1.0444336, 0.5825195, -0.456543, 155.4878082, 61.2804909, 162.1951294, 0.4637675
-1.0556641, 0.5527344, -0.4697266, 155.2439117, 63.2317085, 161.7073212, 0.4288548
-1.0581055, 0.5556641, -0.4658203, 156.5243988, 64.5121994, 162.5609741, 0.3979706
-1.0463867, 0.5742188, -0.4770508, 157.2561035, 65, 163.7804871, 0.3419089
-1.0244141, 0.5854492, -0.4887695, 158.4146423, 68.4146347, 167.0121918, 0.2885328
-0.9824219, 0.5917969, -0.5097656, 157.86586, 71.7073212, 167.86586, 0.2670481
-0.9667969, 0.5932617, -0.5229492, 157.5, 72.8048782, 167.3780518, 0.2395209
-0.9511719, 0.5961914, -0.5273438, 157.0121918, 74.1463394, 166.0365906, 0.2072938
-0.9453125, 0.6040039, -0.515625, 157.3780518, 74.5731735, 165.9756165, 0.1529107
-0.934082, 0.6025391, -0.5263672, 156.8902435, 75.3048782, 164.8170776, 0.1166552
-0.9301758, 0.5878906, -0.5209961, 156.3414612, 76.7073212, 164.3292694, 0.0803998
-0.9316406, 0.5844727, -0.5068359, 156.9512177, 80.7317123, 164.8780518, 0.0518654
-0.9155273, 0.5864258, -0.5063477, 157.9268341, 81.9512177, 165.6097565, 0.0344091
-0.8989258, 0.5800781, -0.5185547, 159.3292694, 84.8170776, 166.7073212, -0.0152743
-0.8798828, 0.590332, -0.5527344, 159.6341553, 86.5243912, 167.2561035, -0.030045
-0.8759766, 0.5996094, -0.5571289, 160.0609741, 88.7804871, 168.7195129, -0.0515297
-0.8681641, 0.6313477, -0.5698242, 160.36586, 90.1219559, 170.36586, -0.082414
-0.8637695, 0.6508789, -0.5834961, 160, 90.7926865, 171.1585388, -0.1089342
-0.8442383, 0.6826172, -0.6074219, 159.0853729, 92.8048782, 171.5853729, -0.10692
-0.8271484, 0.6826172, -0.6201172, 158.5365906, 93.7195129, 171.2804871, -0.1297475
-0.8198242, 0.6723633, -0.6152344, 157.1341553, 95.6707306, 168.5975647, -0.1639887
-0.8027344, 0.6323242, -0.581543, 156.5853729, 95.7926865, 166.4634247, -0.1606317
-0.7958984, 0.612793, -0.5600586, 156.2195129, 97.1951218, 163.2317047, -0.1576104
-0.7875977, 0.6069336, -0.5463867, 156.1585388, 98.7804871, 162.6829376, -0.1545892
-0.7788086, 0.6079102, -0.5664062, 156.0365906, 103.2926865, 165.0609741, -0.1344472
-0.7563477, 0.6186523, -0.5966797, 155.7317047, 105.3658524, 167.0731812, -0.1223621
-0.7475586, 0.6279297, -0.5888672, 155.4268341, 107.3170776, 170.1219482, -0.1606317
-0.7216797, 0.6567383, -0.5527344, 155.9756165, 108.5975647, 170.6707306, -0.160296
-0.7089844, 0.6777344, -0.5356445, 156.2195129, 110.0609818, 169.7561035, -0.1508965
-0.6757812, 0.7060547, -0.5517578, 153.9024353, 115.1219559, 167.5609741, -0.1351186
-0.6533203, 0.7084961, -0.6010742, 152.0121918, 117.68293, 166.0975647, -0.1230335
-0.6577148, 0.7016602, -0.609375, 148.6585388, 121.0365906, 163.7195129, -0.0955062
-0.6518555, 0.7021484, -0.6337891, 147.3780518, 121.5243912, 163.5365906, -0.1005417
-0.6518555, 0.6992188, -0.6728516, 146.4024353, 123.3536606, 163.7804871, -0.1203479
-0.6728516, 0.6879883, -0.7368164, 145.7926788, 124.8780518, 163.8414612, -0.1106126
-0.6992188, 0.6889648, -0.7387695, 145.5487823, 124.6341476, 164.146347, -0.1065843
-0.7255859, 0.7050781, -0.6972656, 145.4878082, 122.86586, 164.5731812, -0.1164874
-0.715332, 0.7226562, -0.671875, 144.8780518, 121.4634171, 164.5731812, -0.1257191
-0.6860352, 0.7675781, -0.6728516, 142.0121918, 124.7561035, 163.3536682, -0.1272297
-0.6723633, 0.7895508, -0.6967773, 139.5121918, 126.7073212, 162.8048859, -0.1287404
-0.6376953, 0.8071289, -0.7250977, 135.0609741, 128.4146423, 161.7682953, -0.1331044
-0.5952148, 0.784668, -0.7182617, 133.4756165, 127.9878082, 160.9756165, -0.1384756
-0.5727539, 0.7636719, -0.7270508, 130.9146423, 127.3170776, 157.86586, -0.1851377
-0.5698242, 0.7246094, -0.7143555, 129.7561035, 127.6219559, 156.2804871, -0.2015869
-0.5874023, 0.7182617, -0.6762695, 128.4756165, 126.4634171, 154.6341553, -0.2250858
-0.6030273, 0.7348633, -0.637207, 128.9024353, 126.646347, 155.0609741, -0.2683909
-0.5996094, 0.7573242, -0.6469727, 128.1097565, 129.5731812, 156.8292694, -0.2949111
-0.5703125, 0.7817383, -0.6928711, 126.8292694, 131.7682953, 158.1097565, -0.3080034
-0.5507812, 0.7841797, -0.7070312, 122.8048782, 134.6341553, 157.9268341, -0.3439231
-0.5375977, 0.7817383, -0.6962891, 119.146347, 134.2682953, 155.7317047, -0.3791714
-0.5244141, 0.7822266, -0.6787109, 117.68293, 134.8780518, 154.0853729, -0.4110628
-0.5117188, 0.784668, -0.652832, 114.6951218, 136.3414612, 152.1951294, -0.4459754
-0.4926758, 0.7924805, -0.640625, 112.86586, 137.9268341, 151.0975647, -0.4735027
-0.4755859, 0.784668, -0.6342773, 109.0243912, 140.7317047, 149.6951294, -0.5033799
-0.4345703, 0.7421875, -0.6523438, 108.0487823, 141.8292694, 148.2317047, -0.5151293
-0.421875, 0.7226562, -0.6811523, 105.4878082, 143.9634247, 145.0609741, -0.5580987
-0.4575195, 0.7270508, -0.7407227, 104.3292694, 144.6951294, 144.3902435, -0.5802548
-0.4707031, 0.746582, -0.7670898, 102.2561035, 143.2926788, 147.0121918, -0.6010681
-0.4829102, 0.8071289, -0.7607422, 101.0365906, 142.2561035, 148.2926788, -0.6161746
-0.4716797, 0.8354492, -0.7446289, 97.5609741, 140.3048859, 148.4146423, -0.6332952
-0.4233398, 0.8525391, -0.7646484, 92.9878082, 139.8780518, 143.1707306, -0.6343023
-0.4072266, 0.8496094, -0.800293, 90.1219559, 139.8780518, 140.36586, -0.6519265
-0.4003906, 0.8334961, -0.8789062, 85.3048782, 136.8292694, 137.4390259, -0.6722362
-0.3950195, 0.7885742, -0.9462891, 83.3536606, 134.0243988, 137.2561035, -0.676936
-0.4008789, 0.7641602, -0.9814453, 80.9756088, 127.9268341, 136.4634247, -0.6692149
-0.4716797, 0.7426758, -1.0004883, 80.2439041, 123.9634171, 136.2804871, -0.6505837
-0.4941406, 0.7265625, -0.9863281, 79.4512177, 114.7561035, 135.4878082, -0.6272526
-0.5351562, 0.7197266, -0.9204102, 79.8780518, 111.4634171, 134.146347, -0.6057679
-0.5356445, 0.7167969, -0.8925781, 80.2439041, 106.4634171, 132.3170776, -0.5920043
-0.5004883, 0.7250977, -0.8608398, 79.5731735, 105.18293, 131.5243988, -0.5634699
-0.4614258, 0.7265625, -0.8476562, 76.8902435, 104.8170776, 131.646347, -0.5450065
-0.3710938, 0.7387695, -0.8286133, 75, 104.3902435, 131.9512177, -0.5535668
-0.3305664, 0.75, -0.8149414, 74.2073212, 104.5731735, 132.0731812, -0.5312428
-0.2519531, 0.7807617, -0.8100586, 72.8048782, 105.3658524, 129.0853729, -0.4978408
-0.2275391, 0.8110352, -0.828125, 71.4634171, 105.9756088, 126.4024429, -0.4849165
-0.2250977, 0.8198242, -0.8378906, 68.8414688, 107.3170776, 121.0365906, -0.4607462
-0.253418, 0.8193359, -0.8286133, 67.68293, 107.68293, 117.9268341, -0.430869
-0.2788086, 0.8154297, -0.8300781, 64.7560959, 109.0853653, 112.9878082, -0.4355688
-0.2973633, 0.7890625, -0.8256836, 62.7439041, 110.18293, 110.6097565, -0.4412757
-0.3129883, 0.7773438, -0.8071289, 59.6951218, 112.68293, 105.3658524, -0.4194553
-0.328125, 0.7617188, -0.8046875, 58.1707344, 114.5121994, 103.7195129, -0.4110628
-0.3188477, 0.7558594, -0.8208008, 56.341465, 119.3902435, 101.4634171, -0.4013275
-0.3012695, 0.7285156, -0.8706055, 54.5731735, 123.2317123, 99.5731735, -0.3875639
-0.2963867, 0.7075195, -0.890625, 53.6585388, 123.6585388, 98.2926865, -0.3798428
-0.3110352, 0.6713867, -0.9135742, 51.341465, 123.4756088, 95.5487823, -0.3976349
-0.3481445, 0.6357422, -0.9018555, 50.3048782, 123.3536606, 94.8170776, -0.3983062
-0.3662109, 0.6240234, -0.8759766, 49.2682953, 122.6219559, 93.4146347, -0.4046845
-0.387207, 0.6074219, -0.8691406, 49.3292694, 122.9878082, 93.1707306, -0.4218051
-0.4003906, 0.6113281, -0.8955078, 49.0853653, 125.4878082, 93.9634171, -0.4412757
-0.4082031, 0.6245117, -0.9570312, 48.4756126, 126.1585388, 95.1219559, -0.4385901
-0.4023438, 0.6235352, -0.987793, 46.341465, 124.2682953, 97.9268341, -0.4674601
-0.3911133, 0.6083984, -1.0151367, 45.0609779, 122.6219559, 98.9024429, -0.4919661
-0.3959961, 0.6054688, -1.0029297, 42.6829262, 117.86586, 98.5365906, -0.4857557
-0.4106445, 0.5996094, -0.9394531, 41.9512215, 114.5731735, 97.9268341, -0.5040513
-0.4018555, 0.6025391, -0.9082031, 41.341465, 113.5365906, 97.7439041, -0.5292287
-0.3442383, 0.6040039, -0.8862305, 38.5365868, 115.0609818, 98.4756088, -0.5460136
-0.2661133, 0.5683594, -0.9204102, 37.1951218, 116.8902435, 99.2073212, -0.5614557
-0.2431641, 0.5463867, -0.9438477, 36.2804871, 118.2926865, 100.18293, -0.5705196
-0.2387695, 0.5224609, -0.9501953, 36.7682953, 117.3780518, 100.7317123, -0.5602808
-0.2504883, 0.5263672, -0.9355469, 37.4390259, 114.2073212, 101.0975647, -0.550042
-0.2705078, 0.5615234, -0.8847656, 37.8048782, 113.5975647, 101.2804871, -0.5715267
-0.2709961, 0.5786133, -0.8632812, 37.2560997, 115.6097565, 101.0365906, -0.5721981
-0.2397461, 0.5981445, -0.8803711, 36.341465, 117.1951218, 100.8536606, -0.5728695
-0.2124023, 0.5947266, -0.8867188, 32.5609779, 120.8536606, 100.6707306, -0.5758907
-0.1552734, 0.5678711, -0.8588867, 29.5121956, 122.1951218, 99.6951218, -0.5664912
-0.1259766, 0.5673828, -0.8457031, 29.2073174, 123.3536606, 99.146347, -0.5439994
-0.0839844, 0.5698242, -0.8598633, 29.2682934, 127.7439041, 97.1951218, -0.5493706
-0.0839844, 0.5756836, -0.9345703, 29.2682934, 129.8780518, 96.7682953, -0.5520562
-0.1000977, 0.5737305, -0.9516602, 27.9268303, 131.1585388, 95.9146347, -0.5168078
-0.1264648, 0.5458984, -0.9370117, 26.5853672, 130.4878082, 95.1219559, -0.4782025
-0.1381836, 0.5385742, -0.925293, 24.3902435, 130.36586, 93.2926865, -0.4387579
-0.1508789, 0.5185547, -0.9091797, 23.7195129, 132.0731812, 92.5, -0.4016632
-0.1533203, 0.5180664, -0.9213867, 22.6829281, 135.8536682, 92.2561035, -0.3675898
-0.1430664, 0.5219727, -0.9931641, 22.1341476, 137.3780518, 92.5, -0.3650721
-0.1435547, 0.5253906, -1.0283203, 20.6097565, 138.4756165, 94.2682953, -0.3308309
-0.1357422, 0.5449219, -1.0400391, 18.5365849, 136.2804871, 95.6707306, -0.2892042
-0.1313477, 0.5371094, -1.0175781, 18.0487804, 135.4878082, 95, -0.2566415
-0.1176758, 0.5161133, -0.9560547, 17.8658543, 136.5243988, 91.7073212, -0.2264286
-0.1074219, 0.4873047, -0.9560547, 17.6829281, 137.9878082, 89.9390259, -0.1764096
-0.1044922, 0.4770508, -0.9677734, 17.0121956, 140.6097565, 89.6951218, -0.1623102
-0.0854492, 0.4799805, -0.9824219, 16.7073174, 141.3414612, 90.6097565, -0.1656672
-0.0620117, 0.4897461, -0.9838867, 16.0975609, 141.7682953, 93.4146347, -0.1373007
-0.0195312, 0.5117188, -0.9960938, 15.6707325, 142.2561035, 94.146347, -0.1190051
-0.0058594, 0.5117188, -1.003418, 14.3292685, 143.9634247, 92.7439041, -0.0834211
-0.0170898, 0.5004883, -1.0058594, 13.9024391, 144.146347, 91.1585388, -0.061265
-0.0292969, 0.4956055, -0.9960938, 12.6829271, 144.6341553, 89.0243912, -0.043473
-0.0366211, 0.4873047, -0.9672852, 11.7682934, 145.6707306, 88.8414688, -0.0276951
-0.0263672, 0.4799805, -0.9541016, 11.0365858, 146.8902435, 89.146347, -0.0072175
0.0151367, 0.4599609, -0.9589844, 9.3902445, 150.0609741, 89.3902435, 0.0102388
0.0458984, 0.4394531, -0.9868164, 8.780488, 151.2804871, 89.6341476, -0.0092317
0.0517578, 0.4379883, -1.0014648, 8.3536587, 152.1341553, 90.0609741, -0.0105745
0.0429688, 0.4345703, -1.0390625, 8.2317076, 152.0731812, 90.4268341, -0.0176242
0.0302734, 0.4306641, -1.0595703, 7.3170733, 151.5853729, 89.8170776, -0.0224918
-0.0102539, 0.4311523, -1.0786133, 6.8292685, 150.9756165, 90.1219559, -0.0203098
-0.0327148, 0.4389648, -1.0771484, 5.3658538, 149.0243988, 91.4024429, -0.0115816
-0.043457, 0.4487305, -1.0849609, 4.5121951, 148.3536682, 92.1341476, -0.0146029
-0.0375977, 0.4462891, -1.0786133, 2.195122, 147.6219482, 94.5121994, -0.0493477
0.0014648, 0.4443359, -1.0175781, 0.3658537, 145.7926788, 95.4878082, -0.0528725
0.0664062, 0.4458008, -0.9941406, -0.4268293, 146.3414612, 95.2439041, -0.054551
0.0893555, 0.4472656, -1.0097656, -1.8292683, 149.5121918, 95.4268341, -0.0522011
0.1157227, 0.4643555, -1.0390625, -2.5609756, 150.7926788, 95.9756088, -0.0424659
0.1171875, 0.4624023, -1.0214844, -4.5121951, 149.6951294, 96.7682953, -0.0337377
0.1328125, 0.4287109, -0.9609375, -4.8780489, 148.3536682, 96.4634171, -0.0652934
0.125, 0.4116211, -0.9311523, -4.6341462, 149.7561035, 93.2317123, -0.0652934
0.0893555, 0.4052734, -0.9150391, -3.9024391, 151.7682953, 92.8658524, -0.0552224
0.0834961, 0.4150391, -0.925293, -2.6829269, 154.8780518, 95.4268341, -0.0506905
0.1035156, 0.4511719, -0.9487305, -3.2317073, 156.5243988, 99.0243912, -0.033402
0.1347656, 0.4443359, -0.965332, -5, 157.2561035, 98.9024429, -0.0003357
0.1416016, 0.4404297, -0.9868164, -6.6463418, 157.7439117, 97.1341476, -0.0008392
0.1044922, 0.4516602, -0.9731445, -6.890244, 157.5, 96.5243912, -0.0062104
0.0996094, 0.4526367, -0.9609375, -7.6219516, 155.8536682, 96.8292694, 0.0273594
0.1152344, 0.4267578, -0.9560547, -8.5365858, 155.7926941, 96.7682953, 0.0616007
0.1113281, 0.4091797, -0.9511719, -11.5853662, 156.2804871, 96.7682953, 0.1072557
0.1176758, 0.4013672, -0.9472656, -12.3170738, 156.0365906, 97.3170776, 0.1324331
0.1298828, 0.4047852, -0.9472656, -11.8292685, 154.9390259, 100.0609818, 0.1542535
0.1572266, 0.4047852, -0.9501953, -11.7682934, 154.146347, 101.0975647, 0.1743954
0.1591797, 0.4047852, -0.9477539, -12.8658543, 153.1097565, 101.4024429, 0.205951
0.1538086, 0.409668, -0.9130859, -14.2073174, 152.0731812, 100.9756088, 0.2608377
0.1503906, 0.409668, -0.8935547, -14.3902445, 151.9512177, 101.0365906, 0.276112
0.1728516, 0.4091797, -0.8613281, -13.780488, 152.4390259, 102.0121994, 0.3019608
0.2070312, 0.3916016, -0.8598633, -13.5365858, 153.1707306, 102.6219559, 0.3355306
0.2231445, 0.3833008, -0.8618164, -13.4146347, 154.0243988, 103.2926865, 0.3638972
0.246582, 0.3886719, -0.8710938, -13.7195129, 154.0853729, 104.0853653, 0.388571
0.2490234, 0.402832, -0.871582, -14.2682934, 154.146347, 105.9146347, 0.4194553
0.2509766, 0.4262695, -0.8608398, -14.6341467, 154.2682953, 106.4024429, 0.4281834
0.2524414, 0.4311523, -0.8569336, -15.7317076, 154.3292694, 105.4268341, 0.4359045
0.2495117, 0.4277344, -0.8666992, -16.7073174, 154.146347, 105, 0.458732
0.2519531, 0.4223633, -0.8662109, -19.1463413, 154.0853729, 105.0609818, 0.4738384
0.2744141, 0.394043, -0.8320312, -20.3048782, 153.7804871, 106.3414688, 0.4778668
0.2954102, 0.3774414, -0.8173828, -20.060976, 153.7804871, 106.5243912, 0.4980087
0.3071289, 0.3520508, -0.8144531, -18.5975609, 155, 106.1585388, 0.5181506
0.2734375, 0.3579102, -0.8500977, -17.6219521, 154.9390259, 106.2195129, 0.4919661
0.2431641, 0.3730469, -0.8701172, -17.1341476, 154.0243988, 107.6219559, 0.4865949
0.2041016, 0.3964844, -0.871582, -17.560976, 153.3536682, 108.6585388, 0.4745098
0.1928711, 0.4047852, -0.8666992, -18.1097565, 151.7682953, 110.36586, 0.4657816
0.2036133, 0.3950195, -0.8598633, -18.3536587, 151.0975647, 110.5487823, 0.460914
0.2050781, 0.3789062, -0.84375, -18.9634151, 149.6341553, 109.6341476, 0.4624247
0.2158203, 0.3554688, -0.7949219, -18.8414631, 148.2926788, 109.3292694, 0.448661
0.2285156, 0.3408203, -0.7705078, -17.6829281, 146.8902435, 109.3902435, 0.4194553
0.2456055, 0.3334961, -0.7299805, -16.2195129, 147.6219482, 109.3902435, 0.3925994
0.2509766, 0.3408203, -0.7124023, -15.7317076, 148.2926788, 109.4512253, 0.3771572
0.2670898, 0.3720703, -0.7016602, -15.060976, 149.6951294, 110.0609818, 0.3711147
0.2910156, 0.3837891, -0.7114258, -14.6951227, 150.1219482, 109.8170776, 0.3482872
0.3022461, 0.3764648, -0.7236328, -15.6097565, 149.4512177, 108.7195129, 0.3356985
0.3125, 0.3520508, -0.7211914, -16.7073174, 148.7804871, 107.7439041, 0.3274739
0.3095703, 0.3393555, -0.6962891, -19.2073174, 147.0121918, 105.0609818, 0.3281453
0.2949219, 0.3276367, -0.6660156, -19.5121956, 146.5243988, 104.2073212, 0.3321736
0.284668, 0.3310547, -0.6674805, -19.4512196, 146.8902435, 103.7804871, 0.2952468
0.2685547, 0.3632812, -0.6669922, -19.2682934, 147.3170776, 103.9024429, 0.2870222
0.2807617, 0.3730469, -0.6728516, -20.9756107, 146.5243988, 104.8780518, 0.2851759
0.3120117, 0.3579102, -0.6762695, -22.560976, 145.7317047, 103.3536606, 0.286183
0.3242188, 0.3505859, -0.6665039, -23.1707325, 145.5487823, 101.8292694, 0.2868544
0.3500977, 0.3251953, -0.605957, -24.5731716, 143.7195129, 99.6951218, 0.2979324
0.3959961, 0.284668, -0.5078125, -25.1219521, 144.0243988, 98.7195129, 0.2932326
0.4243164, 0.2573242, -0.4824219, -25.060976, 146.2195129, 95.6097565, 0.2851759
0.4423828, 0.2290039, -0.5131836, -24.2073174, 148.5365906, 93.9024429, 0.3147173
0.4208984, 0.2397461, -0.5517578, -22.0121956, 152.7439117, 94.7561035, 0.3281453
0.3798828, 0.2978516, -0.6103516, -20.9146347, 153.5975647, 96.646347, 0.3385519
0.3681641, 0.3188477, -0.6083984, -22.560976, 153.7195129, 98.2317123, 0.3526513
0.3540039, 0.315918, -0.5517578, -23.7195129, 152.0731812, 97.2561035, 0.3764858
0.3603516, 0.2939453, -0.5317383, -24.7560978, 149.6951294, 93.4756088, 0.3825284
0.3608398, 0.2495117, -0.5361328, -24.2682934, 151.1585388, 89.9390259, 0.3925994
0.3549805, 0.2353516, -0.5537109, -23.4756107, 151.1585388, 89.9390259, 0.4100557
0.3378906, 0.2382812, -0.5717773, -22.6829281, 149.2073212, 92.4390259, 0.415259
0.3466797, 0.269043, -0.5766602, -22.6219521, 148.3536682, 94.2682953, 0.4335546
0.3564453, 0.28125, -0.5791016, -22.7439022, 146.8902435, 95.8536606, 0.4627604
0.3564453, 0.2954102, -0.6137695, -23.2926826, 145.9756165, 95.1219559, 0.4442969
0.340332, 0.3041992, -0.6542969, -24.9390259, 141.8292694, 92.1341476, 0.4157626
0.2856445, 0.3369141, -0.7001953, -26.5853672, 138.5365906, 90.6707306, 0.4265049
0.262207, 0.3549805, -0.6699219, -29.8170738, 130.7926788, 90.6097565, 0.4355688
0.2583008, 0.3608398, -0.4746094, -30.9146347, 126.4024429, 90, 0.4416114
0.2949219, 0.3530273, -0.3510742, -32.3170738, 121.3414688, 85.9146347, 0.4174411
0.4057617, 0.2861328, -0.2099609, -33.3536606, 126.2804871, 79.2073212, 0.391928
0.4638672, 0.2382812, -0.1865234, -33.2926826, 130.7317047, 76.4024429, 0.3905852
0.5380859, 0.1557617, -0.2128906, -32.3170738, 136.2195129, 76.0365906, 0.4013275
0.5952148, 0.1220703, -0.3076172, -31.1585369, 136.7073212, 78.3536606, 0.3929351
0.6064453, 0.1313477, -0.3486328, -29.1463413, 135.7926788, 83.9634171, 0.3241169
0.5698242, 0.2006836, -0.3686523, -28.7195129, 134.0853729, 86.0975647, 0.2888685
0.5356445, 0.2490234, -0.3481445, -28.841465, 129.8780518, 85.7317123, 0.2707408
0.4731445, 0.3208008, -0.2944336, -29.6951218, 128.7195129, 84.0853653, 0.2576486
0.4521484, 0.3291016, -0.2827148, -31.0365868, 129.4512177, 77.68293, 0.2307927
0.4306641, 0.2817383, -0.315918, -31.9512196, 130.1829224, 74.8780518, 0.199237
0.4287109, 0.2460938, -0.3452148, -34.2073174, 130.9756165, 72.0121994, 0.1562676
0.4321289, 0.1757812, -0.3945312, -36.6463432, 128.8414612, 73.3536606, 0.1038987
0.4389648, 0.1538086, -0.4023438, -37.1341476, 126.9512253, 75, 0.0704967
0.4472656, 0.1333008, -0.3842773, -35.6707344, 122.4390259, 77.4390259, 0.0468299
0.456543, 0.1533203, -0.3291016, -34.1463432, 120.18293, 78.1707306, 0.0307164
0.4682617, 0.1635742, -0.296875, -32.1951218, 118.1097565, 76.9512177, 0.0221561
0.4926758, 0.1625977, -0.2568359, -30.8536587, 118.1707382, 75.7926865, 0.0031891
0.5009766, 0.1494141, -0.265625, -27.1951218, 118.9024429, 73.3536606, -0.0426337
0.4916992, 0.1459961, -0.331543, -25.6707325, 118.8414688, 72.5, -0.0686503
0.4746094, 0.15625, -0.3608398, -23.5365868, 117.5, 73.9024429, -0.0854353
0.4555664, 0.171875, -0.4042969, -23.6585369, 115.7926865, 75.7317123, -0.1028916
0.449707, 0.1694336, -0.4321289, -23.0487804, 111.4634171, 77.1341476, -0.1186694
0.4262695, 0.1625977, -0.4624023, -21.9512196, 105.3048782, 75.9146347, -0.1151446
0.4047852, 0.1669922, -0.4550781, -21.7073174, 101.5853653, 75, -0.1304189
0.3818359, 0.1894531, -0.4179688, -22.6829281, 94.8780518, 73.7195129, -0.1606317
0.394043, 0.1904297, -0.4038086, -23.2926826, 92.68293, 73.5365906, -0.1441825
0.4057617, 0.1855469, -0.4130859, -23.5975609, 89.9390259, 73.1707306, -0.1292439
0.4208984, 0.1787109, -0.4067383, -23.780489, 88.1097565, 73.6585388, -0.1232013
0.4355469, 0.1689453, -0.3833008, -24.5121956, 82.5, 73.9634171, -0.1326009
0.4848633, 0.125, -0.3164062, -24.8780499, 79.4512177, 73.8414688, -0.1465324
0.5053711, 0.0976562, -0.2958984, -24.3902435, 75.2439041, 70.7317123, -0.1317617
0.5107422, 0.0834961, -0.2919922, -24.2682934, 74.6951218, 69.2682953, -0.1030594
0.4980469, 0.0927734, -0.2749023, -22.560976, 72.6219559, 69.7560959, -0.0807355
0.5161133, 0.1240234, -0.2133789, -19.8170738, 68.2317123, 73.4756088, -0.0958419
0.5493164, 0.1308594, -0.1694336, -19.2682934, 67.5, 73.5365906, -0.0941634
0.6108398, 0.1289062, -0.0810547, -19.2073174, 69.2682953, 69.7560959, -0.0904707
0.6650391, 0.1074219, -0.0800781, -19.3902435, 71.0975647, 67.0121994, -0.0844282
0.6772461, 0.0932617, -0.1079102, -18.780489, 74.5731735, 64.0243912, -0.0840925
0.690918, 0.0878906, -0.2011719, -18.2317085, 75.4268341, 63.9634171, -0.0679789
0.6904297, 0.0981445, -0.2402344, -18.3536587, 74.2682953, 66.8292694, -0.0748608
0.6713867, 0.109375, -0.2666016, -18.1097565, 72.5609741, 67.8658524, -0.0958419
0.6547852, 0.1098633, -0.2485352, -16.280489, 69.1463394, 66.8292694, -0.0914778
0.6108398, 0.1005859, -0.1923828, -15.5487804, 66.8902435, 64.2682953, -0.1022202
0.5981445, 0.0991211, -0.1796875, -13.5365858, 65.7926865, 57.8658562, -0.1132982
0.5649414, 0.1123047, -0.2133789, -10.3048782, 67.5, 55.5487823, -0.1169909
0.5517578, 0.1235352, -0.2529297, -9.2682924, 67.68293, 56.5853653, -0.1243763
0.5610352, 0.1523438, -0.3227539, -10.1219511, 65.2439041, 60.2439041, -0.1707027
0.6025391, 0.1577148, -0.34375, -11.6463413, 62.9268303, 61.2804909, -0.1983978
0.6210938, 0.1557617, -0.3310547, -13.841464, 58.841465, 60.18293, -0.2227359
0.6425781, 0.1430664, -0.2924805, -13.2926836, 56.8292694, 57.9878044, -0.2452277
0.6391602, 0.1435547, -0.2714844, -11.8292685, 52.2560997, 52.7439041, -0.2646983
0.6391602, 0.1386719, -0.2226562, -11.0365858, 50.7317085, 50.6707344, -0.2709087
0.6352539, 0.1337891, -0.1982422, -9.5121956, 50.4268303, 47.9268303, -0.3043107
0.6508789, 0.0976562, -0.1660156, -8.719512, 50.3048782, 47.0731735, -0.3566796
0.6625977, 0.0703125, -0.1660156, -5.9756098, 50, 45.9146347, -0.367422
0.6870117, 0.0205078, -0.1674805, -2.9878049, 47.5, 44.6951218, -0.3828641
0.6953125, 0.0058594, -0.1655273, -1.8902439, 45.5487823, 44.0853653, -0.403006
0.7158203, -0.0258789, -0.1430664, 0.6097561, 42.4390259, 43.1097565, -0.4171054
0.7241211, -0.0361328, -0.1435547, 2.5, 41.4024391, 42.8658562, -0.4295262
0.7236328, -0.0292969, -0.1611328, 5.2439027, 39.5731735, 43.5975609, -0.4340581
0.7270508, 0.0019531, -0.2119141, 5.9146342, 38.1097565, 44.7560997, -0.4328832
0.7294922, 0.0258789, -0.2265625, 5.9146342, 33.2926826, 47.2560997, -0.4387579
0.7421875, 0.0693359, -0.2397461, 4.9390244, 30.1219521, 47.8048782, -0.4691386
0.7460938, 0.0864258, -0.2265625, 3.7195122, 24.0853672, 47.0731735, -0.4738384
0.7553711, 0.1098633, -0.1386719, 2.6829269, 19.3292694, 42.9878044, -0.4718242
0.7651367, 0.1049805, -0.0830078, 2.3170731, 17.6829281, 40.1219521, -0.4708171
0.8085938, 0.0620117, 0.003418, 2.5609756, 18.780489, 34.0243912, -0.4637675
0.8481445, 0.0146484, 0, 3.6585367, 19.8170738, 31.8292694, -0.4352331
0.8637695, -0.0039062, -0.0356445, 6.1585369, 21.4634151, 30.4878063, -0.416434
0.878418, -0.0112305, -0.0996094, 6.9512196, 20.9146347, 31.280489, -0.4113985
0.8813477, -0.0024414, -0.1186523, 7.1951222, 17.1341476, 34.0243912, -0.3905852
0.8920898, 0.0166016, -0.1079102, 7.0731707, 15.3048782, 34.5121956, -0.3697719
0.8930664, 0.0200195, -0.0898438, 7.2560978, 12.4390249, 33.3536606, -0.3445945
0.8876953, 0.019043, -0.0551758, 8.4756098, 11.1585369, 31.4024391, -0.3110246
0.8798828, 0.0195312, -0.0522461, 10.6097565, 8.719512, 26.4634151, -0.2613413
0.8666992, 0.0249023, -0.0507812, 12.1951218, 7.1951222, 23.5975609, -0.2640269
0.8706055, 0.0253906, -0.0625, 12.3780489, 6.5243902, 23.4756107, -0.2314641
0.8901367, 0.0292969, -0.0854492, 13.7195129, 5, 24.2682934, -0.2002441
0.9189453, 0.0170898, -0.1005859, 13.9024391, 3.5365853, 24.5121956, -0.1821164
0.9306641, 0.0126953, -0.0961914, 14.4512196, -0.3658537, 22.9878063, -0.1695277
0.9370117, 0.0107422, -0.0566406, 14.5121956, -2.4390244, 21.7682934, -0.1230335
0.9389648, 0.0136719, -0.0429688, 14.6951227, -5.7317076, 18.4756107, -0.1163195
0.9443359, 0.0219727, -0.0317383, 15.2439032, -6.8292685, 17.439024, -0.1200122
0.9487305, 0.027832, -0.0351562, 16.0365849, -8.4146347, 15.9756098, -0.0995346
0.9604492, 0.043457, -0.0317383, 16.0365849, -9.5731707, 15.4878054, -0.0847639
0.9775391, 0.0405273, -0.0229492, 14.0243902, -12.560976, 14.0853662, -0.0736858
1.0102539, 0.0229492, -0.0078125, 12.6219511, -14.7560978, 11.7682934, -0.0669718
1.0200195, 0.0205078, -0.0073242, 12.3170738, -15.6097565, 10.5487804, -0.057908
1.0170898, 0.0209961, -0.0512695, 12.3170738, -17.8658543, 8.4146347, -0.04448
1.0024414, 0.0214844, -0.0698242, 11.9512196, -19.5121956, 7.9268293, -0.0475013
1.0024414, 0.019043, -0.0517578, 11.4024391, -22.7439022, 6.8292685, -0.0535439
0.9995117, -0.0136719, 0.0180664, 11.5853662, -24.5731716, 5.4878049, -0.0847639
1.0024414, -0.027832, 0.043457, 12.4390249, -27.9878063, 1.3414634, -0.0797284
0.9916992, -0.0429688, 0.0561523, 13.5365858, -28.3536587, -0.3658537, -0.0793927
0.9794922, -0.0327148, 0.0620117, 15.4878054, -30.1829281, -1.5853659, -0.0787213
0.9970703, 0.003418, 0.0830078, 15.3048782, -31.4634151, -0.7926829, -0.0850996
1.0219727, 0.0219727, 0.0957031, 14.3902445, -33.5365868, 0.5487805, -0.0909743
1.0820312, 0.0478516, 0.1049805, 12.8048782, -33.1707306, -1.2804878, -0.1139696
1.1025391, 0.0527344, 0.1020508, 11.8292685, -32.8658562, -3.1097562, -0.1401541
1.1181641, 0.0546875, 0.0966797, 10.9756098, -32.9268303, -8.4146347, -0.1438468
1.1020508, 0.0634766, 0.0795898, 10.5487804, -33.6585388, -11.219512, -0.1497215
1.0834961, 0.0708008, 0.0649414, 9.8170738, -34.5121956, -15.1219511, -0.1498894
1.0390625, 0.0849609, -0.0058594, 9.0853662, -34.7560997, -16.2195129, -0.1307546
1.012207, 0.078125, -0.0415039, 7.5609756, -36.1585388, -17.6219521, -0.1096056
0.9624023, 0.065918, -0.0683594, 6.5243902, -38.4146347, -18.7195129, -0.1320974
0.949707, 0.0532227, -0.0610352, 3.4146342, -44.1463432, -21.280489, -0.1297475
0.9316406, 0.0283203, -0.0126953, 2.0121951, -46.7682953, -22.7439022, -0.1186694
0.9282227, 0.0288086, 0.0043945, 2.1341465, -50.1829262, -25.060976, -0.1107805
0.9355469, 0.0473633, 0.0009766, 2.0121951, -52.6829262, -25.1219521, -0.1119554
0.9414062, 0.0625, -0.019043, 1.8902439, -53.5365868, -24.9390259, -0.0755322
0.9614258, 0.0874023, -0.081543, 0.6097561, -55.2439041, -24.5121956, -0.0706645
0.9667969, 0.0849609, -0.1186523, -0.2439024, -57.0731735, -25.4878063, -0.0659648
0.9609375, 0.0673828, -0.1137695, -2.9878049, -61.4024391, -29.3292694, -0.0404517
0.9394531, 0.0332031, -0.0620117, -3.8414636, -63.7804909, -31.5853672, -0.0193027
0.918457, 0.0229492, -0.0463867, -2.7439024, -68.3536606, -35.6097565, 0.0077211
0.8740234, 0.0253906, -0.0576172, -1.5243902, -69.7560959, -36.5853653, 0.0196384
0.8540039, 0.0444336, -0.0776367, -0.5487805, -72.3170776, -36.4024391, 0.0307164
0.8310547, 0.0898438, -0.1162109, -0.8536586, -73.2926865, -35.1219521, 0.072343
0.8256836, 0.1069336, -0.121582, -2.6829269, -77.4390259, -34.2073174, 0.1052415
0.8452148, 0.1254883, -0.112793, -5.4878049, -81.4634171, -35.8536606, 0.1327687
0.8569336, 0.1186523, -0.1064453, -6.6463418, -82.8048782, -38.1097565, 0.1156481
0.8754883, 0.0874023, -0.0908203, -8.4146347, -86.2195129, -42.5609779, 0.1294118
0.8793945, 0.0581055, -0.0727539, -9.0243902, -87.5609741, -44.5731735, 0.1488823
0.8798828, 0.0444336, -0.0595703, -10.1219511, -91.0975647, -46.5853653, 0.1619745
0.8720703, 0.0444336, -0.0249023, -10.8536587, -92.4390259, -46.8292694, 0.1757382
0.8696289, 0.0581055, -0.0087891, -11.8292685, -93.7804871, -46.4634171, 0.2046082
0.8754883, 0.0952148, -0.0107422, -12.5, -94.0243912, -46.2804871, 0.1958801
0.8793945, 0.1108398, -0.0258789, -14.3292685, -93.9024429, -46.5243912, 0.1770809
0.8823242, 0.140625, -0.0561523, -15.9146347, -94.2682953, -47.6219521, 0.1896696
0.8754883, 0.1484375, -0.0576172, -20.2439022, -95.3658524, -50.5487823, 0.1945373
0.8642578, 0.1601562, -0.043457, -24.5731716, -96.5243912, -54.3902435, 0.1762417
0.855957, 0.1582031, -0.0317383, -26.4634151, -96.5853653, -56.4634171, 0.1710384
0.828125, 0.1591797, -0.0185547, -29.6341476, -96.7073212, -60, 0.1660029
0.8125, 0.1645508, -0.0327148, -31.4634151, -96.5243912, -61.2804909, 0.1099413
0.8125, 0.1621094, -0.0429688, -35.9146347, -96.1585388, -62.8658562, 0.0844282
0.8125, 0.1499023, -0.0708008, -38.2317085, -96.0365906, -63.6585388, 0.0656291
0.8095703, 0.1337891, -0.0961914, -41.341465, -95.18293, -65.9146347, 0.0454871
0.7871094, 0.0761719, -0.1835938, -40.6707344, -94.2073212, -67.1951218, 0.0280308
0.7573242, 0.043457, -0.2387695, -35.1219521, -94.5121994, -69.0853653, 0.0240024
0.6669922, -0.0146484, -0.3359375, -32.4390259, -96.7073212, -69.5121994, -0.0186313
0.6328125, -0.0288086, -0.3422852, -30.1829281, -106.0975647, -69.3292694, -0.0693217
0.5786133, -0.0512695, -0.265625, -28.0487804, -115.0609818, -68.1707306, -0.0874495
0.5639648, -0.0458984, -0.2270508, -25.7317085, -117.4390259, -67.0121994, -0.1075914
0.5390625, 0.0180664, -0.1733398, -21.280489, -119.9390259, -64.5121994, -0.1136339
0.5512695, 0.1196289, -0.1538086, -19.8780499, -120.4268341, -62.8658562, -0.1317617
0.5737305, 0.1601562, -0.1606445, -19.2682934, -121.0365906, -60.9146347, -0.152575
0.6362305, 0.2197266, -0.2006836, -19.939024, -121.0365906, -61.4024391, -0.1653315
0.6645508, 0.2358398, -0.2241211, -23.0487804, -121.7682953, -64.9390259, -0.1760739
0.6831055, 0.2441406, -0.2363281, -25.2439022, -123.2926865, -67.2560959, -0.1844663
0.6879883, 0.2363281, -0.2241211, -29.4512196, -127.1341476, -72.7439041, -0.2170291
0.6884766, 0.2202148, -0.1826172, -31.5853672, -128.5975647, -75.4878082, -0.2277714
0.6816406, 0.203125, -0.1650391, -34.2073174, -130.3048859, -80.3048782, -0.2257572
0.6557617, 0.1826172, -0.1582031, -35.7317085, -130.7926788, -83.5365906, -0.2183719
0.6376953, 0.1826172, -0.1694336, -36.5853653, -131.2804871, -84.2682953, -0.2143435
0.5961914, 0.1967773, -0.2099609, -39.0853653, -132.9268341, -84.8780518, -0.1884947
0.5625, 0.2294922, -0.2207031, -40.8536606, -133.8414612, -84.8780518, -0.1888304
0.5512695, 0.2431641, -0.2119141, -45.0609779, -136.7073212, -85.18293, -0.1989014
0.5454102, 0.2695312, -0.1928711, -47.5609779, -137.6829376, -86.4024429, -0.1901732
0.5498047, 0.2719727, -0.1977539, -51.8292694, -137.6219482, -90.1219559, -0.1804379
0.5522461, 0.2670898, -0.2148438, -53.5365868, -137.1341553, -92.1341476, -0.1596246
0.5439453, 0.2680664, -0.21875, -56.5853653, -137.9878082, -95.4268341, -0.1344472
0.5483398, 0.2822266, -0.2231445, -58.5365868, -139.3292694, -96.3414688, -0.1190051
0.5541992, 0.2749023, -0.2216797, -64.7560959, -141.0365906, -98.2926865, -0.1331044
0.5683594, 0.2646484, -0.2319336, -69.7560959, -140.4268341, -100.3048782, -0.1216907
0.5708008, 0.2543945, -0.2539062, -70.2439041, -139.3292694, -101.5853653, -0.1042344
0.5541992, 0.2294922, -0.3388672, -68.2317123, -138.5365906, -103.3536606, -0.0975204
0.5029297, 0.1967773, -0.4257812, -67.0121994, -140.1829376, -104.0243912, -0.0876173
0.4824219, 0.1743164, -0.4624023, -66.0975647, -146.1585388, -105.3048782, -0.072343
0.4316406, 0.1254883, -0.4755859, -65.6707306, -148.9024353, -105.9756088, -0.0720073
0.4067383, 0.1035156, -0.4575195, -60.5487823, -152.9878082, -108.1707306, -0.0814069
0.3476562, 0.0883789, -0.4208984, -56.9512215, -155.4878082, -108.9634171, -0.0639506
0.3178711, 0.1015625, -0.4082031, -50.3048782, -160.7317047, -108.5365906, -0.0636149
0.2871094, 0.1606445, -0.3984375, -48.1707344, -162.3780518, -107.1951218, -0.0582437
0.2827148, 0.2094727, -0.3935547, -44.7560997, -163.7195129, -103.1097565, -0.0803998
0.3061523, 0.3183594, -0.3779297, -43.2317085, -165.0609741, -99.3902435, -0.100206
0.3300781, 0.3696289, -0.3632812, -44.2682953, -165.6097565, -99.0243912, -0.1299153
0.3862305, 0.4448242, -0.371582, -48.6585388, -165.4878082, -102.0731735, -0.1514
0.4194336, 0.4804688, -0.4643555, -51.1585388, -165.1219482, -105, -0.1566033
0.4130859, 0.4863281, -0.5146484, -54.5121956, -165.36586, -111.2195129, -0.2046082
0.3647461, 0.4853516, -0.5385742, -56.1585388, -167.5, -113.9634171, -0.2213931
0.3461914, 0.4790039, -0.496582, -60.9756126, -174.3902435, -119.3292694, -0.2351568
0.3212891, 0.4296875, -0.3833008, -64.1463394, -177.0731812, -123.4756088, -0.2633555
0.3100586, 0.3950195, -0.3540039, -69.6951218, -176.646347, -131.7682953, -0.2831617
0.2832031, 0.3422852, -0.3779297, -71.2804871, -174.2682953, -134.8780518, -0.2888685
0.262207, 0.3276367, -0.4101562, -70.8536606, -172.1951294, -134.4512177, -0.3237812
0.2612305, 0.3466797, -0.4443359, -71.8902435, -175.1829376, -128.4756165, -0.3613794
0.2807617, 0.3657227, -0.4570312, -73.6585388, -176.8292694, -125.2439041, -0.367422
0.3291016, 0.378418, -0.5068359, -79.3902435, -177.9878082, -123.0487823, -0.3810178
0.3295898, 0.3857422, -0.519043, -81.5243912, -178.4756165, -124.146347, -0.3924315
0.3051758, 0.3979492, -0.487793, -82.8048782, -181.9512177, -128.6585388, -0.3944457
0.2402344, 0.4384766, -0.4228516, -82.9268341, -184.146347, -131.1585388, -0.3909209
0.2167969, 0.453125, -0.4160156, -83.7804871, -185.4268341, -135.1829224, -0.4234836
0.1865234, 0.4570312, -0.4296875, -85.3048782, -183.8414612, -136.646347, -0.4238193
0.1796875, 0.4541016, -0.440918, -89.2073212, -181.5243988, -137.5609741, -0.4144198
0.1875, 0.4443359, -0.4404297, -94.0853653, -181.1585388, -136.0365906, -0.4077058
0.206543, 0.4467773, -0.4316406, -96.7682953, -180.6707306, -135.2439117, -0.385214
0.2578125, 0.4277344, -0.4677734, -101.0365906, -178.4756165, -133.9634247, -0.3398947
0.2734375, 0.3833008, -0.6577148, -101.9512253, -176.646347, -133.9024353, -0.3194171
0.2460938, 0.3544922, -0.7802734, -100.7926865, -175.6707306, -134.4512177, -0.3174029
0.1118164, 0.3139648, -0.9516602, -99.3292694, -178.8414612, -134.5731812, -0.2955825
0.0205078, 0.3105469, -0.9506836, -96.8292694, -192.012207, -134.5121918, -0.2652018
-0.1318359, 0.3442383, -0.8208008, -96.0975647, -200.5487823, -134.5731812, -0.2331426
-0.1860352, 0.3842773, -0.7299805, -94.3292694, -210.9146423, -135.2439117, -0.2069581
-0.2348633, 0.4956055, -0.6362305, -93.3536606, -211.1585388, -135.1219482, -0.1757382
-0.2324219, 0.5522461, -0.6679688, -91.2195129, -205.1829376, -131.2195129, -0.1472038
-0.15625, 0.6381836, -0.800293, -90.9756088, -200.9756165, -124.7561035, -0.1117876
-0.1044922, 0.668457, -0.8427734, -91.4024429, -202.012207, -123.5365906, -0.0820783
0.0136719, 0.6933594, -0.7949219, -94.0853653, -208.5975647, -125.6097565, -0.0894636
0.1054688, 0.6923828, -0.675293, -96.2195129, -211.2804871, -129.6951294, -0.0636149
0.1367188, 0.6801758, -0.6557617, -100.4878082, -210.3048859, -140.36586, -0.0377661
0.121582, 0.6474609, -0.7026367, -101.5243912, -207.86586, -144.5731812, -0.0229953
0.090332, 0.6289062, -0.7275391, -101.2804871, -205.4878082, -147.7439117, -0.0082246
0.0239258, 0.6113281, -0.7163086, -100.6097565, -206.4024506, -147.4390259, 0.0307164
0.0083008, 0.5991211, -0.6899414, -101.9512253, -209.5731812, -145.6707306, 0.0327306
-0.0014648, 0.5712891, -0.6635742, -103.6585388, -209.7561035, -146.0365906, 0.0186313
-0.0043945, 0.5556641, -0.6733398, -106.646347, -206.9512177, -147.3780518, 0.0354162
-0.034668, 0.5439453, -0.6918945, -107.68293, -205.36586, -146.8292694, 0.0344091
-0.0454102, 0.5634766, -0.6791992, -108.6585388, -205.7926941, -145.1219482, 0.0238346
-0.0249023, 0.6074219, -0.6113281, -112.86586, -205.9756165, -141.0975647, 0.0095674
0.0424805, 0.6274414, -0.5634766, -115.9756088, -204.146347, -140.1829376, -0.0102388
0.0654297, 0.6318359, -0.5825195, -123.8414688, -198.2317047, -141.2195129, -0.0379339
0.0620117, 0.6220703, -0.7587891, -127.0731735, -195.4268341, -141.8902435, -0.0572366
0.0317383, 0.6186523, -0.8759766, -130.36586, -194.5731812, -142.0731812, -0.063447
-0.0981445, 0.6347656, -1.015625, -130.6097565, -197.012207, -141.3414612, -0.0713359
-0.1733398, 0.6474609, -1.0244141, -131.0365906, -207.3170776, -140.1219482, -0.1005417
-0.2973633, 0.6694336, -1.0073242, -132.1951294, -212.9268341, -140.1219482, -0.0958419
-0.3349609, 0.6679688, -0.9956055, -136.1585388, -218.1707306, -142.0731812, -0.1230335
-0.3935547, 0.6450195, -0.9326172, -136.4024353, -217.2561035, -144.0853729, -0.1633173
-0.4086914, 0.6386719, -0.8666992, -135, -217.4390259, -143.9634247, -0.1730526
-0.359375, 0.6508789, -0.7080078, -131.8292694, -217.9268341, -142.0121918, -0.184802
-0.2045898, 0.6787109, -0.5976562, -131.7682953, -215.7317047, -140.7926788, -0.1841306
-0.1079102, 0.6845703, -0.612793, -134.5121918, -205.36586, -139.3292694, -0.1935302
0.0292969, 0.6665039, -0.7363281, -136.7073212, -199.3902435, -138.9634247, -0.2119936
0.0512695, 0.6655273, -0.7895508, -139.0853729, -193.1707306, -138.1707306, -0.2234073
0.0180664, 0.6953125, -0.8095703, -138.6585388, -194.3292694, -137.3170776, -0.2124971
-0.0180664, 0.7324219, -0.7739258, -136.5243988, -199.9390259, -137.7439117, -0.199237
-0.1030273, 0.8100586, -0.699707, -136.7682953, -201.5853729, -139.0853729, -0.235996
-0.140625, 0.8378906, -0.6733398, -140.7926788, -198.6585388, -144.0243988, -0.2297856
-0.2050781, 0.8535156, -0.6459961, -146.646347, -191.0975647, -149.3902435, -0.1995727
-0.2299805, 0.8413086, -0.6547852, -149.0243988, -187.012207, -151.3414612, -0.1787594
-0.2514648, 0.7900391, -0.6914062, -150.4878082, -181.7073212, -153.1097565, -0.152575
-0.2543945, 0.7470703, -0.7202148, -149.8780518, -180.4268341, -152.8048859, -0.1190051
-0.25, 0.7441406, -0.7373047, -149.0243988, -180.3048859, -150.6707306, -0.1149767
-0.2333984, 0.7695312, -0.7285156, -150, -180.4268341, -149.146347, -0.1186694
-0.2192383, 0.7885742, -0.7070312, -154.3292694, -179.0853729, -147.0121918, -0.0948348
-0.1811523, 0.8066406, -0.7060547, -156.8292694, -177.4390259, -146.8292694, -0.0626078
-0.171875, 0.7978516, -0.7426758, -161.4634247, -173.9024506, -149.5731812, -0.0238346
-0.2075195, 0.7670898, -0.8500977, -162.6219482, -173.3536682, -151.5853729, 0.0142672
-0.2524414, 0.7587891, -0.8706055, -162.7439117, -176.0975647, -153.4146423, 0.0522011
-0.347168, 0.7807617, -0.7983398, -158.7195129, -182.0121918, -151.5853729, 0.0307164
-0.3720703, 0.7949219, -0.7246094, -155.8536682, -183.5975647, -150.5487823, 0.024506
-0.3427734, 0.7841797, -0.6225586, -151.8902435, -179.146347, -151.4024353, 0.0458228
-0.2880859, 0.7163086, -0.6484375, -150.9756165, -174.6341553, -153.2926941, 0.063447
-0.2744141, 0.6831055, -0.7006836, -152.0121918, -167.5609741, -156.1585388, 0.0750286
-0.2802734, 0.6386719, -0.7954102, -152.1951294, -167.1951294, -155.36586, 0.1206836
-0.2905273, 0.6518555, -0.8134766, -149.4512177, -171.8902435, -147.1341553, 0.1317617
-0.3134766, 0.730957, -0.796875, -147.0731812, -175.0609741, -141.7682953, 0.121355
-0.3212891, 0.7822266, -0.7631836, -142.6829376, -179.2682953, -134.3902435, 0.1367971
-0.3242188, 0.8886719, -0.6689453, -141.7682953, -180, -133.5975647, 0.145861
-0.3188477, 0.9228516, -0.6425781, -144.146347, -178.4146423, -138.1707306, 0.1498894
-0.2958984, 0.9208984, -0.6645508, -150.7926788, -172.6219482, -147.0731812, 0.1305867
-0.284668, 0.8959961, -0.6918945, -154.0853729, -170, -151.0365906, 0.0965133
-0.2841797, 0.84375, -0.6811523, -158.1097565, -169.2073212, -153.5365906, 0.0871138
-0.2631836, 0.8125, -0.5922852, -158.5365906, -170.6097565, -152.4390259, 0.0830854
-0.2387695, 0.8188477, -0.5546875, -158.2926941, -170.5487823, -147.5609741, 0.0938277
-0.1972656, 0.875, -0.4980469, -158.6585388, -167.9268341, -145.5487823, 0.0659648
-0.1899414, 0.9125977, -0.4731445, -159.9390259, -160.6707306, -143.8414612, 0.0407874
-0.1879883, 0.9755859, -0.4321289, -160.2439117, -157.1341553, -144.5731812, 0.0297093
-0.1865234, 0.996582, -0.4384766, -159.8780518, -149.8780518, -149.7561035, 0.0130922
-0.1933594, 0.9941406, -0.4926758, -159.3902435, -145.9756165, -153.1707306, 0.0045319
-0.2114258, 0.9873047, -0.5161133, -158.7804871, -140.6097565, -160.6707306, 0.0092317
-0.2587891, 0.9848633, -0.5512695, -158.4146423, -138.5365906, -164.2682953, -0.0063783
-0.2744141, 0.9897461, -0.5473633, -159.3292694, -137.9268341, -164.2073212, -0.0303807
-0.2788086, 0.9692383, -0.5605469, -160.4268341, -134.3292694, -164.2682953, -0.0199741
-0.2939453, 0.9306641, -0.6533203, -160.1219482, -131.8292694, -165.3048859, -0.0082246
-0.3232422, 0.9101562, -0.7011719, -155.6707306, -128.2317047, -167.9268341, -0.0152743
-0.4091797, 0.8764648, -0.7397461, -151.4024353, -128.5365906, -169.0853729, -0.01561
-0.4575195, 0.8774414, -0.7280273, -142.0121918, -134.7561035, -170.3048859, -0.0038605
-0.5205078, 0.8999023, -0.6806641, -138.2317047, -138.5975647, -170.3048859, -0.01561
-0.5322266, 0.9111328, -0.6557617, -135.6707306, -139.8170776, -169.3902435, -0.0162814
-0.5068359, 0.9165039, -0.6074219, -136.5853729, -137.86586, -169.0853729, 0.0005035
-0.487793, 0.9057617, -0.5830078, -141.4634247, -132.4390259, -169.3292694, 0.0095674
-0.4238281, 0.875, -0.5029297, -145.8536682, -129.2073212, -170.7317047, 0.0404517
-0.3911133, 0.8603516, -0.4580078, -146.7073212, -128.0487823, -171.2804871, 0.0861067
-0.3466797, 0.8598633, -0.418457, -144.4512177, -124.3292694, -170.4268341, 0.0951705
-0.3461914, 0.9082031, -0.4492188, -141.7073212, -122.1951218, -168.7804871, 0.0891279
-0.3657227, 0.953125, -0.4711914, -136.5243988, -119.0243912, -164.2073212, 0.1185016
-0.4057617, 1.0561523, -0.5019531, -135.5487823, -119.0243912, -162.5609741, 0.149218
-0.4125977, 1.1079102, -0.4819336, -138.6585388, -119.3292694, -161.8902435, 0.1942016
-0.4179688, 1.1586914, -0.4067383, -143.4146423, -118.5365906, -164.2073212, 0.216022
-0.4086914, 1.1625977, -0.3964844, -155.8536682, -112.86586, -173.3536682, 0.2422065
-0.4267578, 1.1352539, -0.4731445, -162.1341553, -108.5975647, -178.2926941, 0.266041
-0.4663086, 1.1113281, -0.5371094, -170.4878082, -101.9512253, -185, 0.2858473
-0.5673828, 1.0869141, -0.6313477, -170.4268341, -103.8414688, -184.3902435, 0.3133745
-0.621582, 1.0878906, -0.6464844, -168.8414612, -107.5, -182.3170776, 0.307332
-0.6743164, 1.1020508, -0.6098633, -167.6829376, -113.0487823, -179.6951294, 0.3298238
-0.6635742, 1.0771484, -0.5644531, -168.4756165, -113.2926865, -180.2439117, 0.3526513
-0.6494141, 1.0415039, -0.5703125, -170.8536682, -108.2926865, -186.0975647, 0.366247
-0.6660156, 0.9365234, -0.5942383, -171.5243988, -105.3048782, -190.3048859, 0.3791714
-0.6958008, 0.8876953, -0.5888672, -168.0487823, -104.5731735, -196.5853729, 0.4093843
-0.7646484, 0.8378906, -0.5410156, -164.3292694, -106.9512253, -196.2804871, 0.4033417
-0.7797852, 0.8378906, -0.5083008, -154.5731812, -110.8536606, -189.2073212, 0.399649
-0.7583008, 0.828125, -0.5092773, -149.2073212, -110.18293, -184.5731812, 0.4167697
-0.7460938, 0.8100586, -0.5395508, -140.6097565, -104.2073212, -178.2926941, 0.4154269
-0.7705078, 0.7763672, -0.5751953, -135.3048859, -103.5365906, -177.9878082, 0.3986419
-0.8066406, 0.7773438, -0.5585938, -133.2926788, -106.646347, -177.6829376, 0.3889067
-0.862793, 0.8173828, -0.4541016, -128.7804871, -111.7682953, -173.9634247, 0.399649
-0.8579102, 0.8842773, -0.3564453, -126.9512253, -111.4024429, -171.0975647, 0.3744717
-0.8398438, 0.9179688, -0.3344727, -125.1219559, -104.9390259, -165.9146423, 0.364065
-0.8061523, 1.0039062, -0.3496094, -125.3048782, -100.6097565, -164.0853729, 0.3570153
-0.7929688, 1.0395508, -0.3618164, -128.8414612, -94.7561035, -161.5853729, 0.3380484
-0.7441406, 1.0966797, -0.4003906, -131.7073212, -93.1097565, -161.4634247, 0.3268025
-0.7202148, 1.1152344, -0.4047852, -139.0853729, -89.9390259, -165.36586, 0.3398947
-0.6992188, 1.1230469, -0.3583984, -143.2317047, -88.7195129, -168.5975647, 0.3214313
-0.6938477, 1.121582, -0.3217773, -151.5853729, -85.3658524, -176.2195129, 0.2892042
-0.6787109, 1.0976562, -0.2714844, -159.2073212, -80.0609741, -183.4756165, 0.2845045
-0.6796875, 1.0786133, -0.2875977, -161.7682953, -76.0975647, -186.7073212, 0.2804761
-0.7387695, 1.0566406, -0.3608398, -162.86586, -70.4878082, -188.2317047, 0.2885328
-0.8383789, 1.0800781, -0.3935547, -161.2195129, -70.1219559, -186.646347, 0.279469
-0.8754883, 1.097168, -0.3886719, -156.7073212, -73.4756088, -181.3414612, 0.2566415
-0.9013672, 1.1362305, -0.3569336, -156.0365906, -74.6951218, -179.3292694, 0.2579843
-0.890625, 1.1396484, -0.3408203, -160.2439117, -71.8292694, -181.4634247, 0.2744335
-0.8515625, 1.0854492, -0.2988281, -165.0609741, -67.8048782, -185.4878082, 0.282826
-0.8344727, 1.0102539, -0.3022461, -174.0243988, -56.8902435, -197.5, 0.2626841
-0.8339844, 0.7949219, -0.3486328, -176.2804871, -48.2317085, -210.1829376, 0.2851759
-0.8637695, 0.6889648, -0.3608398, -172.5609741, -47.6219521, -213.4146423, 0.3127031
-0.9868164, 0.59375, -0.3369141, -157.5, -53.4146347, -208.4756165, 0.3553368
-1.0644531, 0.6289062, -0.2763672, -147.9268341, -57.2560997, -199.4512177, 0.413077
-1.0605469, 0.6816406, -0.2543945, -131.2195129, -59.2073174, -176.0365906, 0.424155
-0.9868164, 0.8051758, -0.2509766, -126.646347, -57.3170738, -166.2195129, 0.4187839
-0.9370117, 0.8608398, -0.2529297, -126.0975647, -50.0609779, -157.9268341, 0.4150912
-0.8657227, 0.909668, -0.265625, -128.0487823, -46.7073174, -159.8170776, 0.4436255
-0.8530273, 0.9169922, -0.2758789, -130.2439117, -41.7073174, -170.9756165, 0.4651102
-0.894043, 0.9135742, -0.2929688, -129.0243988, -41.2804871, -176.9512177, 0.4859236
-0.9296875, 0.918457, -0.3095703, -124.146347, -42.7439041, -183.7804871, 0.508751
-0.9941406, 0.918457, -0.3261719, -120.9146347, -43.9024391, -183.0487823, 0.5282216
-1.0097656, 0.9155273, -0.3085938, -121.2195129, -44.0853653, -181.4024506, 0.5011978
-1.0180664, 0.9077148, -0.2280273, -123.6585388, -42.1951218, -178.5975647, 0.4990158
-0.9921875, 0.887207, -0.1582031, -125.2439041, -40.0609779, -178.3536682, 0.507744
-0.9682617, 0.8745117, -0.1459961, -128.1707306, -32.7439041, -180.4878082, 0.5218433
-0.9467773, 0.84375, -0.1796875, -129.6341553, -29.0853672, -182.3170776, 0.528893
-0.9467773, 0.8388672, -0.2094727, -131.646347, -24.8170738, -185.2439117, 0.5463493
-0.9648438, 0.8393555, -0.2602539, -131.5853729, -23.9024391, -185.2439117, 0.5305715
-0.9829102, 0.8579102, -0.2709961, -130.9146423, -25.3048782, -181.9512177, 0.5013657
-1.0058594, 0.9101562, -0.2358398, -130.1829224, -26.0365868, -179.4512177, 0.5040513
-0.9990234, 0.9335938, -0.2104492, -129.8170776, -26.0365868, -176.1585388, 0.4899519
-0.9550781, 0.9453125, -0.1982422, -131.8292694, -20.7317085, -179.0243988, 0.4724956
-0.9267578, 0.9194336, -0.2182617, -134.7561035, -16.9512196, -183.4756165, 0.4348974
-0.9160156, 0.8120117, -0.2612305, -139.6341553, -12.3780489, -195.3048859, 0.4087129
-0.9741211, 0.6826172, -0.2753906, -140.3048859, -12.6219511, -200.36586, 0.395285
-1.0146484, 0.6240234, -0.2695312, -135.0609741, -15, -203.8414612, 0.3905852
-1.0898438, 0.5419922, -0.2436523, -129.2682953, -16.8292694, -201.9512177, 0.372961
-1.128418, 0.5327148, -0.2299805, -114.9390259, -20.9146347, -192.9878082, 0.3106889
-1.1708984, 0.5869141, -0.1938477, -108.8414688, -22.560976, -186.7073212, 0.2730907
-1.1694336, 0.6376953, -0.1816406, -102.0731735, -22.5, -173.4146423, 0.2442206
-1.112793, 0.722168, -0.1552734, -101.2804871, -20.3048782, -168.4146423, 0.2079652
-1.078125, 0.7509766, -0.1279297, -103.9634171, -14.4512196, -166.2195129, 0.1790951
-1.0083008, 0.7734375, -0.0961914, -106.7073212, -10.3048782, -172.5609741, 0.1728847
-0.9785156, 0.7641602, -0.1049805, -108.1097565, -8.1707315, -177.4390259, 0.1361257
-0.9765625, 0.7338867, -0.1171875, -108.7195129, -4.8170733, -185, 0.0948348
-1.0249023, 0.703125, -0.1098633, -107.6219559, -4.8780489, -186.5243988, 0.0904707
-1.0473633, 0.690918, -0.112793, -104.2073212, -5.7926831, -184.146347, 0.0663005
-1.0722656, 0.6640625, -0.1352539, -102.7439041, -5.4878049, -181.7682953, 0.0345769
-1.0854492, 0.6494141, -0.1503906, -101.8902435, -3.2926829, -177.3170776, 0.0387732
-1.1196289, 0.6181641, -0.1547852, -102.1951218, -2.9268293, -175.9756165, 0.0293736
-1.1342773, 0.6000977, -0.140625, -102.2561035, -4.2073174, -174.6951294, -0.0250095
-1.1542969, 0.5668945, -0.0952148, -102.0121994, -4.8780489, -174.7561035, -0.0310521
-1.1606445, 0.5458984, -0.0908203, -99.8170776, -4.6341462, -174.8780518, -0.0216526
-1.1679688, 0.5180664, -0.1064453, -97.6219559, -1.7682927, -173.2317047, -0.0179599
-1.1738281, 0.5117188, -0.1176758, -96.4024429, -1.0365853, -171.0975647, -0.0193027
-1.1879883, 0.5205078, -0.1137695, -92.6219559, -2.2560976, -164.6951294, -0.002182
-1.1630859, 0.5239258, -0.109375, -90.3658524, -3.1097562, -161.5853729, -0.0030213
-1.1420898, 0.527832, -0.1196289, -86.4634171, -3.3536587, -157.4390259, -0.0203098
-1.1186523, 0.543457, -0.1425781, -85.3658524, -3.2926829, -156.7682953, -0.0097353
-1.1118164, 0.5532227, -0.1455078, -84.5121994, -4.3292685, -156.2195129, 0.0035248
-1.1123047, 0.5634766, -0.1254883, -84.4512253, -5.3658538, -155.9146423, 0.0223239
-1.1040039, 0.5654297, -0.1064453, -83.2926865, -6.7073174, -155.4268341, 0.0310521
-1.0820312, 0.5483398, -0.0810547, -82.4390259, -6.9512196, -155.6707306, 0.0251774
-1.0776367, 0.5415039, -0.0639648, -81.2195129, -6.5243902, -156.646347, 0.03122
-1.0751953, 0.5351562, -0.0283203, -80.3658524, -5.3048782, -156.9512177, 0.0394446
-1.0717773, 0.527832, -0.0078125, -79.3902435, -4.6341462, -156.4634247, 0.0575723
-1.0585938, 0.5117188, -0.0024414, -76.7682953, -2.0731707, -154.8780518, 0.0182956
-1.0458984, 0.4990234, -0.0048828, -75.5487823, -0.5487805, -154.2073212, 0.0199741
-1.0493164, 0.5048828, 0.0161133, -73.7804871, 0, -153.2317047, 0.0273594
-1.0527344, 0.5249023, 0.0776367, -73.2317123, -0.8536586, -151.9512177, 0.0193027
-1.0385742, 0.5341797, 0.0913086, -72.68293, 1.2195122, -149.5121918, 0.0105745
-0.9990234, 0.5424805, 0.0888672, -72.5609741, 4.3292685, -148.8414612, 0.0199741
-0.9887695, 0.5424805, 0.0742188, -73.8414688, 10, -149.4512177, -0.0035248
-0.9912109, 0.5322266, 0.0322266, -74.6341476, 11.7682934, -150.36586, -0.0404517
-0.9975586, 0.527832, 0.0097656, -75.3048782, 12.6829271, -151.1585388, -0.0649577
-1.0141602, 0.5131836, -0.0126953, -74.6341476, 11.8902445, -151.4024353, -0.102388
-1.0297852, 0.5063477, -0.0180664, -74.2073212, 11.4024391, -151.5243988, -0.1364614
-1.0522461, 0.5004883, -0.0273438, -73.4146347, 10, -150.5487823, -0.1532464
-1.0727539, 0.4946289, -0.0551758, -72.8048782, 9.5121956, -150, -0.1710384
-1.081543, 0.4858398, -0.0688477, -72.0731735, 8.9024391, -148.4756165, -0.2247501
-1.1064453, 0.4755859, -0.0834961, -71.4634171, 8.2317076, -148.1097565, -0.2704051
-1.1206055, 0.4697266, -0.0766602, -69.8780518, 4.5731707, -147.1951294, -0.3076677
-1.1337891, 0.4731445, -0.0712891, -68.8414688, 2.804878, -146.8292694, -0.3325093
-1.1386719, 0.4741211, -0.0678711, -67.3170776, 0.6097561, -146.0975647, -0.3580224
-1.1386719, 0.4677734, -0.0776367, -67.0731735, 0.1829268, -145.5487823, -0.369604
-1.140625, 0.4633789, -0.0898438, -66.4634171, -0.4268293, -145.5487823, -0.4004883
-1.1479492, 0.4448242, -0.1015625, -65.7926865, -2.6829269, -145.6097565, -0.4354009
-1.1518555, 0.4365234, -0.1025391, -65.4878082, -4.1463413, -145.8536682, -0.4473182
-1.1621094, 0.4287109, -0.0751953, -62.8048782, -7.0121951, -144.5731812, -0.4637675
-1.1606445, 0.4267578, -0.0600586, -61.2804909, -8.0487804, -143.7195129, -0.4723278
-1.1518555, 0.4267578, -0.0522461, -57.8048782, -8.9634151, -141.9512177, -0.4996872
-1.1401367, 0.4257812, -0.0527344, -56.7682953, -8.9634151, -141.2804871, -0.5245289
-1.1308594, 0.4282227, -0.0473633, -55.9756126, -10.1219511, -140.7926788, -0.5280537
-1.1181641, 0.4267578, -0.0209961, -56.0365868, -10.7926836, -140.7926788, -0.5299001
-1.1181641, 0.4277344, 0.0097656, -55.7317085, -11.5243902, -140.1829376, -0.5211719
-1.1035156, 0.4350586, 0.0766602, -55.2439041, -11.5853662, -139.6341553, -0.5319142
-1.0883789, 0.4458008, 0.0942383, -53.9024391, -10.9756098, -138.4146423, -0.5067369
-1.0507812, 0.4389648, 0.0795898, -55.0609779, -7.0731707, -137.6829376, -0.4842451
-1.0410156, 0.4311523, 0.0673828, -56.5243912, -5.609756, -138.0487823, -0.4835737
-1.0351562, 0.3876953, 0.0708008, -58.9024391, -5.3048782, -139.2073212, -0.4792096
-1.0615234, 0.3432617, 0.1079102, -59.4512215, -5.5487804, -139.8170776, -0.4526894
-1.0810547, 0.3237305, 0.1333008, -57.1951218, -6.0975609, -139.5731812, -0.445304
-1.1103516, 0.3105469, 0.1572266, -55.18293, -5.8536587, -138.1707306, -0.4288548
-1.1196289, 0.3061523, 0.1425781, -52.0731735, -3.5975611, -133.4146423, -0.4038453
-1.1376953, 0.2973633, 0.0742188, -51.5243912, -2.0121951, -131.0975647, -0.3842069
-1.1508789, 0.2963867, 0.0341797, -51.5853653, 0.3658537, -126.7682953, -0.3633936
-1.1884766, 0.2709961, -0.0004883, -51.5243912, 0, -125.2439041, -0.3439231
-1.2016602, 0.2583008, -0.0053711, -49.1463432, -2.8658538, -123.1707382, -0.3147173
-1.2197266, 0.2241211, 0.0029297, -44.8780479, -5.3658538, -121.8902435, -0.3338521
-1.2216797, 0.2109375, 0.0048828, -42.3780479, -5.7317076, -121.4024429, -0.3257954
-1.2299805, 0.1928711, -0.0053711, -38.2317085, -5.7926831, -118.3536606, -0.3143816
-1.2260742, 0.1889648, -0.0205078, -36.4634171, -5.5487804, -116.0365906, -0.2982681
-1.2163086, 0.1875, -0.0253906, -34.0243912, -6.890244, -109.8780518, -0.2908827
-1.1928711, 0.1958008, -0.0131836, -33.0487823, -8.4756098, -106.5853653, -0.2781262
-1.1791992, 0.2055664, -0.0053711, -30.2439022, -10.7317076, -100.18293, -0.3043107
-1.1542969, 0.2353516, 0.0009766, -29.1463413, -11.280488, -97.68293, -0.3415732
-1.1464844, 0.25, 0, -27.3170738, -12.4390249, -93.5975647, -0.3227741
-1.1376953, 0.2890625, -0.0083008, -26.4634151, -13.1097565, -92.2561035, -0.3318379
-1.1328125, 0.3041992, -0.0112305, -26.3414631, -13.780488, -90.3658524, -0.3380484
-1.1416016, 0.3378906, -0.0043945, -26.9512196, -14.5121956, -89.7560959, -0.3509728
-1.1450195, 0.3417969, 0.0048828, -27.0731716, -14.7560978, -89.3292694, -0.3620508
-1.1328125, 0.3481445, 0.0175781, -27.9268303, -14.4512196, -89.0243912, -0.3593652
-1.1206055, 0.3378906, 0.0249023, -28.2317085, -13.780488, -88.9024429, -0.360708
-1.1157227, 0.3286133, 0.0317383, -29.9390259, -12.2560978, -88.9024429, -0.3808499
-1.1201172, 0.3037109, 0.0615234, -30.4878063, -11.8292685, -88.7195129, -0.411902
-1.1235352, 0.2949219, 0.0820312, -30.6707325, -11.8902445, -87.4390259, -0.4261692
-1.1103516, 0.2832031, 0.1054688, -30.5487804, -11.5853662, -85.7317123, -0.4348974
-1.0996094, 0.2685547, 0.1044922, -31.4024391, -9.0853662, -83.4146347, -0.4387579
-1.0883789, 0.2402344, 0.105957, -32.1341476, -7.8658538, -82.5, -0.4382544
-1.0874023, 0.2294922, 0.1123047, -33.2317085, -5.7317076, -80.6097565, -0.4318761
-1.0820312, 0.2241211, 0.1157227, -32.4390259, -5.4268293, -78.0487823, -0.4446326
-1.081543, 0.2241211, 0.1176758, -31.8292694, -5.1219511, -75.8536606, -0.4614176
-1.081543, 0.2387695, 0.1196289, -29.6341476, -4.0243902, -71.4024429, -0.4577249
-1.0688477, 0.2470703, 0.1054688, -28.841465, -3.4756098, -69.2682953, -0.4543679
-1.0717773, 0.2504883, 0.0927734, -28.1097565, -2.6219513, -67.1951218, -0.4439612
-1.0805664, 0.2524414, 0.0585938, -27.8658543, -2.5, -66.4024429, -0.428687
-1.0888672, 0.2543945, 0.0361328, -27.3170738, -3.1097562, -65.7317123, -0.4060273
-1.1196289, 0.2666016, -0.0083008, -27.3170738, -3.6585367, -64.8170776, -0.4117342
-1.1391602, 0.2661133, -0.0273438, -26.8292694, -5.4878049, -62.8048782, -0.3810178
-1.1713867, 0.2661133, -0.0478516, -26.1585369, -6.8292685, -61.7073174, -0.3442588
-1.1850586, 0.2685547, -0.0507812, -25.3658543, -9.5121956, -59.6341476, -0.3147173
-1.206543, 0.2792969, -0.0439453, -24.3292694, -12.3780489, -57.68293, -0.2821546
-1.2055664, 0.2973633, -0.0322266, -23.9634151, -13.3536587, -56.8902435, -0.2328069
-1.1977539, 0.3022461, -0.0253906, -23.2317085, -14.7560978, -55.3048782, -0.2230716
-1.1694336, 0.3144531, -0.0048828, -22.7439022, -15, -54.5731735, -0.2076295
-1.1523438, 0.3178711, 0.0039062, -22.2560978, -15.4878054, -53.2317085, -0.1587854
-1.1074219, 0.3188477, 0.0224609, -22.1341476, -15.9756098, -53.1097565, -0.1243763
-1.081543, 0.315918, 0.0336914, -22.3780499, -16.3414631, -52.8658562, -0.0847639
-1.0400391, 0.296875, 0.0483398, -22.1341476, -16.2195129, -53.2926826, -0.0683146
-1.0307617, 0.2851562, 0.0507812, -20.9756107, -15, -53.4756126, -0.0538796
-1.019043, 0.2587891, 0.0522461, -20.2439022, -15.9756098, -53.5365868, -0.0229953
-1.0185547, 0.2490234, 0.0610352, -19.8170738, -16.6463413, -53.1097565, 0.014435
-1.0317383, 0.2373047, 0.0839844, -19.2682934, -17.9878044, -50.7317085, 0.0488441
-1.0351562, 0.2294922, 0.0888672, -18.8414631, -18.1707325, -49.2073174, 0.0491798
-1.0380859, 0.2294922, 0.0820312, -18.8414631, -17.0121956, -45.3658562, 0.0740215
-1.0371094, 0.2202148, 0.0761719, -18.9024391, -16.6463413, -43.7804871, 0.0908064
-1.0395508, 0.2270508, 0.081543, -19.6951218, -16.5853653, -40.8536606, 0.1038987
-1.0454102, 0.2285156, 0.1342773, -19.8780499, -16.8292694, -38.9024391, 0.1225299
-1.0395508, 0.2280273, 0.1694336, -19.1463413, -17.439024, -36.341465, 0.1502251
-1.0083008, 0.2226562, 0.2001953, -18.780489, -16.4634151, -35.1829262, 0.1367971
-0.9882812, 0.2119141, 0.1865234, -19.3292694, -10.7317076, -34.3292694, 0.1099413
-0.9707031, 0.1870117, 0.1503906, -20.6707325, -4.7560978, -34.2073174, 0.1132982
-0.9672852, 0.1728516, 0.1357422, -20.7317085, -3.3536587, -33.4756088, 0.1139696
-0.9829102, 0.1552734, 0.1035156, -19.7560978, -4.2073174, -29.7560978, 0.1116197
-0.9946289, 0.1542969, 0.097168, -18.2926826, -5.3048782, -27.0121956, 0.117998
-0.9960938, 0.1655273, 0.1015625, -14.3902445, -6.5243902, -20.3658543, 0.1287404
-0.9858398, 0.1835938, 0.109375, -12.5, -6.6463418, -17.2560978, 0.0874495
-0.9790039, 0.1923828, 0.1015625, -8.4756098, -5.0609756, -13.2317076, 0.081239
-0.9633789, 0.1992188, 0.0791016, -6.890244, -4.2073174, -12.560976, 0.0743572
-0.9663086, 0.1938477, 0.0673828, -5.1219511, -3.5975611, -12.8048782, 0.0777142
-0.9707031, 0.1948242, 0.0532227, -4.5731707, -3.9634147, -13.2926836, 0.0740215
-0.9736328, 0.1967773, 0.0532227, -3.2317073, -4.7560978, -12.1951218, 0.1010452
-0.9785156, 0.2060547, 0.0512695, -1.7073171, -5.4268293, -8.2926826, 0.096849
-0.9707031, 0.2128906, 0.0444336, -0.7317073, -5.5487804, -5.7317076, 0.072343
-0.9550781, 0.2211914, 0.0444336, 0.4878049, -5.9146342, -1.7073171, 0.0822461
-0.9331055, 0.2260742, 0.0483398, 1.1585366, -6.280488, -0.1829268, 0.0803998
-0.9194336, 0.2255859, 0.0527344, 2.4390244, -6.7073174, 1.1585366, 0.0918135
-0.9038086, 0.2333984, 0.0473633, 3.5365853, -6.3414636, 1.2804878, 0.103563
-0.8964844, 0.2329102, 0.0380859, 5.609756, -5.9146342, 1.3414634, 0.1052415
-0.8984375, 0.2314453, 0.0356445, 6.3414636, -5.609756, 1.2804878, 0.1186694
-0.8994141, 0.2207031, 0.0405273, 8.3536587, -6.8292685, 2.3780489, 0.1500572
-0.9057617, 0.2148438, 0.0444336, 8.9024391, -7.5, 3.4756098, 0.1958801
-0.9013672, 0.2080078, 0.0507812, 9.5731707, -7.9268293, 5.2439027, 0.2005798
-0.9003906, 0.1962891, 0.0786133, 9.6951218, -6.9512196, 8.2926826, 0.2197147
-0.8979492, 0.1879883, 0.09375, 10.3658543, -6.4634147, 9.6341467, 0.2542916
-0.8808594, 0.1767578, 0.1186523, 11.4634151, -5.8536587, 12.5, 0.2834974
-0.8608398, 0.1811523, 0.1157227, 11.8902445, -5.4878049, 14.0853662, 0.2944076
-0.8505859, 0.1855469, 0.1049805, 13.3536587, -3.5365853, 17.6829281, 0.3474479
-0.8349609, 0.1958008, 0.0830078, 14.2073174, -2.5609756, 19.6341476, 0.3691005
-0.8378906, 0.2041016, 0.0688477, 17.1951218, -2.0121951, 23.6585369, 0.3821927
-0.8530273, 0.2285156, 0.043457, 18.3536587, -3.0487804, 25.4878063, 0.4066987
-0.8623047, 0.2460938, 0.0351562, 20.5487804, -6.2195125, 28.780489, 0.4265049
-0.8696289, 0.2768555, 0.0322266, 21.280489, -7.1951222, 30, 0.4463111
-0.8764648, 0.2885742, 0.0400391, 21.3414631, -8.1707315, 31.1585369, 0.4654459
-0.887207, 0.296875, 0.0493164, 21.0365868, -7.4390244, 30.8536587, 0.4919661
-0.890625, 0.2905273, 0.0522461, 20.9146347, -7.0121951, 30.4268303, 0.4738384
-0.8979492, 0.2719727, 0.0610352, 20.9146347, -6.2195125, 29.5121956, 0.4859236
-0.9130859, 0.2519531, 0.0766602, 21.2195129, -6.0365853, 29.3902454, 0.5151293
-0.9194336, 0.2402344, 0.0751953, 22.8048782, -5.0609756, 31.1585369, 0.5164721
-0.9199219, 0.2236328, 0.0576172, 23.5975609, -4.5121951, 32.5609779, 0.5206683
-0.925293, 0.2202148, 0.0429688, 25, -3.9024391, 36.0365868, 0.5413138
-0.9438477, 0.2368164, 0.0268555, 25.4268303, -4.6341462, 38.2317085, 0.5117723
-0.9545898, 0.253418, 0.0297852, 26.7073174, -6.4634147, 43.9024391, 0.4775311
-0.949707, 0.2919922, 0.034668, 27.3780499, -7.3780489, 46.4634171, 0.4563821
-0.9458008, 0.3076172, 0.0322266, 28.2926826, -7.2560978, 49.6341476, 0.4303655
-0.9169922, 0.3105469, 0.034668, 28.5365868, -5.4268293, 49.1463432, 0.4181125
-0.9125977, 0.3027344, 0.0297852, 28.4146347, -4.6341462, 47.5609779, 0.3932708
-0.9326172, 0.2895508, 0.0292969, 29.4512196, -5, 45.1829262, 0.3677577
-0.9648438, 0.2949219, 0.0527344, 29.8780499, -6.2195125, 45.5487823, 0.3553368
-0.9711914, 0.300293, 0.0595703, 31.0975609, -7.8048782, 49.2682953, 0.3341878
-0.9702148, 0.3046875, 0.0610352, 30.9756107, -7.1341467, 51.7682953, 0.3096818
-0.9628906, 0.3017578, 0.0512695, 29.6951218, -5.2439027, 56.5243912, 0.2569772
-0.9589844, 0.2851562, 0.027832, 29.2073174, -3.9634147, 57.7439041, 0.2292821
-0.9707031, 0.2783203, 0.0229492, 28.6585369, -3.5365853, 58.5975609, 0.2089723
-0.9951172, 0.2597656, 0.0288086, 29.3902454, -4.1463413, 59.2682953, 0.1931945
-1.0180664, 0.2602539, 0.034668, 32.5, -6.9512196, 61.0365868, 0.1817807
-1.0478516, 0.2871094, 0.0561523, 36.0365868, -9.0853662, 64.6341476, 0.1811093
-1.0561523, 0.3032227, 0.0600586, 37.8048782, -9.0853662, 67.1951218, 0.1485466
-1.046875, 0.3344727, 0.0375977, 39.2073174, -6.0975609, 72.1341476, 0.1096056
-1.0429688, 0.3515625, 0.0258789, 39.8170738, -4.2073174, 74.0853653, 0.1025559
-1.046875, 0.3618164, 0.0361328, 41.8902435, -3.9634147, 75.7926865, 0.0981918
-1.0498047, 0.3745117, 0.0571289, 42.8048782, -5.3048782, 75.7926865, 0.0770428
-1.0458984, 0.3803711, 0.0678711, 44.9390259, -6.280488, 76.7682953, 0.0803998
-1.050293, 0.390625, 0.0683594, 45.0609779, -5.4878049, 77.1951218, 0.0904707
-1.0556641, 0.390625, 0.065918, 43.9024391, -2.6219513, 78.3536606, 0.0746929
-1.0703125, 0.3764648, 0.050293, 42.8048782, -0.7317073, 79.146347, 0.0908064
-1.081543, 0.3623047, 0.0415039, 40.4268303, 0.7317073, 81.2195129, 0.102388
-1.1147461, 0.3344727, 0.0239258, 40.3658562, 1.0365853, 84.4512253, 0.0911421
-1.1352539, 0.3286133, 0.0297852, 40.7317085, 0.3658537, 86.5853653, 0.0924849
-1.1582031, 0.3295898, 0.059082, 43.5365868, -0.9756098, 91.5243912, 0.1166552
-1.1552734, 0.3496094, 0.0649414, 45.4878044, -0.4878049, 94.3292694, 0.1166552
-1.1533203, 0.371582, 0.0483398, 50.1219521, 2.6219513, 99.6341476, 0.0985275
-1.1508789, 0.4057617, 0.0092773, 51.8292694, 3.9024391, 101.646347, 0.1132982
-1.1499023, 0.4208984, 0.0053711, 52.3780518, 3.4756098, 104.2682953, 0.1200122
-1.1333008, 0.4511719, 0.0097656, 52.2560997, 3.0487804, 105.1219559, 0.1250477
-1.1259766, 0.4594727, 0.0126953, 52.0121956, 3.5365853, 106.0975647, 0.1156481
-1.1137695, 0.4702148, -0.003418, 52.0121956, 4.4512196, 106.7073212, 0.1149767
-1.1157227, 0.4711914, -0.0219727, 53.1097565, 6.2195125, 107.3780518, 0.1183337
-1.1357422, 0.4545898, -0.0498047, 53.6585388, 5.670732, 108.5975647, 0.124712
-1.1557617, 0.4472656, -0.0415039, 53.6585388, 3.5975611, 108.9634171, 0.1267262
-1.1845703, 0.4360352, 0.0102539, 53.1707344, 0.7317073, 110.4878082, 0.0931563
-1.1938477, 0.4262695, 0.0595703, 53.5975609, 1.402439, 111.9512253, 0.0676432
-1.1943359, 0.4257812, 0.0786133, 55.6097565, 5.8536587, 115.18293, 0.0575723
-1.1879883, 0.4277344, 0.0854492, 56.8292694, 8.3536587, 117.0121994, 0.054551
-1.1796875, 0.4204102, 0.0737305, 59.0853691, 13.1707315, 120.1219559, 0.0344091
-1.1611328, 0.3969727, 0.0385742, 59.5731735, 14.4512196, 121.0365906, 0.0218204
-1.1621094, 0.3876953, 0.0219727, 60.6097565, 15.9756098, 122.4390259, -0.0323949
-1.1826172, 0.4018555, 0.0009766, 61.341465, 15.5487804, 124.2073212, -0.0889601
-1.190918, 0.4208984, 0.0024414, 62.2560997, 14.6341467, 130.7317047, -0.1096056
-1.1845703, 0.4736328, 0.0029297, 64.0243912, 15, 138.7195129, -0.1351186
-1.1650391, 0.5, 0.0053711, 65.0609741, 16.4024391, 142.1951294, -0.149218
-1.1352539, 0.5224609, -0.003418, 67.0121994, 19.6341476, 144.0853729, -0.1700313
-1.1191406, 0.5102539, -0.0131836, 67.5, 20.5487804, 142.3170776, -0.1972229
-1.1240234, 0.496582, -0.0141602, 66.7682953, 21.280489, 136.646347, -0.2487526
-1.1606445, 0.4838867, 0.0063477, 67.2560959, 21.9512196, 135, -0.2734264
-1.1796875, 0.4829102, 0.0136719, 68.7195129, 23.4756107, 136.5853729, -0.2949111
-1.1850586, 0.4765625, 0.0283203, 69.5731735, 24.9390259, 139.2073212, -0.3194171
-1.1767578, 0.4697266, 0.0366211, 71.7073212, 29.7560978, 145.7317047, -0.3422446
-1.1523438, 0.4575195, 0.0161133, 73.2926865, 32.3170738, 147.9878082, -0.3409018
-1.1416016, 0.4506836, -0.0068359, 74.7560959, 34.8170738, 149.2682953, -0.3667506
-1.1650391, 0.4677734, -0.0737305, 75.4878082, 35.4268303, 150.6707306, -0.4085451
-1.1914062, 0.4863281, -0.0961914, 75.3658524, 35.1219521, 152.8048859, -0.4206302
-1.2270508, 0.5273438, -0.1113281, 75.4268341, 33.2317085, 158.5975647, -0.4171054
-1.2163086, 0.5600586, -0.1152344, 76.2195129, 32.8658562, 161.646347, -0.4157626
-1.2080078, 0.5629883, -0.1147461, 77.0731735, 33.841465, 163.1097565, -0.4278477
-1.1928711, 0.5585938, -0.0932617, 77.4390259, 33.841465, 161.9512177, -0.4228122
-1.1914062, 0.550293, -0.0766602, 77.68293, 34.6951218, 157.5609741, -0.411902
-1.1972656, 0.5444336, -0.0668945, 78.1097565, 35.7926826, 156.1585388, -0.3845426
-1.1953125, 0.5380859, -0.0639648, 78.2926865, 38.7804871, 156.8902435, -0.3427481
-1.1914062, 0.5205078, -0.065918, 78.9024429, 39.6951218, 158.4756165, -0.3521477
-1.1860352, 0.5180664, -0.0708008, 81.0365906, 41.341465, 162.5, -0.3499657
-1.1982422, 0.5185547, -0.0751953, 82.8658524, 40.4268303, 165.9756165, -0.3294881
-1.2094727, 0.5336914, -0.0571289, 83.4146347, 39.2073174, 167.3780518, -0.3066606
-1.215332, 0.5439453, -0.0498047, 83.1707306, 40.1219521, 169.8170776, -0.2834974
-1.2202148, 0.5546875, -0.027832, 83.4756088, 41.5853653, 170.8536682, -0.2445563
-1.21875, 0.5507812, -0.0366211, 84.6341476, 44.8170738, 171.5243988, -0.2277714
-1.2265625, 0.5444336, -0.0732422, 85.7317123, 46.4024391, 171.5243988, -0.2190433
-1.2329102, 0.5415039, -0.0966797, 87.6219559, 47.2560997, 171.2804871, -0.1999084
-1.2563477, 0.5332031, -0.125, 87.6219559, 46.9512215, 171.4634247, -0.1821164
-1.262207, 0.5380859, -0.1308594, 87.8048782, 46.9512215, 174.7561035, -0.1754025
-1.2700195, 0.5693359, -0.1303711, 87.6219559, 47.0121956, 180.4268341, -0.1502251
-1.2612305, 0.5776367, -0.1269531, 87.6219559, 47.6219521, 182.9268341, -0.1331044
-1.2324219, 0.5834961, -0.1318359, 88.2926865, 49.1463432, 185.2439117, -0.1508965
-1.2329102, 0.5849609, -0.1762695, 88.7195129, 50.0609779, 184.6341553, -0.1404898
-1.2504883, 0.5834961, -0.2036133, 89.0243912, 50.7317085, 182.6219482, -0.1398184
-1.2910156, 0.5844727, -0.2509766, 88.4146347, 50.6707344, 182.2561035, -0.1347829
-1.3139648, 0.5854492, -0.262207, 87.68293, 49.6951218, 183.9634247, -0.1408255
-1.3291016, 0.5932617, -0.2475586, 87.9878082, 49.2682953, 185.7317047, -0.1273976
-1.3173828, 0.5996094, -0.2392578, 89.5731735, 49.6341476, 189.8780518, -0.1445182
-1.2714844, 0.5976562, -0.253418, 90.4878082, 50.4878044, 191.0975647, -0.2009155
-1.2548828, 0.6030273, -0.2592773, 91.7073212, 53.1097565, 190.2439117, -0.2153506
-1.2436523, 0.6000977, -0.2636719, 92.1951218, 52.5, 188.1097565, -0.2205539
-1.2436523, 0.6069336, -0.2661133, 93.1097565, 52.4390259, 187.9268341, -0.2240787
-1.2529297, 0.6123047, -0.2705078, 96.3414688, 52.8658562, 189.8780518, -0.2299535
-1.246582, 0.6083984, -0.3120117, 97.5609741, 52.9268303, 190.6707306, -0.2667124
-1.253418, 0.6049805, -0.3349609, 98.5975647, 52.8658562, 191.8292694, -0.2878614
-1.2832031, 0.6132812, -0.355957, 98.9634171, 52.4390259, 191.9512177, -0.3076677
-1.2954102, 0.6166992, -0.3491211, 99.6341476, 50.3658562, 192.7439117, -0.3130388
-1.2944336, 0.625, -0.3076172, 100.6707306, 50.0609779, 193.2926941, -0.3503014
-1.2802734, 0.6264648, -0.2861328, 103.6585388, 51.0365868, 193.6585388, -0.3697719
-1.2460938, 0.6269531, -0.2832031, 104.9390259, 52.3170738, 193.0487823, -0.3721218
-1.2314453, 0.6313477, -0.2963867, 106.4634171, 56.1585388, 191.5243988, -0.3778286
-1.2231445, 0.6176758, -0.3012695, 106.9512253, 57.8658562, 190.3048859, -0.3788357
-1.2099609, 0.6132812, -0.3022461, 107.1951218, 57.5, 190.0609741, -0.3660792
-1.1953125, 0.6191406, -0.3330078, 108.3536606, 59.5731735, 191.1585388, -0.3771572
-1.1928711, 0.6313477, -0.3291016, 109.0243912, 59.9390259, 192.7439117, -0.4036774
-1.1743164, 0.6376953, -0.3295898, 110.36586, 60.5487823, 194.6951294, -0.4070344
-1.1430664, 0.6542969, -0.3125, 110.9756088, 61.2804909, 194.7561035, -0.4050202
-1.1279297, 0.6616211, -0.3076172, 111.3414688, 64.2682953, 192.6829376, -0.3895781
-1.1132812, 0.6582031, -0.3149414, 111.7073212, 65.8536606, 191.1585388, -0.3689326
-1.1098633, 0.6621094, -0.3217773, 112.8048782, 68.7195129, 189.3902435, -0.3264668
-1.1000977, 0.6591797, -0.3740234, 113.5975647, 70.2439041, 189.0853729, -0.3298238
-1.1035156, 0.6469727, -0.4125977, 115.0609818, 72.5609741, 188.5975647, -0.3113603
-1.1474609, 0.625, -0.4599609, 116.1585388, 72.1951218, 188.9634247, -0.2801404
-1.171875, 0.6176758, -0.4628906, 117.3170776, 70.9146347, 189.6341553, -0.2615091
-1.199707, 0.6323242, -0.4228516, 119.3902435, 69.3292694, 192.7439117, -0.2364996
-1.1757812, 0.6665039, -0.3891602, 120.8536606, 69.8780518, 194.0853729, -0.1807736
-1.1479492, 0.6826172, -0.3955078, 121.7073212, 74.3292694, 194.8170776, -0.1566033
-1.1035156, 0.6826172, -0.4335938, 121.5243912, 77.1341476, 193.9024506, -0.152575
-1.1005859, 0.6743164, -0.4414062, 122.4390259, 79.3902435, 190.0609741, -0.128069
-1.0981445, 0.6748047, -0.4331055, 123.2926865, 78.5975647, 188.5975647, -0.0995346
-1.0869141, 0.6782227, -0.4282227, 124.8170776, 77.9878082, 187.86586, -0.0679789
-1.0566406, 0.7021484, -0.4233398, 124.8780518, 79.4512177, 188.2317047, -0.0480049
-1.0395508, 0.7094727, -0.4350586, 124.6951218, 83.2317123, 189.6341553, -0.0384375
-1.0102539, 0.7055664, -0.4775391, 124.2682953, 85.9756088, 189.0243988, -0.0256809
-1.0043945, 0.6953125, -0.4814453, 123.6585388, 85.6097565, 187.9268341, -0.0041962
-1.0102539, 0.6928711, -0.456543, 124.5731735, 84.0853653, 186.0975647, 0.0132601
-0.9975586, 0.7080078, -0.4394531, 125.18293, 84.8780518, 185.9146423, -0.0068818
-0.9926758, 0.706543, -0.4360352, 125.9146347, 88.6585388, 186.2804871, -0.0008392
-0.9882812, 0.6904297, -0.4511719, 125.9146347, 90.8536606, 185.8536682, 0.0045319
-0.9956055, 0.6860352, -0.4536133, 125.9756165, 92.9268341, 184.0853729, 0.0070497
-1.0039062, 0.6962891, -0.4443359, 126.4024429, 93.4756088, 183.9634247, -0.002182
-0.9970703, 0.7060547, -0.4492188, 127.3170776, 95.6097565, 185.4268341, -0.0001678
-0.9599609, 0.7246094, -0.4780273, 127.1951218, 97.3780518, 186.2804871, -0.0224918
-0.9404297, 0.7290039, -0.4956055, 125.4268341, 100.4268341, 186.5243988, -0.0439765
-0.90625, 0.7114258, -0.5297852, 124.0853653, 102.3170776, 184.9390259, -0.0454871
-0.9067383, 0.6938477, -0.5341797, 124.146347, 102.6219559, 183.5975647, -0.0451514
-0.9311523, 0.6831055, -0.5458984, 126.0365906, 101.8292694, 182.5, -0.0587472
-0.9545898, 0.6870117, -0.5517578, 127.0121994, 102.1341476, 183.1707306, -0.0718395
-0.9560547, 0.6967773, -0.5537109, 128.4756165, 103.5975647, 185.4268341, -0.0683146
-0.9321289, 0.7158203, -0.5625, 128.3536682, 104.2682953, 186.7073212, -0.1065843
-0.9121094, 0.7143555, -0.5581055, 127.0121994, 105.9756088, 186.7682953, -0.1193408
-0.8720703, 0.7114258, -0.5419922, 126.2195129, 106.8292694, 185.9146423, -0.111284
-0.8608398, 0.7133789, -0.5371094, 126.7682953, 108.7804871, 183.2926941, -0.1156481
-0.831543, 0.7363281, -0.5581055, 127.4390259, 109.3902435, 182.6219482, -0.110277
-0.8144531, 0.7485352, -0.5947266, 127.3780518, 111.8292694, 183.4146423, -0.0847639
-0.7910156, 0.7675781, -0.6079102, 124.8780518, 112.5, 184.6341553, -0.0834211
-0.7739258, 0.7695312, -0.5825195, 123.3536606, 112.0731735, 184.5731812, -0.0981918
-0.722168, 0.7568359, -0.534668, 122.3780518, 113.5975647, 181.7073212, -0.0740215
-0.6894531, 0.7255859, -0.5385742, 122.9878082, 115.9756088, 179.146347, -0.0540475
-0.6923828, 0.7202148, -0.5717773, 123.3536606, 120.5487823, 175.1829376, -0.0364233
-0.7216797, 0.7182617, -0.6367188, 122.5, 122.1951218, 174.5121918, -0.0223239
-0.7299805, 0.722168, -0.6489258, 121.5853653, 121.5853653, 177.3780518, 0.0048676
-0.7192383, 0.7402344, -0.6489258, 121.5853653, 121.0365906, 179.7561035, 0.0498512
-0.7036133, 0.7509766, -0.644043, 122.2561035, 121.0975647, 182.3170776, 0.0830854
-0.6699219, 0.7724609, -0.6098633, 122.0731735, 122.0121994, 182.0121918, 0.111284
-0.6557617, 0.7832031, -0.5957031, 121.646347, 124.0853653, 178.4146423, 0.1106126
-0.6123047, 0.784668, -0.5869141, 120.7317123, 127.6219559, 173.2926941, 0.1297475
-0.5913086, 0.7768555, -0.5966797, 120.0609818, 130.4268341, 171.3414612, 0.1574426
-0.5600586, 0.7387695, -0.6650391, 118.5365906, 134.4512177, 169.146347, 0.1864805
-0.5664062, 0.7094727, -0.7080078, 117.9268341, 134.9390259, 168.9634247, 0.2156863
-0.5703125, 0.7021484, -0.7050781, 116.9512253, 132.5609741, 170.9146423, 0.2626841
-0.5732422, 0.722168, -0.7084961, 116.8292694, 131.2804871, 172.9268341, 0.2855116
-0.5693359, 0.7363281, -0.7250977, 115.6097565, 132.6829224, 176.3414612, 0.2834974
-0.5649414, 0.765625, -0.7294922, 114.8780518, 133.3536682, 177.0731812, 0.3140459
-0.5507812, 0.7773438, -0.7246094, 112.68293, 132.1341553, 176.2195129, 0.3378805
-0.512207, 0.7836914, -0.7280273, 110.7926865, 132.2561035, 174.6951294, 0.3513085
-0.4931641, 0.7851562, -0.7382812, 107.0121994, 133.9634247, 170.6707306, 0.3714504
-0.465332, 0.7724609, -0.7768555, 103.2317123, 134.8170776, 168.2926941, 0.3925994
-0.4536133, 0.7612305, -0.7797852, 101.7682953, 133.9024353, 168.2317047, 0.3731289
-0.4282227, 0.75, -0.7827148, 99.8780518, 131.8902435, 168.7804871, 0.3704433
-0.4169922, 0.7563477, -0.8227539, 98.9634171, 131.3414612, 168.5975647, 0.385214
-0.4155273, 0.7695312, -0.8549805, 95.18293, 130.9146423, 169.4512177, 0.3816892
-0.4223633, 0.7915039, -0.9311523, 92.3170776, 130.2439117, 169.6341553, 0.3743038
-0.421875, 0.8061523, -0.9501953, 87.1951218, 126.5853653, 170, 0.3748074
-0.4165039, 0.8164062, -0.9638672, 84.8170776, 123.4756088, 170, 0.3380484
-0.4106445, 0.8164062, -0.9677734, 80.9146347, 118.3536606, 167.8048859, 0.3026322
-0.4038086, 0.8208008, -0.9399414, 79.8170776, 116.2804871, 166.3414612, 0.2881971
-0.3916016, 0.8222656, -0.9130859, 77.1951218, 112.6219559, 163.5975647, 0.2702373
-0.3339844, 0.8037109, -0.8193359, 75.18293, 111.0975647, 160.2439117, 0.2621805
-0.2866211, 0.7875977, -0.7817383, 74.4512177, 111.9512253, 157.9268341, 0.2232395
-0.2001953, 0.7475586, -0.7416992, 74.1463394, 117.0121994, 154.7561035, 0.1891661
-0.1318359, 0.7080078, -0.7631836, 74.8780518, 120, 154.2682953, 0.1701991
-0.1113281, 0.6938477, -0.7861328, 75.4268341, 122.0731735, 154.6951294, 0.156939
-0.0981445, 0.7119141, -0.8198242, 75.1219559, 121.7682953, 155.9146423, 0.1512322
-0.0996094, 0.7392578, -0.8349609, 72.1341476, 121.8902435, 159.4512177, 0.1079271
-0.0991211, 0.7910156, -0.8608398, 70.7317123, 122.5609818, 160.8536682, 0.1028916
-0.0957031, 0.7973633, -0.8540039, 68.5975647, 124.8780518, 161.8292694, 0.0951705
-0.1015625, 0.7792969, -0.8032227, 67.3780518, 125.4268341, 160.1219482, 0.0840925
-0.105957, 0.7597656, -0.7802734, 65.4268341, 126.7682953, 153.7804871, 0.072343
-0.1166992, 0.7202148, -0.7426758, 63.7804909, 130.9756165, 148.9634247, 0.0839246
-0.1210938, 0.7094727, -0.7353516, 62.68293, 133.5365906, 148.8414612, 0.0639506
-0.1044922, 0.6914062, -0.7568359, 61.341465, 138.6585388, 152.6829376, 0.0320592
-0.0751953, 0.6791992, -0.7753906, 61.0365868, 140.36586, 155.0609741, 0.0327306
-0.0537109, 0.6733398, -0.7773438, 60.4878044, 141.5853729, 158.2317047, 0.0293736
-0.0322266, 0.6572266, -0.7866211, 61.0975609, 142.1951294, 158.5365906, 0.0421302
-0.0366211, 0.6601562, -0.7963867, 62.0731735, 143.1707306, 156.8292694, 0.0746929
-0.0727539, 0.6655273, -0.8325195, 62.1341476, 143.1097565, 156.646347, 0.1065843
-0.0957031, 0.6728516, -0.8549805, 62.3780518, 143.0487823, 158.0487823, 0.0904707
-0.1342773, 0.6992188, -0.8857422, 62.5609779, 142.8048859, 159.8170776, 0.0874495
-0.1479492, 0.7099609, -0.8837891, 61.5243912, 140.6707306, 163.5365906, 0.0944991
-0.1391602, 0.7138672, -0.8554688, 60.6097565, 139.146347, 164.7561035, 0.1193408
-0.1323242, 0.7124023, -0.8422852, 60.4878044, 139.5731812, 164.5121918, 0.1399863
-0.128418, 0.7231445, -0.8261719, 60.9756126, 140.6097565, 163.4146423, 0.173724
-0.1020508, 0.7324219, -0.8256836, 61.7073174, 140.9756165, 163.8414612, 0.1757382
-0.0766602, 0.7270508, -0.8193359, 62.3170738, 141.8292694, 164.6951294, 0.1574426
-0.0234375, 0.7011719, -0.784668, 62.2560997, 141.7682953, 164.8780518, 0.191516
-0.0043945, 0.6943359, -0.7709961, 60.4878044, 142.5609741, 163.4756165, 0.1989014
0.0244141, 0.6914062, -0.7729492, 60.2439041, 144.3902435, 163.4146423, 0.19823
0.0200195, 0.6992188, -0.7817383, 60.6097565, 147.86586, 164.2073212, 0.1925231
0.0083008, 0.7333984, -0.8032227, 60.5487823, 148.4146423, 165.4268341, 0.1905089
0.0131836, 0.7480469, -0.8095703, 59.5731735, 148.3536682, 165.4268341, 0.1931945
0.0107422, 0.7685547, -0.8237305, 57.5609779, 150.5487823, 163.7804871, 0.1918517
-0.0112305, 0.7612305, -0.8530273, 56.7073174, 151.8902435, 162.2561035, 0.1911803
-0.0249023, 0.753418, -0.8647461, 55.1219521, 152.9268341, 159.0243988, 0.1639887
-0.0361328, 0.7436523, -0.8452148, 54.5121956, 152.5, 158.1097565, 0.1596246
-0.03125, 0.7392578, -0.8100586, 52.9268303, 151.9512177, 156.9512177, 0.1448539
0.0009766, 0.7163086, -0.7768555, 52.2560997, 153.1707306, 156.5853729, 0.1153124
0.0136719, 0.7075195, -0.7885742, 51.341465, 157.9878082, 155.1829376, 0.0948348
0.0263672, 0.6923828, -0.8388672, 50.7926826, 159.8780518, 154.6951294, 0.0884565
0.019043, 0.6884766, -0.8632812, 49.5731735, 161.0365906, 154.5731812, 0.0602579
-0.0126953, 0.7006836, -0.8911133, 47.6219521, 159.0853729, 155, 0.0219883
-0.0263672, 0.7109375, -0.8984375, 46.0975609, 158.5975647, 154.8780518, 0.0087282
-0.0527344, 0.7241211, -0.9287109, 42.7439041, 157.9268341, 153.7195129, -0.0206455
-0.0888672, 0.7329102, -0.9423828, 41.2195129, 157.6829376, 153.1097565, -0.0505226
-0.097168, 0.7382812, -0.9335938, 37.5609779, 155.2439117, 151.8292694, -0.0686503
-0.0800781, 0.7426758, -0.8950195, 35.9756088, 154.3902435, 151.2804871, -0.0753643
-0.0600586, 0.7392578, -0.8764648, 33.2926826, 154.6951294, 149.6341553, -0.1243763
-0.0112305, 0.7192383, -0.8603516, 32.2560997, 155.36586, 148.6585388, -0.1438468
0.015625, 0.7021484, -0.862793, 30.060976, 157.2561035, 146.0975647, -0.1482109
0.0419922, 0.6518555, -0.8598633, 28.9634151, 157.9268341, 145.1829376, -0.1633173
0.0366211, 0.6425781, -0.859375, 27.2560978, 158.2317047, 143.7804871, -0.1713741
-0.0058594, 0.6450195, -0.8681641, 27.0121956, 158.0487823, 144.5731812, -0.1688563
-0.0244141, 0.6577148, -0.8681641, 27.0121956, 158.1097565, 145.0609741, -0.1861448
-0.050293, 0.6845703, -0.8618164, 26.4634151, 158.4756165, 144.5731812, -0.2062867
-0.050293, 0.7016602, -0.8422852, 25.8536587, 159.0853729, 144.0243988, -0.2062867
-0.0332031, 0.6923828, -0.8393555, 25.1829281, 161.7073212, 141.2195129, -0.2029297
-0.0009766, 0.640625, -0.8427734, 25.4268303, 163.2317047, 139.5731812, -0.1895018
0.0004883, 0.6171875, -0.8486328, 25.9146347, 164.0243988, 135.6707306, -0.1653315
-0.0029297, 0.5957031, -0.8500977, 25.7926826, 163.9634247, 135.0609741, -0.1398184
0.0019531, 0.5961914, -0.8535156, 26.2195129, 164.3292694, 135.7926788, -0.1089342
0.0029297, 0.6025391, -0.8701172, 26.2195129, 165, 136.646347, -0.0830854
-0.0024414, 0.6098633, -0.8710938, 25.9756107, 165.1829376, 137.1951294, -0.0669718
-0.0141602, 0.628418, -0.8793945, 25.6707325, 163.5975647, 135.1219482, -0.0652934
-0.0200195, 0.6430664, -0.8916016, 25.1219521, 163.1097565, 134.2073212, -0.0350805
-0.0209961, 0.6816406, -0.8676758, 22.8048782, 161.7073212, 133.2926788, -0.0109102
0.0371094, 0.6630859, -0.7807617, 21.6463413, 161.2804871, 131.8902435, -0.0005035
0.0761719, 0.6303711, -0.7529297, 19.3292694, 163.5975647, 126.0365906, 0.0052033
0.1049805, 0.5634766, -0.7661133, 18.780489, 166.1585388, 122.68293, 0.0354162
0.0922852, 0.5410156, -0.7929688, 19.1463413, 168.0487823, 119.5121994, 0.0280308
0.0478516, 0.5551758, -0.8193359, 18.8414631, 167.1341553, 120.4878082, 0.0179599
0.0361328, 0.578125, -0.7919922, 17.6829281, 164.7561035, 124.0853653, 0.0293736
0.0639648, 0.5966797, -0.7167969, 16.8292694, 164.5121918, 124.6951218, 0.0377661
0.0786133, 0.5966797, -0.6899414, 16.6463413, 168.8414612, 120.4878082, 0.0495155
0.1025391, 0.5625, -0.6723633, 16.7073174, 172.7439117, 113.9634171, 0.0686503
0.1083984, 0.5415039, -0.6791992, 17.1341476, 174.146347, 111.7682953, 0.0750286
0.1210938, 0.5053711, -0.6772461, 17.5, 175.9146423, 110.9146347, 0.0407874
0.1352539, 0.4975586, -0.6757812, 17.0121956, 176.8902435, 111.646347, 0.0441444
0.1445312, 0.5004883, -0.6767578, 15.9756098, 178.9024506, 113.1707306, 0.0464942
0.1479492, 0.5092773, -0.6791992, 15.5487804, 180.0609741, 113.0487823, 0.0285344
0.1450195, 0.5073242, -0.6826172, 15.8536587, 181.5853729, 111.2195129, 0.0077211
0.1391602, 0.4814453, -0.684082, 16.3414631, 181.9512177, 109.8170776, 0.0045319
0.1357422, 0.4609375, -0.6845703, 16.4024391, 182.0121918, 106.646347, -0.0236667
0.1337891, 0.4101562, -0.7050781, 16.6463413, 182.3780518, 105.5487823, -0.0595865
0.1279297, 0.3881836, -0.7231445, 17.0121956, 184.0243988, 105.5487823, -0.0699931
0.0966797, 0.3803711, -0.7504883, 17.439024, 182.1951294, 108.4146347, -0.0955062
0.0932617, 0.3813477, -0.7543945, 16.8902435, 180.4878082, 110.4268341, -0.1163195
0.0957031, 0.4091797, -0.7504883, 17.0121956, 177.9878082, 112.5, -0.1438468
0.0898438, 0.4521484, -0.737793, 17.1341476, 176.9512177, 112.5, -0.1613031
0.0913086, 0.4648438, -0.7270508, 17.439024, 175.6097565, 111.5243912, -0.1774166
0.1220703, 0.4604492, -0.6987305, 17.3170738, 174.9390259, 110.2439041, -0.1842985
0.1391602, 0.4404297, -0.6757812, 17.0121956, 174.2682953, 106.4634171, -0.1871519
0.1777344, 0.3891602, -0.6435547, 16.5853653, 174.5731812, 104.6951218, -0.223743
0.1875, 0.3740234, -0.6459961, 17.2560978, 175.4268341, 103.5365906, -0.2307927
0.1811523, 0.3808594, -0.6567383, 18.2926826, 175.36586, 104.146347, -0.2351568
0.1845703, 0.3984375, -0.6513672, 18.6585369, 172.7439117, 106.0975647, -0.2411994
0.2026367, 0.4399414, -0.6186523, 17.5, 170.7317047, 106.5243912, -0.2378424
0.2143555, 0.4472656, -0.5888672, 16.8902435, 170.36586, 105.0609818, -0.2130007
0.246582, 0.4335938, -0.5117188, 16.0975609, 170.4878082, 99.2073212, -0.2346532
0.2885742, 0.3789062, -0.4155273, 15.7317076, 171.4024506, 96.2195129, -0.2432136
0.3115234, 0.3505859, -0.3911133, 16.9512196, 175.6097565, 91.3414688, -0.2203861
0.3466797, 0.3007812, -0.4233398, 17.8048782, 178.4756165, 90.2439041, -0.2009155
0.3476562, 0.2958984, -0.4750977, 18.9634151, 181.7682953, 91.0365906, -0.1777523
