Application:, Trigno Discover (1.6.5)
Date/Time:, 04/02/2025 15:58:51
Collection Length (seconds):, 44.9685
wrist (81457), , , , , , bicep (81139)
sensor mode: 609, , , , , , sensor mode: 40
ACC X (G), ACC Y (G), ACC Z (G), GYRO X (deg/s), GYRO Y (deg/s), GYRO Z (deg/s), EMG 1 (mV)
370.3704 Hz, 370.3704 Hz, 370.3704 Hz, 370.3704 Hz, 370.3704 Hz, 370.3704 Hz, 2148.1481 Hz
-0.9946289, 0.1816406, 0.0859375, 84.8170776, 18.9024391, 50.2439041, 0.972015
-0.9897461, 0.1831055, 0.0683594, 82.7439041, 21.280489, 50.0609779, 0.923003
-0.9912109, 0.1860352, 0.0439453, 81.646347, 22.3780499, 49.8780518, 0.8657664
-0.9916992, 0.1855469, 0.0371094, 79.3292694, 23.8414631, 49.2682953, 0.8498207
-0.9916992, 0.1821289, 0.0361328, 78.9024429, 25.9146347, 49.8780518, 0.8431067
-0.9921875, 0.1816406, 0.0263672, 79.0243912, 26.8292694, 49.8170738, 0.8347143
-0.9897461, 0.1796875, -0.0039062, 78.4146347, 26.2195129, 49.5731735, 0.7507897
-0.9863281, 0.1835938, -0.0126953, 77.7439041, 25.060976, 49.3292694, 0.7289693
-0.9814453, 0.1845703, -0.0205078, 75.9756088, 22.8048782, 48.5365868, 0.7155413
-0.9760742, 0.190918, -0.0253906, 74.8780518, 21.8902435, 48.1707344, 0.7074846
-0.9716797, 0.1992188, -0.0258789, 73.1707306, 20.3658543, 47.8048782, 0.6839857
-0.9702148, 0.222168, -0.0297852, 72.9268341, 19.7560978, 47.9268303, 0.7054704
-0.9736328, 0.2304688, -0.0356445, 72.1341476, 19.3292694, 47.8658562, 0.6799573
-0.9707031, 0.2568359, -0.0551758, 71.9512177, 19.3292694, 48.2317085, 0.6319524
-0.9746094, 0.2695312, -0.065918, 70.18293, 18.2317085, 48.4146347, 0.6396735
-0.9716797, 0.2827148, -0.0698242, 67.5609741, 15.4268293, 47.3780518, 0.6447089
-0.9672852, 0.2919922, -0.0664062, 65.9146347, 13.9024391, 46.341465, 0.6672007
-0.9594727, 0.2963867, -0.0551758, 62.5, 12.0731707, 43.1707344, 0.7390402
-0.9511719, 0.2978516, -0.0527344, 60.9146347, 11.7073174, 41.0365868, 0.821622
-0.9492188, 0.2905273, -0.0620117, 57.0121956, 12.1951218, 36.7073174, 0.7813382
-0.9560547, 0.2758789, -0.0605469, 54.8780518, 12.9268293, 34.6951218, 0.7907378
-0.9619141, 0.2636719, -0.0571289, 49.7560997, 12.560976, 31.4634151, 0.7907378
-0.9682617, 0.2431641, -0.0620117, 47.6219521, 11.7073174, 30.3048782, 0.7689174
-0.9677734, 0.2285156, -0.0576172, 43.9024391, 10.8536587, 28.9024391, 0.8243076
-0.9697266, 0.2060547, -0.0415039, 42.7439041, 10.5487804, 28.6585369, 0.9606012
-0.9794922, 0.1982422, -0.0332031, 42.2560997, 10.3658543, 28.0487804, 0.9485161
-0.9799805, 0.1860352, -0.0161133, 43.7804871, 9.5121956, 28.4756107, 0.8959792
-0.9770508, 0.1806641, -0.0131836, 44.8780479, 8.780488, 28.6585369, 0.919646
-0.9682617, 0.1811523, -0.0107422, 46.6463432, 7.4390244, 28.4756107, 0.9525444
-0.9638672, 0.184082, -0.0112305, 47.5, 7.2560978, 27.8658543, 1.0136416
-0.9614258, 0.1987305, -0.0058594, 49.0853653, 6.7073174, 27.0121956, 1.0556039
-0.956543, 0.2143555, -0.0097656, 49.7560997, 6.280488, 26.1585369, 1.0750744
-0.9560547, 0.2241211, -0.0200195, 50.2439041, 5.8536587, 24.7560978, 1.0982376
-0.9526367, 0.2290039, -0.0532227, 49.6951218, 6.0365853, 23.9024391, 1.1334859
-0.9521484, 0.230957, -0.0654297, 46.8292694, 6.280488, 22.1341476, 1.1663844
-0.9584961, 0.2250977, -0.0673828, 45.2439041, 6.0975609, 21.5853672, 1.1156939
-0.9648438, 0.2236328, -0.0610352, 42.4390259, 5.3048782, 19.5731716, 1.0834668
-0.9755859, 0.2250977, -0.050293, 41.2195129, 4.2682929, 18.7195129, 1.0712139
-0.9819336, 0.2216797, -0.0507812, 40.8536606, 4.2682929, 18.1707325, 0.9780575
-0.9819336, 0.215332, -0.0620117, 40, 3.9634147, 16.9512196, 0.8478065
-0.9824219, 0.2128906, -0.0634766, 39.1463432, 3.5975611, 16.2195129, 0.8854047
-0.9887695, 0.2143555, -0.059082, 38.0487823, 2.5609756, 14.6951227, 0.8377356
-0.9926758, 0.2133789, -0.043457, 37.6829262, 1.9512196, 14.3292685, 0.7516289
-0.9921875, 0.2207031, -0.0410156, 37.8048782, 1.9512196, 13.4146347, 0.7353475
-0.9833984, 0.2329102, -0.0390625, 37.6829262, 1.8902439, 12.9878054, 0.7053025
-0.9741211, 0.2387695, -0.0390625, 37.6829262, 2.6219513, 11.5243902, 0.6614939
-0.9711914, 0.2416992, -0.0449219, 37.1341476, 2.9878049, 10.9756098, 0.5530632
-0.9682617, 0.2416992, -0.0424805, 35.7926826, 2.6219513, 8.719512, 0.5446708
-0.9648438, 0.2416992, -0.0400391, 34.4512215, 2.804878, 6.280488, 0.5258717
-0.9614258, 0.2387695, -0.0415039, 33.9024391, 2.804878, 5.1829271, 0.4805524
-0.9663086, 0.2397461, -0.0439453, 32.3170738, 3.9634147, 3.1097562, 0.4959945
-0.9643555, 0.2358398, -0.0527344, 31.4634151, 4.4512196, 2.4390244, 0.4926375
-0.9829102, 0.2299805, -0.0654297, 29.2073174, 4.4512196, 1.8292683, 0.4775311
-0.996582, 0.2192383, -0.0722656, 28.2317085, 4.2682929, 1.5243902, 0.5302358
-1.0024414, 0.2158203, -0.074707, 26.0365868, 4.390244, 1.6463414, 0.5047227
-1.0112305, 0.2060547, -0.0683594, 25.1829281, 4.0243902, 1.5853659, 0.3791714
-1.0151367, 0.1953125, -0.0620117, 24.0243912, 3.7804878, 1.0365853, 0.3971313
-1.015625, 0.1811523, -0.0424805, 23.1707325, 3.7195122, 0.8536586, 0.3313344
-1.0185547, 0.1713867, -0.0297852, 22.8658543, 4.1463413, -0.2439024, 0.3353628
-1.0112305, 0.1542969, -0.0097656, 22.8048782, 5.5487804, -1.5853659, 0.3466087
-1.0092773, 0.1459961, 0.0039062, 22.9878063, 6.280488, -2.5, 0.3199207
-1.0058594, 0.1313477, 0.0229492, 22.439024, 8.5975609, -3.6585367, 0.3157244
-1.0024414, 0.1259766, 0.0322266, 22.5, 9.8170738, -4.0853658, 0.3608759
-0.9946289, 0.121582, 0.0195312, 21.4024391, 12.3780489, -3.8414636, 0.4244907
-0.9902344, 0.1157227, 0.0146484, 20.5487804, 14.0853662, -3.2926829, 0.3764858
-0.9892578, 0.1132812, 0.0126953, 18.4146347, 16.8902435, -1.9512196, 0.3669184
-0.9863281, 0.1132812, 0.0053711, 17.3780499, 17.6829281, -1.3414634, 0.3650721
-0.9892578, 0.1083984, 0.0014648, 15.3048782, 19.0853672, -0.1829268, 0.3415732
-0.9858398, 0.0908203, 0.0009766, 14.5121956, 19.7560978, 0.2439024, 0.3375448
-0.9814453, 0.078125, 0.0043945, 12.9268293, 20.5487804, 0.0609756, 0.3878996
-0.996582, 0.0556641, 0.0136719, 11.8292685, 22.1341476, -0.2439024, 0.3650721
-1.0019531, 0.0429688, 0.0209961, 11.7682934, 23.3536587, -0.3048781, 0.3017929
-1.0195312, 0.0219727, 0.0410156, 12.4390249, 26.0975609, -0.4268293, 0.2932326
-1.0322266, 0.0146484, 0.0488281, 13.4146347, 27.8048782, -0.0609756, 0.2831617
-1.0527344, 0.0043945, 0.0493164, 17.0121956, 31.280489, 1.0365853, 0.2687266
-1.0639648, 0, 0.0429688, 18.7195129, 33.5365868, 1.8902439, 0.2670481
-1.0644531, -0.0048828, 0.0410156, 24.0243912, 37.1951218, 3.5365853, 0.2757763
-1.0668945, -0.0019531, 0.0429688, 26.4634151, 38.5975609, 4.4512196, 0.1858091
-1.0668945, 0.0058594, 0.0478516, 32.0731697, 42.3170738, 5.7317076, 0.1012131
-1.0605469, 0.0170898, 0.0473633, 34.6951218, 44.0853653, 6.1585369, -0.0256809
-1.0581055, 0.0219727, 0.0488281, 40.9146347, 47.8048782, 6.2195125, -0.0864424
-1.0419922, 0.0288086, 0.0366211, 46.5243912, 52.6219521, 5.609756, -0.111284
-1.0356445, 0.0341797, 0.03125, 48.9024391, 55.6097565, 5.1219511, -0.1079271
-1.0307617, 0.0429688, 0.034668, 53.7195129, 60.5487823, 4.6951222, -0.1898375
-1.0244141, 0.050293, 0.0151367, 55.5487823, 63.2317085, 4.7560978, -0.3127031
-1.0039062, 0.0615234, -0.0249023, 57.68293, 68.2926865, 4.6951222, -0.3593652
-1.0048828, 0.0795898, -0.090332, 58.1707344, 69.3292694, 4.8170733, -0.4103914
-1.0141602, 0.0976562, -0.1171875, 58.0487823, 70.8536606, 6.2195125, -0.4963302
-1.0263672, 0.1538086, -0.1894531, 58.5975609, 72.2560959, 8.0487804, -0.5884794
-1.0336914, 0.1845703, -0.2231445, 59.7560997, 72.9268341, 12.4390249, -0.6554513
-1.0463867, 0.2504883, -0.2680664, 60.3048782, 72.0121994, 14.3292685, -0.7232624
-1.0415039, 0.2866211, -0.2944336, 59.5731735, 68.4146347, 17.6829281, -0.7726101
-1.0112305, 0.3378906, -0.3657227, 54.3902435, 64.8780518, 17.9268303, -0.8286717
-0.9980469, 0.3535156, -0.3950195, 50.2439041, 63.2317085, 16.9512196, -0.9817502
-0.9711914, 0.3686523, -0.4248047, 38.2926826, 59.0853691, 12.4390249, -1.1474174
-0.9658203, 0.3642578, -0.4233398, 31.5243912, 56.7682953, 9.4512196, -1.1512779
-0.9599609, 0.3374023, -0.4047852, 18.780489, 52.6219521, 3.8414636, -1.1596704
-0.9638672, 0.2900391, -0.3530273, 13.841464, 50.7317085, 1.5243902, -1.1865263
-0.96875, 0.2612305, -0.3251953, 7.8658538, 48.4146347, -0.9756098, -1.1730983
-0.9736328, 0.2041016, -0.2973633, 6.890244, 47.7439041, -0.7317073, -1.2462806
-0.980957, 0.1733398, -0.2885742, 6.7073174, 46.5243912, 0.6097561, -1.3664607
-0.9907227, 0.1147461, -0.2890625, 7.3170733, 45.5487823, 1.4634147, -1.3766995
-0.9970703, 0.0869141, -0.2832031, 9.0243902, 44.1463432, 2.6829269, -1.3523613
-1.0141602, 0.0463867, -0.2685547, 12.9268293, 42.3170738, 3.2926829, -1.3610895
-1.0244141, 0.0307617, -0.2705078, 15.7926836, 41.7682953, 3.9634147, -1.3406119
-1.046875, 0.0083008, -0.2836914, 22.3170738, 41.0365868, 4.9390244, -1.2966354
-1.0571289, 0.0014648, -0.2851562, 25.6097565, 41.0365868, 5.7317076, -1.3577325
-1.0786133, 0.0009766, -0.2719727, 31.4024391, 39.4512215, 7.6219516, -1.3500114
-1.078125, 0.0009766, -0.2734375, 33.841465, 38.3536606, 8.4146347, -1.298146
-1.0698242, 0.0053711, -0.2832031, 38.1707344, 36.2804871, 9.7560978, -1.2650797
-1.0483398, 0.0151367, -0.296875, 39.6951218, 36.0975609, 10.3658543, -1.2251316
-1.0454102, 0.0166016, -0.2915039, 41.7073174, 36.2195129, 10.7926836, -1.1183795
-1.0332031, 0.0224609, -0.2900391, 43.2926826, 35.6707344, 11.219512, -1.1355001
-1.0234375, 0.0283203, -0.293457, 46.0365868, 34.5731697, 11.9512196, -1.2412451
-0.9990234, 0.0332031, -0.2890625, 49.1463432, 33.3536606, 12.9878054, -1.232517
-0.9868164, 0.0385742, -0.2827148, 50.9756126, 32.7439041, 13.5365858, -1.2281529
-0.9682617, 0.0473633, -0.2714844, 54.9390259, 30.8536587, 13.841464, -1.2133822
-0.9555664, 0.0634766, -0.2788086, 56.4634171, 30.2439022, 13.5365858, -1.2106966
-0.9448242, 0.0898438, -0.2885742, 59.4512215, 29.3292694, 13.6585369, -1.2315099
-0.9511719, 0.121582, -0.3027344, 60.5487823, 28.4146347, 14.6951227, -1.1853513
-0.956543, 0.1386719, -0.3071289, 61.8292694, 26.7073174, 15.8536587, -1.1180438
-0.9541016, 0.1625977, -0.3212891, 61.8292694, 25.6707325, 16.5243912, -1.0582895
-0.9555664, 0.1708984, -0.3173828, 60.2439041, 23.9024391, 16.6463413, -1.1264363
-0.9482422, 0.1611328, -0.3173828, 59.5731735, 22.8658543, 15.9756098, -1.1603418
-0.9433594, 0.1557617, -0.3100586, 57.2560997, 20.8536587, 13.9634151, -1.1677272
-0.940918, 0.1328125, -0.2998047, 55.0609779, 19.4512196, 10.7926836, -1.1643702
-0.9433594, 0.121582, -0.2929688, 54.5121956, 18.7195129, 9.8170738, -1.1190509
-0.9462891, 0.0961914, -0.2910156, 54.0243912, 18.1707325, 9.2073174, -1.032105
-0.9438477, 0.0893555, -0.2929688, 53.6585388, 18.1097565, 9.5121956, -1.0670176
-0.9458008, 0.0795898, -0.2915039, 54.1463432, 17.0731716, 11.280488, -1.1338216
-0.9389648, 0.0751953, -0.2958984, 54.5731735, 16.4024391, 12.3170738, -1.13785
-0.9287109, 0.0810547, -0.3037109, 55.9756126, 14.3902445, 14.0243902, -1.1677272
-0.9208984, 0.0996094, -0.3085938, 57.8048782, 13.3536587, 14.0853662, -1.1640345
-0.9228516, 0.1162109, -0.3100586, 60.6097565, 10.7926836, 13.9634151, -1.1553063
-0.9213867, 0.1381836, -0.3144531, 61.7682953, 9.3902445, 14.1463413, -1.1187152
-0.925293, 0.1479492, -0.3305664, 62.8048782, 6.1585369, 14.0243902, -1.2160678
-0.9204102, 0.1625977, -0.3618164, 61.5243912, 3.6585367, 14.0853662, -1.2419165
-0.9228516, 0.1655273, -0.3686523, 60.18293, 2.195122, 14.1463413, -1.2184176
-0.9272461, 0.168457, -0.3652344, 57.6219521, -0.2439024, 14.3902445, -1.2301671
-0.9291992, 0.1679688, -0.359375, 56.5853653, -1.7073171, 14.2073174, -1.208011
-0.9428711, 0.1508789, -0.3413086, 56.1585388, -3.9634147, 13.841464, -1.1170367
-0.9609375, 0.128418, -0.3325195, 56.0365868, -5.3048782, 13.7195129, -1.0885023
-0.9692383, 0.1064453, -0.3300781, 56.7073174, -7.3170733, 14.0853662, -1.1140154
-0.9741211, 0.0556641, -0.331543, 57.68293, -8.3536587, 14.3902445, -1.0631571
-0.9814453, 0.027832, -0.328125, 60.3658562, -10.1219511, 15.1219511, -1.0092775
-0.9951172, -0.03125, -0.3242188, 64.6951218, -12.7439032, 16.7682934, -0.9078965
-1.0004883, -0.0517578, -0.3251953, 67.5609741, -13.841464, 17.8658543, -0.8387427
-1.0097656, -0.0864258, -0.3237305, 73.9634171, -15.6707325, 19.8780499, -0.80383
-1.0244141, -0.0932617, -0.3242188, 77.3170776, -16.280489, 20.9756107, -0.7474327
-1.0473633, -0.0874023, -0.3242188, 84.3902435, -17.560976, 23.9024391, -0.6475624
-1.0625, -0.0605469, -0.3095703, 88.0487823, -18.7195129, 25.3658543, -0.5537346
-1.0620117, -0.0483398, -0.3173828, 95, -21.7682934, 27.6219521, -0.5638056
-1.0634766, -0.0063477, -0.3359375, 97.5609741, -22.9878063, 28.4146347, -0.4751812
-1.0605469, 0.0063477, -0.3408203, 100.5487823, -24.6951218, 29.6951218, -0.3620508
-1.0522461, 0.0268555, -0.3383789, 101.2804871, -25.6707325, 30.4268303, -0.2824903
-1.0498047, 0.0317383, -0.3349609, 102.6219559, -26.4024391, 31.5853672, -0.2002441
-1.0317383, 0.0219727, -0.3139648, 103.9634171, -27.4390259, 32.0731697, -0.0958419
-1.015625, 0.0170898, -0.3037109, 104.4512253, -27.6829281, 32.0121956, -0.0746929
-0.987793, 0.0004883, -0.2714844, 106.0975647, -28.780489, 30.7926846, -0.0834211
-0.9726562, -0.0087891, -0.2519531, 107.1341476, -28.7195129, 29.6341476, -0.0240024
-0.9589844, -0.0097656, -0.203125, 110.4878082, -26.9512196, 26.8902454, 0.0290379
-0.9516602, 0.0146484, -0.1884766, 113.4146347, -25.5487804, 26.5243912, 0.0783856
-0.9428711, 0.0341797, -0.1948242, 119.2073212, -21.4634151, 28.0487804, 0.1576104
-0.9155273, 0.1005859, -0.1875, 121.3414688, -20.2439022, 29.3902454, 0.2435492
-0.9086914, 0.1479492, -0.1777344, 125.18293, -19.939024, 31.341465, 0.2297856
-0.8901367, 0.253418, -0.1928711, 126.5853653, -20.1219521, 32.4390259, 0.2401923
-0.8779297, 0.3066406, -0.2021484, 127.6219559, -18.5365849, 33.841465, 0.2710765
-0.8452148, 0.4003906, -0.2285156, 124.6341476, -17.8048782, 32.0121956, 0.286183
-0.8310547, 0.4350586, -0.2387695, 121.9512253, -17.9268303, 30.060976, 0.2970932
-0.8300781, 0.4814453, -0.2368164, 114.146347, -18.1097565, 25.9756107, 0.3649042
-0.8374023, 0.4946289, -0.2167969, 110.0609818, -18.5975609, 24.2682934, 0.3644007
-0.8505859, 0.4887695, -0.1992188, 103.0487823, -18.1707325, 21.0365868, 0.2992752
-0.8754883, 0.4506836, -0.2026367, 100.2439041, -17.1951218, 19.5121956, 0.3111925
-0.894043, 0.4306641, -0.2060547, 94.2682953, -14.7560978, 18.0487804, 0.2878614
-0.9296875, 0.3876953, -0.1943359, 92.3780518, -13.5365858, 17.3780499, 0.2831617
-0.9521484, 0.3623047, -0.184082, 89.3902435, -12.3780489, 15.4268293, 0.2630198
-0.984375, 0.3349609, -0.1655273, 88.7804871, -11.5853662, 14.3902445, 0.2428779
-1.0039062, 0.3374023, -0.1689453, 87.5609741, -10.3048782, 12.9878054, 0.2425422
-1.03125, 0.3574219, -0.2060547, 85.1219559, -6.4024391, 12.4390249, 0.2556344
-1.0375977, 0.3666992, -0.222168, 82.8048782, -4.6341462, 12.5, 0.2777905
-1.0317383, 0.3847656, -0.2338867, 77.8658524, -3.6585367, 11.5853662, 0.1965515
-1.0356445, 0.3798828, -0.2397461, 75.1219559, -4.5731707, 10.4878054, 0.1844663
-1.0024414, 0.3999023, -0.25, 73.3536606, -4.5731707, 10.7926836, 0.2099794
-0.9345703, 0.4038086, -0.1889648, 70.6707306, 2.3780489, 10.7317076, 0.2522774
-0.9233398, 0.3930664, -0.1958008, 61.1585388, 9.8170738, 6.7073174, 0.2831617
-0.9272461, 0.3588867, -0.222168, 54.7560997, 8.4146347, 4.1463413, 0.3664149
-0.9350586, 0.3432617, -0.2143555, 43.6585388, 1.9512196, -1.2804878, 0.3882353
-0.9584961, 0.3242188, -0.1699219, 40.9146347, 0.1219512, -2.9878049, 0.3711147
-0.9770508, 0.3129883, -0.1557617, 39.9390259, 1.7682927, -4.2682929, 0.4103914
-1.0117188, 0.2983398, -0.1713867, 41.7682953, 6.2195125, -3.6585367, 0.4674601
-1.0234375, 0.2905273, -0.1914062, 41.8902435, 7.8658538, -3.5365853, 0.5215076
-1.0551758, 0.2749023, -0.2250977, 37.9268303, 8.3536587, -3.4756098, 0.6242313
-1.0688477, 0.2670898, -0.2314453, 35.1829262, 8.0487804, -3.9634147, 0.7019455
-1.0825195, 0.237793, -0.230957, 30.3658543, 8.5365858, -5.1219511, 0.6400092
-1.0913086, 0.2055664, -0.230957, 29.0243912, 9.3902445, -6.0365853, 0.6739147
-1.0961914, 0.1904297, -0.2333984, 27.9268303, 10.9146347, -8.2317076, 0.7155413
-1.1015625, 0.1591797, -0.2353516, 27.8048782, 11.4024391, -8.780488, 0.7249409
-1.0991211, 0.1479492, -0.2368164, 28.0487804, 12.0121956, -9.3292685, 0.7511254
-1.0859375, 0.1455078, -0.2475586, 28.1707325, 12.560976, -9.2073174, 0.846128
-1.0722656, 0.1474609, -0.2495117, 27.7439022, 14.6341467, -8.5975609, 0.8615702
-1.0571289, 0.1611328, -0.2583008, 27.3170738, 15.9756098, -7.9878049, 0.8135653
-1.0439453, 0.1757812, -0.2646484, 26.8292694, 15.8536587, -7.6219516, 0.8348821
-1.0244141, 0.1816406, -0.296875, 25.9146347, 15.7317076, -7.5, 0.8541848
-1.0200195, 0.1835938, -0.3032227, 24.8780499, 15.6707325, -7.6219516, 0.8914473
-1.0117188, 0.1674805, -0.3125, 23.1097565, 14.8170738, -8.1707315, 0.8880903
-1.0131836, 0.1572266, -0.324707, 22.8048782, 14.2073174, -8.1707315, 0.8655985
-1.0175781, 0.1489258, -0.3339844, 22.6219521, 13.780488, -8.2926826, 0.8812085
-1.0253906, 0.1430664, -0.3320312, 22.7439022, 13.7195129, -8.9634151, 0.9139391
-1.0292969, 0.144043, -0.3286133, 23.780489, 12.9878054, -9.2073174, 0.9253529
-1.0234375, 0.1572266, -0.3334961, 24.3292694, 12.2560978, -9.3292685, 0.8088655
-1.0219727, 0.1650391, -0.3447266, 24.5731716, 11.219512, -9.9390249, 0.7148699
-1.0073242, 0.1855469, -0.355957, 23.0487804, 10.9146347, -10.9756098, 0.6719005
-1.003418, 0.1904297, -0.3598633, 21.8292694, 10.3658543, -10.9756098, 0.642359
-0.996582, 0.215332, -0.3637695, 19.4512196, 9.7560978, -11.4634151, 0.6215457
-0.9936523, 0.2236328, -0.362793, 18.2317085, 9.1463413, -11.4024391, 0.600061
-0.9863281, 0.2436523, -0.3549805, 15.7926836, 7.9878049, -11.9512196, 0.4959945
-0.9794922, 0.2456055, -0.3520508, 14.6341467, 7.6219516, -12.560976, 0.3560082
-0.9794922, 0.2382812, -0.3486328, 12.0121956, 5.7317076, -13.4756098, 0.290547
-0.9829102, 0.2109375, -0.3452148, 10.7317076, 5, -13.780488, 0.2171969
-0.9858398, 0.1918945, -0.3388672, 8.841464, 3.2926829, -14.6341467, 0.1661707
-0.9956055, 0.1499023, -0.3242188, 8.1097565, 2.8658538, -14.8170738, 0.1542535
-1.0004883, 0.1313477, -0.3212891, 7.8048782, 2.5, -15.2439032, 0.1643244
-1.0141602, 0.1020508, -0.3027344, 8.841464, 2.2560976, -15.1219511, 0.0562295
-1.0141602, 0.0917969, -0.2958984, 9.0853662, 1.5243902, -14.8780489, -0.008896
-1.0126953, 0.0761719, -0.2851562, 9.6341467, 2.195122, -14.5731707, -0.0078889
-1.0058594, 0.0708008, -0.269043, 9.8780489, 2.804878, -14.2073174, -0.01561
-1.0039062, 0.0766602, -0.2304688, 10.6707315, 4.390244, -13.4146347, -0.0659648
-0.987793, 0.0996094, -0.2114258, 11.5243902, 5.2439027, -13.0487804, -0.0693217
-0.9785156, 0.1113281, -0.2148438, 12.2560978, 7.1341467, -12.6829271, -0.1139696
-0.9672852, 0.1210938, -0.2329102, 12.2560978, 7.8658538, -12.7439032, -0.1821164
-0.9707031, 0.1289062, -0.2363281, 11.1585369, 8.9634151, -12.3780489, -0.1626459
-0.9604492, 0.1171875, -0.237793, 10.7317076, 9.1463413, -12.5, -0.1300832
-0.9594727, 0.1108398, -0.2426758, 10.4268293, 9.4512196, -12.5, -0.0795605
-0.956543, 0.0942383, -0.2617188, 11.219512, 10.2439022, -12.7439032, -0.0619364
-0.9667969, 0.0869141, -0.2719727, 11.5853662, 10.6707315, -12.8658543, -0.0525368
-0.9897461, 0.0859375, -0.2822266, 13.4756098, 10.9146347, -12.6219511, -0.0273594
-0.9995117, 0.0874023, -0.2929688, 14.1463413, 10.6707315, -12.5, 0.0191348
-1.0073242, 0.0991211, -0.3139648, 15.2439032, 10.6707315, -11.8292685, 0.0830854
-1.0092773, 0.1137695, -0.3237305, 15.1829271, 10.4878054, -11.7073174, 0.0495155
-1.0048828, 0.1176758, -0.3251953, 14.2073174, 9.0243902, -11.280488, 0.0726787
-0.9868164, 0.1191406, -0.328125, 13.1707315, 8.1097565, -10.9756098, 0.1052415
-0.9824219, 0.1171875, -0.3291016, 11.5243902, 6.7682929, -10.7926836, 0.0965133
-0.9648438, 0.1054688, -0.3325195, 10.6707315, 6.7073174, -10.4268293, 0.0822461
-0.9580078, 0.1020508, -0.3325195, 9.4512196, 5.9146342, -10.3048782, 0.1388113
-0.953125, 0.097168, -0.3334961, 9.5731707, 4.7560978, -10.1829271, 0.0005035
-0.9516602, 0.097168, -0.3383789, 9.7560978, 4.2682929, -10.4268293, -0.0686503
-0.9492188, 0.0996094, -0.3520508, 10.3048782, 2.6829269, -10.9756098, -0.0290379
-0.9501953, 0.0966797, -0.3520508, 10.2439022, 2.0731707, -10.9146347, -0.0109102
-0.9580078, 0.1040039, -0.3525391, 10.4268293, 0.4268293, -10.7317076, -0.0129244
-0.9550781, 0.1157227, -0.3583984, 10.4268293, -0.4878049, -10.6707315, 0.0347448
-0.9584961, 0.1191406, -0.3666992, 10.1219511, -1.5853659, -10.5487804, 0.0589151
-0.9697266, 0.1342773, -0.3764648, 9.8170738, -2.6219513, -10.7926836, -0.0726787
-0.9760742, 0.1396484, -0.3754883, 9.2682924, -5, -10.9146347, -0.1176623
-0.9746094, 0.1347656, -0.3764648, 8.4146347, -6.7682929, -10.6097565, -0.1317617
-0.9716797, 0.1269531, -0.3740234, 6.9512196, -9.6951218, -10.2439022, -0.1643244
-0.9570312, 0.1083984, -0.3535156, 4.8170733, -12.3170738, -10.6097565, -0.2052796
-0.956543, 0.0961914, -0.3339844, 4.5121951, -13.2317076, -10.7317076, -0.1898375
-0.9545898, 0.0834961, -0.3071289, 5.2439027, -14.5731707, -11.0975609, -0.2244144
-0.956543, 0.0756836, -0.3046875, 6.0365853, -15.3048782, -11.4024391, -0.3318379
-0.9648438, 0.0600586, -0.2949219, 7.4390244, -15.7317076, -10.7317076, -0.3711147
-0.9682617, 0.0473633, -0.28125, 7.6829271, -16.3414631, -10.3658543, -0.4218051
-0.972168, 0.046875, -0.2734375, 7.7439027, -15.9756098, -9.2073174, -0.4394293
-0.9707031, 0.0532227, -0.2631836, 7.9878049, -15.9146347, -8.841464, -0.5023728
-0.9716797, 0.0522461, -0.2607422, 8.841464, -15.5487804, -8.2317076, -0.5507134
-0.9750977, 0.0532227, -0.2539062, 9.4512196, -15.6707325, -8.5975609, -0.578912
-0.9692383, 0.0512695, -0.2539062, 10.7317076, -15.6097565, -8.1707315, -0.5916686
-0.9624023, 0.0537109, -0.2490234, 11.4634151, -16.0365849, -7.8048782, -0.5908293
-0.949707, 0.0537109, -0.2509766, 12.0731707, -15.7317076, -7.3780489, -0.6839857
-0.9458008, 0.0493164, -0.2504883, 13.1707315, -14.9390249, -6.8292685, -0.7098344
-0.9492188, 0.0493164, -0.2451172, 13.9024391, -14.6951227, -6.6463418, -0.7299763
-0.9550781, 0.0620117, -0.2426758, 15.060976, -14.8780489, -6.4024391, -0.8145724
-0.9555664, 0.0708008, -0.2617188, 15.8536587, -14.8780489, -6.2195125, -0.7954376
-0.9589844, 0.078125, -0.2724609, 15.9756098, -14.5731707, -6.1585369, -0.7152056
-0.9633789, 0.0913086, -0.2802734, 16.0975609, -14.5731707, -6.0365853, -0.7407187
-0.9648438, 0.0996094, -0.2832031, 15.6097565, -15.4878054, -5.9756098, -0.7464256
-0.9584961, 0.1098633, -0.3032227, 15.1219511, -15.9146347, -5.9146342, -0.7094987
-0.9555664, 0.1157227, -0.3129883, 14.6951227, -17.0731716, -6.4024391, -0.724773
-0.9477539, 0.1181641, -0.3242188, 14.0243902, -18.2926826, -6.2195125, -0.7232624
-0.9458008, 0.1137695, -0.3276367, 13.5975609, -19.0853672, -6.1585369, -0.7219196
-0.9404297, 0.1064453, -0.3222656, 12.9268293, -21.5853672, -6.3414636, -0.6755932
-0.9379883, 0.1054688, -0.3178711, 12.8048782, -22.3170738, -6.6463418, -0.6648508
-0.9423828, 0.1044922, -0.3110352, 12.1951218, -23.8414631, -6.6463418, -0.6151675
-0.9560547, 0.0996094, -0.2954102, 11.8902445, -24.5731716, -6.4634147, -0.5428244
-0.9575195, 0.09375, -0.2910156, 12.1341467, -25.4878063, -5.7317076, -0.5292287
-0.956543, 0.0981445, -0.2758789, 12.3170738, -25.9146347, -5.4878049, -0.5228504
-0.9521484, 0.1035156, -0.2714844, 12.5, -26.280489, -5.9146342, -0.4506752
-0.9506836, 0.1020508, -0.253418, 12.8048782, -26.5243912, -6.2195125, -0.4459754
-0.9477539, 0.1015625, -0.253418, 12.4390249, -26.6463413, -6.6463418, -0.4830701
-0.9589844, 0.1015625, -0.2509766, 12.1951218, -27.1951218, -6.9512196, -0.4328832
-0.9599609, 0.1000977, -0.2558594, 11.8902445, -27.2560978, -6.6463418, -0.3956207
-0.9604492, 0.0888672, -0.2539062, 11.4024391, -27.3170738, -6.280488, -0.3479515
-0.9672852, 0.081543, -0.2436523, 11.4024391, -27.3170738, -6.0365853, -0.3412375
-0.9707031, 0.0737305, -0.2412109, 11.7073174, -27.1951218, -6.3414636, -0.3459373
-0.9799805, 0.0722656, -0.2353516, 12.1951218, -27.0121956, -6.4634147, -0.3204242
-0.9838867, 0.0756836, -0.2329102, 13.6585369, -26.280489, -6.7682929, -0.315053
-0.9951172, 0.0805664, -0.2470703, 14.5121956, -25.7926826, -6.6463418, -0.2613413
-0.9975586, 0.0854492, -0.2529297, 15.1829271, -25.7317085, -6.1585369, -0.3456016
-1.0009766, 0.0986328, -0.2729492, 14.8170738, -25.8536587, -5.670732, -0.3617151
-0.9990234, 0.1010742, -0.2744141, 14.3292685, -25.9146347, -5.5487804, -0.3560082
-0.9907227, 0.1044922, -0.2705078, 13.0487804, -26.0365868, -5.4878049, -0.3482872
-0.9882812, 0.1010742, -0.2651367, 12.8048782, -26.280489, -5.609756, -0.3157244
-0.9794922, 0.0947266, -0.2583008, 13.2317076, -26.7682934, -6.4024391, -0.2979324
-0.9741211, 0.09375, -0.2578125, 13.4146347, -27.0731716, -6.2195125, -0.3519799
-0.9707031, 0.0952148, -0.2583008, 14.3902445, -26.8902454, -6.9512196, -0.4412757
-0.9741211, 0.0966797, -0.2578125, 14.6341467, -27.0121956, -6.6463418, -0.4594034
-0.9750977, 0.1044922, -0.2548828, 15.4878054, -26.4024391, -6.280488, -0.4585641
-0.9790039, 0.1191406, -0.2646484, 15.8536587, -25.7926826, -6.2195125, -0.4654459
-0.9746094, 0.1323242, -0.2607422, 14.7560978, -26.280489, -6.280488, -0.4615854
-0.9707031, 0.1357422, -0.2617188, 13.1097565, -26.9512196, -7.1341467, -0.4332189
-0.96875, 0.1367188, -0.2607422, 12.1951218, -27.2560978, -7.9268293, -0.539971
-0.9663086, 0.1323242, -0.2592773, 10.7317076, -26.9512196, -8.2317076, -0.5730373
-0.9672852, 0.1269531, -0.2597656, 9.8170738, -26.5853672, -8.5975609, -0.5641413
-0.9765625, 0.1225586, -0.2636719, 9.6951218, -25.8536587, -8.4146347, -0.5349355
-0.9956055, 0.121582, -0.2700195, 9.6341467, -25.6097565, -7.9268293, -0.5842832
-0.9995117, 0.1176758, -0.2695312, 9.2682924, -25.4878063, -7.9268293, -0.5685054
-0.9951172, 0.1083984, -0.2788086, 9.1463413, -25.3658543, -7.9878049, -0.5527276
-0.9941406, 0.1054688, -0.2802734, 8.4756098, -25.4268303, -8.4146347, -0.5661555
-0.9926758, 0.0976562, -0.2734375, 7.9878049, -25.6097565, -8.9024391, -0.4654459
-0.9946289, 0.1005859, -0.2739258, 8.5365858, -24.8780499, -9.3902445, -0.3875639
-0.9936523, 0.1176758, -0.2749023, 9.2073174, -23.6585369, -9.6341467, -0.34963
-0.9960938, 0.1240234, -0.2856445, 9.3292685, -23.1707325, -9.9390249, -0.31841
-1.0053711, 0.1430664, -0.3056641, 8.780488, -22.6219521, -10, -0.2586557
-1.0078125, 0.1518555, -0.3144531, 8.0487804, -22.8658543, -10.2439022, -0.1790951
-1.0166016, 0.1606445, -0.324707, 6.0975609, -23.3536587, -10.8536587, -0.0914778
-1.0180664, 0.1704102, -0.324707, 4.8780489, -23.4146347, -10.8536587, -0.0251774
-1.0205078, 0.1748047, -0.3208008, 2.9268293, -23.9024391, -10.7317076, -0.061265
-1.0146484, 0.1767578, -0.3256836, 2.1341465, -24.1463413, -10.6097565, -0.2002441
-1.0151367, 0.1694336, -0.3286133, 0.2439024, -24.3902435, -10.9146347, -0.0404517
-1.0170898, 0.1635742, -0.3237305, -0.7317073, -24.3292694, -10.9756098, 0.0555581
-1.0234375, 0.1616211, -0.3178711, -1.4634147, -24.1463413, -11.0975609, 0.1052415
-1.03125, 0.1567383, -0.315918, -1.0365853, -24.2073174, -11.219512, 0.1965515
-1.0332031, 0.1547852, -0.3168945, -0.7317073, -23.9634151, -10.9146347, 0.219379
-1.0283203, 0.1416016, -0.3232422, 0, -23.0487804, -10.7317076, 0.1955444
-1.03125, 0.1313477, -0.328125, 0.2439024, -22.0731716, -10.7926836, 0.2428779
-1.0273438, 0.1240234, -0.3212891, 1.3414634, -20.8536587, -10.4268293, 0.2858473
-1.0244141, 0.1274414, -0.3154297, 2.0731707, -20.3658543, -9.8780489, 0.328481
-1.0195312, 0.1337891, -0.324707, 2.5, -18.5975609, -9.4512196, 0.3669184
-1.0112305, 0.1484375, -0.3408203, 2.5609756, -17.6829281, -8.9024391, 0.391928
-1.0073242, 0.1582031, -0.3383789, 2.1341465, -16.0975609, -8.3536587, 0.2895399
-0.9907227, 0.1772461, -0.3291016, 1.8292683, -15.4878054, -7.7439027, 0.2213931
-0.980957, 0.1835938, -0.3261719, 0.5487805, -13.9634151, -7.3170733, 0.1767453
-0.9658203, 0.1855469, -0.3276367, -0.8536586, -12.2560978, -7.2560978, 0.1532464
-0.956543, 0.1865234, -0.3208008, -1.5853659, -11.0365858, -7.1951222, 0.163653
-0.9609375, 0.1845703, -0.3242188, -2.6219513, -9.3902445, -7.1341467, 0.2042725
-0.9624023, 0.1870117, -0.3364258, -3.0487804, -8.1707315, -6.8292685, 0.124712
-0.9746094, 0.2021484, -0.3632812, -4.0243902, -5.5487804, -5.7317076, -0.0152743
-0.9951172, 0.2182617, -0.3911133, -4.6951222, -4.8170733, -5.1219511, -0.0229953
-1, 0.2226562, -0.4023438, -5.9146342, -4.0243902, -3.9634147, -0.057908
-0.9995117, 0.2133789, -0.4448242, -6.4634147, -3.9634147, -3.3536587, -0.0726787
-1.0014648, 0.2036133, -0.4619141, -8.2317076, -3.0487804, -1.7682927, -0.1252155
-1.0019531, 0.1845703, -0.4833984, -8.841464, -2.8658538, -1.097561, -0.1673457
-1.0024414, 0.1713867, -0.4916992, -7.8658538, -2.8658538, 0.6097561, -0.1693599
-1.0131836, 0.1577148, -0.5234375, -4.2682929, -2.8658538, 2.195122, -0.1552605
-1.0219727, 0.1489258, -0.5390625, -1.7073171, -2.4390244, 3.4756098, -0.1445182
-1.0410156, 0.1206055, -0.5722656, 3.9024391, -2.9268293, 5.9146342, -0.2368353
-1.0551758, 0.1147461, -0.5776367, 5.9146342, -3.9024391, 7.6219516, -0.2391852
-1.0541992, 0.1040039, -0.5507812, 8.2926826, -5.7317076, 10.5487804, -0.2163577
-1.0429688, 0.0996094, -0.5009766, 9.4512196, -5.7317076, 11.7073174, -0.1995727
-1.0380859, 0.1035156, -0.4775391, 12.0121956, -4.8170733, 13.1097565, -0.1696956
-1.0322266, 0.125, -0.4375, 13.2926836, -3.4146342, 14.0853662, -0.0924849
-1.0268555, 0.1401367, -0.4257812, 15.5487804, -0.5487805, 16.4634151, -0.0676432
-1.0092773, 0.1865234, -0.4057617, 16.0365849, 1.402439, 17.6219521, -0.0797284
-1.0024414, 0.2182617, -0.4033203, 15.7926836, 5.7926831, 19.8780499, -0.0297093
-0.9956055, 0.2729492, -0.4052734, 14.2682934, 10.3658543, 20.6097565, 0.0193027
-0.9951172, 0.2954102, -0.4106445, 12.0731707, 11.8292685, 20.7317085, 0.0703288
-0.9863281, 0.3237305, -0.4418945, 7.7439027, 15.2439032, 20.9756107, 0.156939
-0.9916992, 0.3261719, -0.4599609, 5.609756, 16.8902435, 21.3414631, 0.2749371
-1.0073242, 0.3110352, -0.4873047, 1.4634147, 19.3292694, 21.9512196, 0.2735943
-1.0175781, 0.2695312, -0.5195312, 0.1829268, 19.939024, 22.439024, 0.3241169
-1.0273438, 0.2509766, -0.5483398, -1.4634147, 21.7682934, 23.7195129, 0.4019989
-1.0493164, 0.2275391, -0.5986328, -1.8902439, 22.560976, 24.5121956, 0.4641032
-1.0551758, 0.2236328, -0.609375, -2.5609756, 23.5365868, 27.2560978, 0.5201648
-1.0639648, 0.2368164, -0.6025391, -2.9878049, 23.780489, 28.9024391, 0.616846
-1.0595703, 0.2514648, -0.5888672, -2.6219513, 22.8658543, 31.341465, 0.6531014
-1.0478516, 0.2836914, -0.59375, -2.6219513, 24.0853672, 33.4756088, 0.6520943
-1.0483398, 0.2949219, -0.6025391, -2.9878049, 24.6951218, 34.1463432, 0.7011063
-1.0512695, 0.309082, -0.6240234, -5.3048782, 24.7560978, 36.9512215, 0.7286336
-1.0473633, 0.3071289, -0.6313477, -7.1341467, 24.4512196, 38.7804871, 0.7611963
-1.0444336, 0.2836914, -0.6157227, -10.060976, 23.780489, 41.6463432, 0.7524681
-1.0419922, 0.2578125, -0.590332, -11.1585369, 23.2317085, 42.8048782, 0.7222553
-1.0424805, 0.2431641, -0.5786133, -12.2560978, 23.5365868, 45.0609779, 0.6984207
-1.0532227, 0.2231445, -0.5639648, -12.1951218, 24.2682934, 45.9756126, 0.6658579
-1.0522461, 0.2094727, -0.5654297, -10.9146347, 26.280489, 48.7195129, 0.6282597
-1.0527344, 0.1787109, -0.5771484, -10.1829271, 27.560976, 50.4268303, 0.5057298
-1.0546875, 0.1591797, -0.581543, -6.890244, 29.2682934, 53.5975609, 0.4677958
-1.0600586, 0.1152344, -0.597168, -2.195122, 30, 56.5243912, 0.4469825
-1.065918, 0.0981445, -0.5981445, 0.9146342, 30.4878063, 57.68293, 0.4036774
-1.0888672, 0.0976562, -0.5864258, 7.3170733, 30.4878063, 59.6341476, 0.337377
-1.1064453, 0.1220703, -0.5795898, 10.4878054, 31.2195129, 61.0365868, 0.3103532
-1.1318359, 0.1933594, -0.5834961, 15.5487804, 33.0487823, 63.7195129, 0.2361639
-1.1254883, 0.2685547, -0.590332, 17.0121956, 34.1463432, 65.1219559, 0.1485466
-1.1142578, 0.3051758, -0.5947266, 16.7682934, 35.3048782, 66.7682953, 0.1404898
-1.0776367, 0.3486328, -0.5932617, 15.1829271, 35.7317085, 66.8902435, 0.1320974
-1.0644531, 0.3637695, -0.5805664, 11.0365858, 37.1341476, 65.6097565, 0.1052415
-1.0522461, 0.3896484, -0.5307617, 9.0853662, 38.0487823, 64.6341476, 0.1119554
-1.043457, 0.3974609, -0.5107422, 6.1585369, 40.0609779, 63.1707344, 0.105745
-1.0258789, 0.4067383, -0.4921875, 4.2073174, 43.6585388, 62.7439041, 0.0038605
-1.0185547, 0.4111328, -0.4995117, 2.7439024, 45.7926826, 62.68293, -0.0256809
-1.0131836, 0.4174805, -0.5234375, -1.1585366, 50, 62.1341476, -0.0112459
-1.0087891, 0.4199219, -0.5385742, -3.2926829, 51.6463432, 61.7073174, -0.0149386
-1.0180664, 0.4135742, -0.5795898, -7.8048782, 54.3902435, 60.7926826, -0.0082246
-1.0429688, 0.4179688, -0.6137695, -9.6951218, 55.4268303, 60.3658562, 0.0582437
-1.0566406, 0.4257812, -0.6225586, -11.8902445, 56.341465, 59.3902435, 0.0616007
-1.0761719, 0.4467773, -0.6210938, -12.6219511, 56.6463432, 59.7560997, 0.0344091
-1.0805664, 0.4516602, -0.6206055, -14.6341467, 57.6219521, 60.1219521, 0.0710002
-1.0717773, 0.4423828, -0.6235352, -16.0365849, 57.8658562, 59.8780518, 0.0978561
-1.0634766, 0.425293, -0.628418, -20.3658543, 58.6585388, 59.0853691, 0.1364614
-1.0532227, 0.3852539, -0.6269531, -25.3658543, 60.4878044, 58.1707344, 0.1431754
-1.0537109, 0.3632812, -0.6142578, -27.0121956, 61.4024391, 58.1097565, 0.1730526
-1.0424805, 0.3178711, -0.5927734, -27.5, 63.1707344, 58.4146347, 0.2328069
-1.0405273, 0.2963867, -0.5922852, -26.6463413, 64.8780518, 58.5975609, 0.2982681
-1.0327148, 0.2768555, -0.612793, -23.0487804, 67.3170776, 59.8170738, 0.3576867
-1.0424805, 0.3022461, -0.6289062, -21.5853672, 68.3536606, 61.2804909, 0.3066606
-1.0395508, 0.3300781, -0.6362305, -18.780489, 69.7560959, 64.9390259, 0.3160601
-1.0263672, 0.3881836, -0.6362305, -17.9268303, 70.2439041, 66.9512177, 0.3459373
-1.0136719, 0.4101562, -0.637207, -17.6219521, 71.4634171, 68.9024429, 0.3595331
-0.9819336, 0.4223633, -0.640625, -18.1707325, 72.1951218, 69.0853653, 0.3842069
-0.9697266, 0.4145508, -0.6542969, -20.8536587, 73.2926865, 67.6219559, 0.427512
-0.9682617, 0.371582, -0.6748047, -23.3536587, 74.5731735, 66.2804871, 0.4019989
-0.9746094, 0.347168, -0.6782227, -23.9634151, 75.2439041, 66.4634171, 0.3449302
-1.0024414, 0.3125, -0.6669922, -23.1097565, 75.3048782, 68.3536606, 0.3469444
-1.0131836, 0.3061523, -0.6518555, -21.5853672, 75.8536606, 70, 0.3368734
-1.0126953, 0.3100586, -0.6303711, -17.1341476, 77.0121994, 73.0487823, 0.3086748
-0.9868164, 0.3183594, -0.6362305, -15.060976, 78.2926865, 73.7195129, 0.2885328
-0.980957, 0.3212891, -0.6479492, -12.3170738, 81.7073212, 74.2682953, 0.2556344
-0.9799805, 0.3359375, -0.6811523, -11.9512196, 82.7439041, 74.6341476, 0.1138018
-0.9746094, 0.3481445, -0.6884766, -11.9512196, 84.8780518, 75.7926865, 0.036759
-0.9790039, 0.375, -0.706543, -11.8902445, 85.5487823, 76.9512177, 0.0025177
-0.9746094, 0.387207, -0.7114258, -12.0731707, 86.1585388, 79.4512177, -0.036759
-0.9619141, 0.4125977, -0.7128906, -12.0121956, 87.0731735, 80.9146347, -0.0861067
-0.956543, 0.4223633, -0.7128906, -11.8902445, 87.4390259, 81.4634171, -0.1250477
-0.9453125, 0.4370117, -0.7084961, -11.7073174, 88.4146347, 81.9512177, -0.2177005
-0.9448242, 0.4384766, -0.7172852, -12.2560978, 89.0243912, 81.646347, -0.3506371
-0.9423828, 0.4423828, -0.7426758, -12.8048782, 91.0975647, 81.5243912, -0.4056916
-0.9741211, 0.4453125, -0.7578125, -13.0487804, 91.8292694, 81.8902435, -0.4473182
-0.9863281, 0.4443359, -0.7558594, -12.9878054, 93.2317123, 84.0243912, -0.4790417
-0.9970703, 0.4350586, -0.75, -12.8048782, 93.5365906, 84.8170776, -0.5456779
-0.9956055, 0.4160156, -0.7480469, -11.8292685, 94.8780518, 85.6097565, -0.6064393
-0.9941406, 0.3793945, -0.7636719, -11.0975609, 96.7682953, 84.3902435, -0.6359808
-1.0014648, 0.3637695, -0.7768555, -10.4268293, 97.8048782, 84.146347, -0.6467231
-1.0205078, 0.3515625, -0.7954102, -8.4756098, 99.3902435, 84.9390259, -0.6354772
-1.0341797, 0.359375, -0.8017578, -6.9512196, 100.1219559, 86.2804871, -0.7088273
-1.0483398, 0.3969727, -0.8012695, -3.1097562, 100.8536606, 89.9390259, -0.7145342
-1.0429688, 0.4628906, -0.7915039, -1.402439, 101.646347, 91.8292694, -0.6796216
-1.0351562, 0.4912109, -0.7905273, 0.3658537, 102.68293, 93.3536606, -0.6517586
-1.0063477, 0.5283203, -0.8066406, -0.0609756, 103.8414688, 93.2317123, -0.5963684
-0.9985352, 0.53125, -0.8110352, -3.1097562, 106.0975647, 90.4268341, -0.494316
-0.9985352, 0.5244141, -0.8256836, -5.0609756, 107.1951218, 89.0853653, -0.4667887
-1.0039062, 0.5117188, -0.8383789, -8.6585369, 109.7561035, 86.7073212, -0.4689708
-1.0234375, 0.4672852, -0.8691406, -10.3658543, 111.5243912, 86.0975647, -0.4077058
-1.0405273, 0.4492188, -0.8691406, -10.6097565, 112.1341476, 86.4024429, -0.3523156
-1.0634766, 0.4165039, -0.8500977, -8.1097565, 112.5609818, 87.8048782, -0.2573129
-1.0678711, 0.4057617, -0.8378906, -5.7317076, 112.86586, 88.9024429, -0.1505608
-1.0727539, 0.4082031, -0.8300781, -0.8536586, 114.8780518, 90.3048782, -0.0520333
-1.0668945, 0.4194336, -0.8276367, 1.2804878, 116.4024429, 90.8536606, -0.0532082
-1.0600586, 0.4296875, -0.8325195, 4.0243902, 120.0609818, 90.8536606, -0.0112459
-1.0415039, 0.4345703, -0.8740234, 4.6341462, 121.9512253, 90.7926865, 0.0419623
-1.0405273, 0.4404297, -0.8935547, 4.4512196, 125.1219559, 90.6097565, 0.0763714
-1.0454102, 0.4423828, -0.9052734, 4.3292685, 126.2195129, 90.7926865, 0.1089342
-1.0419922, 0.4428711, -0.8969727, 5, 126.5853653, 92.5, 0.1965515
-1.0258789, 0.4350586, -0.8676758, 7.3170733, 126.4634171, 93.3536606, 0.2321355
-1.0166016, 0.4335938, -0.8569336, 8.4146347, 127.4390259, 92.9268341, 0.2190433
-1.003418, 0.4345703, -0.8725586, 10.2439022, 131.7073212, 92.2561035, 0.2636912
-1.0039062, 0.4389648, -0.8852539, 10.1219511, 134.2682953, 92.1951218, 0.2975967
-1.0146484, 0.4511719, -0.9277344, 9.6951218, 138.4756165, 92.9878082, 0.3388876
-1.0288086, 0.4682617, -0.9545898, 9.0243902, 139.5121918, 93.9024429, 0.3301595
-1.0361328, 0.472168, -0.9614258, 9.2682924, 140.3048859, 96.4024429, 0.2979324
-1.0371094, 0.4892578, -0.9584961, 9.7560978, 140.4268341, 97.8048782, 0.2744335
-1.0258789, 0.4912109, -0.9506836, 10.8536587, 141.1585388, 98.9634171, 0.2754406
-1.0004883, 0.4848633, -0.9423828, 10.6707315, 141.5853729, 98.4756088, 0.3019608
-0.9887695, 0.4750977, -0.9423828, 9.3292685, 144.2682953, 95.7926865, 0.2116579
-0.9780273, 0.4550781, -0.9453125, 8.6585369, 148.0487823, 93.6585388, 0.1844663
-0.9799805, 0.4418945, -0.9589844, 8.5975609, 149.5731812, 93.1707306, 0.1777523
-0.9960938, 0.4345703, -0.9765625, 10, 153.1097565, 94.5731735, 0.1307546
-1.0083008, 0.4458008, -0.9897461, 11.6463413, 153.9024353, 96.646347, 0.0991989
-1.0131836, 0.4736328, -1.0019531, 14.0243902, 154.8780518, 101.2804871, 0.1263905
-0.9838867, 0.4604492, -0.9882812, 14.9390249, 155, 102.6219559, 0.1012131
-0.9692383, 0.449707, -0.9648438, 16.7073174, 154.9390259, 100.7926865, 0.0721752
-0.9433594, 0.4580078, -0.9448242, 17.6219521, 155.6707306, 98.7195129, 0.0958419
-0.9404297, 0.46875, -0.9555664, 18.9024391, 159.8780518, 95.8536606, 0.1099413
-0.9541016, 0.4990234, -0.9746094, 19.0853672, 163.2317047, 96.0975647, 0.1284047
-0.949707, 0.5092773, -0.9794922, 19.0853672, 167.1341553, 98.2926865, 0.1451896
-0.9145508, 0.503418, -0.9770508, 18.0487804, 168.2317047, 99.3902435, 0.1931945
-0.8964844, 0.4970703, -0.9702148, 17.1341476, 169.2682953, 98.5365906, 0.1287404
-0.875, 0.4853516, -0.9487305, 15.7317076, 172.5, 96.646347, 0.1272297
-0.8725586, 0.484375, -0.9418945, 15.4268293, 174.9390259, 95.6707306, 0.1562676
-0.859375, 0.4819336, -0.9516602, 16.0365849, 180.3048859, 94.0243912, 0.1895018
-0.8623047, 0.487793, -0.9580078, 16.280489, 182.5609741, 93.9024429, 0.2346532
-0.8637695, 0.5024414, -0.9560547, 16.9512196, 185.8536682, 95.0609741, 0.336202
-0.8515625, 0.5322266, -0.9794922, 17.0731716, 187.3170776, 95.5487823, 0.3857176
-0.8369141, 0.5400391, -1.0166016, 15.8536587, 190.36586, 96.5243912, 0.3731289
-0.8266602, 0.546875, -1.0795898, 14.3902445, 192.5609741, 96.1585388, 0.4140841
-0.8388672, 0.5454102, -1.081543, 9.8170738, 194.8780518, 95.5487823, 0.4583963
-0.8491211, 0.5356445, -1.0566406, 8.4756098, 192.8048859, 95.5487823, 0.5272145
-0.8408203, 0.5292969, -1.0507812, 8.3536587, 192.5609741, 95.18293, 0.5705196
-0.8183594, 0.5063477, -1.0786133, 8.2317076, 195.6707306, 93.4756088, 0.600061
-0.8217773, 0.4873047, -1.09375, 7.9268293, 197.9878082, 92.68293, 0.6504158
-0.847168, 0.4628906, -1.1030273, 7.0121951, 199.4512177, 93.7804871, 0.7031205
-0.8554688, 0.4594727, -1.0581055, 8.3536587, 198.4756165, 95.3658524, 0.7393759
-0.8359375, 0.4643555, -1.0439453, 12.3780489, 196.4634247, 98.3536606, 0.7027848
-0.7768555, 0.4765625, -1.0561523, 13.9024391, 196.646347, 98.4146347, 0.7246052
-0.7597656, 0.4873047, -1.0717773, 14.6951227, 200.6097565, 97.1951218, 0.7514611
-0.7480469, 0.5019531, -1.0654297, 14.1463413, 202.1341553, 96.7682953, 0.7652247
-0.7397461, 0.5063477, -1.0400391, 12.560976, 201.9512177, 96.7682953, 0.7924163
-0.6894531, 0.5131836, -1.0083008, 11.5853662, 201.0365906, 96.4634171, 0.8457923
-0.6635742, 0.5200195, -1.0136719, 10.6707315, 202.86586, 95.9146347, 0.8155795
-0.6303711, 0.5214844, -1.0766602, 7.5, 208.9024506, 95.4878082, 0.7578393
-0.6352539, 0.519043, -1.1123047, 5.5487804, 210.5487823, 96.0975647, 0.7625391
-0.6586914, 0.5078125, -1.1376953, 2.6829269, 208.7804871, 98.3536606, 0.7491112
-0.6635742, 0.4970703, -1.0913086, 2.6829269, 206.1585388, 99.8780518, 0.7071489
-0.6567383, 0.4897461, -1.0639648, 5.0609756, 201.9512177, 101.0365906, 0.655787
-0.6381836, 0.5029297, -1.0576172, 6.1585369, 201.8292694, 100.4268341, 0.6440375
-0.6337891, 0.512207, -1.0722656, 5.670732, 206.0365906, 99.3902435, 0.5272145
-0.6328125, 0.5166016, -1.0917969, 4.390244, 207.86586, 98.8414688, 0.4714885
-0.6220703, 0.5078125, -1.0952148, 1.1585366, 208.3536682, 98.3536606, 0.44094
-0.5913086, 0.4838867, -1.1064453, -0.9146342, 206.5853729, 97.8048782, 0.3798428
-0.5864258, 0.472168, -1.1108398, -1.6463414, 206.4024506, 98.2926865, 0.3153887
-0.581543, 0.472168, -1.09375, -1.8902439, 207.1951294, 100.3048782, 0.2999466
-0.5820312, 0.4677734, -1.0493164, -1.0365853, 206.5853729, 101.4634171, 0.2173648
-0.5551758, 0.4702148, -0.9516602, 3.0487804, 205.3048859, 100.9756088, 0.0921492
-0.4980469, 0.4882812, -0.921875, 4.2073174, 206.0365906, 99.3292694, 0.0532082
-0.4731445, 0.4926758, -0.9487305, 3.2317073, 213.2317047, 96.0365906, 0.0213169
-0.4697266, 0.5136719, -1.0283203, 1.1585366, 217.5609741, 95.3048782, 0.0048676
-0.4750977, 0.5180664, -1.0581055, -5, 221.2195129, 96.2804871, -0.0377661
-0.4819336, 0.5229492, -1.0688477, -7.5, 220.36586, 98.2926865, -0.1042344
-0.4790039, 0.5244141, -1.0571289, -9.4512196, 216.7073212, 101.2804871, -0.1451896
-0.4492188, 0.5180664, -1.0361328, -9.3292685, 215.1829376, 101.2804871, -0.1619745
-0.4448242, 0.5014648, -1.0336914, -9.6341467, 215.8536682, 99.5121994, -0.1649958
-0.4672852, 0.4677734, -1.0380859, -11.7682934, 217.012207, 96.7682953, -0.2576486
-0.4794922, 0.4511719, -1.0498047, -13.2926836, 217.5609741, 96.2195129, -0.2888685
-0.5097656, 0.4467773, -1.0483398, -15.7926836, 218.4146423, 97.8658524, -0.276112
-0.5058594, 0.4628906, -1.0136719, -15.6707325, 218.23172, 99.8170776, -0.2432136
-0.4814453, 0.4716797, -0.9985352, -15.1219511, 217.5609741, 102.0731735, -0.2197147
-0.4233398, 0.4858398, -0.9921875, -15.7317076, 217.5, 101.7682953, -0.16701
-0.4018555, 0.480957, -0.9956055, -18.6585369, 219.6951294, 98.4756088, -0.1775845
-0.3945312, 0.4560547, -1.0058594, -21.0365868, 221.1585388, 97.2561035, -0.2398566
-0.4018555, 0.4428711, -0.9985352, -23.780489, 222.3780518, 96.8292694, -0.2235752
-0.4086914, 0.4208984, -0.9760742, -22.3170738, 221.7682953, 98.5975647, -0.181445
-0.4077148, 0.4116211, -0.9760742, -20.6097565, 222.0731812, 99.5121994, -0.1508965
-0.4169922, 0.421875, -0.9858398, -18.1097565, 223.2926941, 100.3658524, -0.111284
-0.4238281, 0.4321289, -0.984375, -17.2560978, 223.2926941, 100.3048782, -0.0547189
-0.4160156, 0.4365234, -0.9628906, -17.9268303, 221.7682953, 99.3292694, -0.1183337
-0.3896484, 0.4257812, -0.9414062, -18.8414631, 220.7926941, 97.8658524, -0.1384756
-0.3808594, 0.4238281, -0.9379883, -21.7073174, 222.0731812, 96.3414688, -0.1015488
-0.3720703, 0.434082, -0.9536133, -22.8658543, 223.0487823, 96.2195129, -0.0914778
-0.3608398, 0.4389648, -0.9648438, -24.3292694, 224.0853729, 97.5609741, -0.0985275
-0.3486328, 0.4394531, -0.9667969, -24.0853672, 223.2926941, 98.2317123, -0.043473
-0.3393555, 0.4370117, -0.9594727, -23.780489, 219.9390259, 98.1707306, -0.0710002
-0.3295898, 0.4194336, -0.9550781, -24.2073174, 217.7439117, 96.4024429, -0.1539178
-0.3320312, 0.4150391, -0.9594727, -25.4878063, 217.3170776, 95.5487823, -0.149218
-0.3569336, 0.4130859, -0.9370117, -27.0121956, 216.5853729, 94.9390259, -0.1572747
-0.3666992, 0.4150391, -0.9384766, -26.8292694, 215.9146423, 94.9390259, -0.1576104
-0.3710938, 0.4140625, -0.9663086, -27.0121956, 215.1219635, 94.7561035, -0.2103151
-0.3808594, 0.4130859, -0.9682617, -27.1341476, 214.5731812, 94.9390259, -0.2868544
-0.3798828, 0.4150391, -0.9541016, -28.6585369, 211.3414612, 94.7561035, -0.325124
-0.3544922, 0.40625, -0.9052734, -29.1463413, 209.3902435, 94.3902435, -0.3442588
-0.3349609, 0.3959961, -0.887207, -30.5487804, 207.3170776, 91.8292694, -0.342916
-0.3037109, 0.3598633, -0.9057617, -31.4634151, 207.8048859, 90, -0.4335546
-0.3071289, 0.3486328, -0.9111328, -32.9268303, 208.6585388, 87.9268341, -0.4996872
-0.3349609, 0.3417969, -0.8955078, -31.280489, 206.2195129, 89.8170776, -0.5493706
-0.3374023, 0.3427734, -0.8852539, -29.8170738, 204.5731812, 91.0365906, -0.5997253
-0.3173828, 0.3442383, -0.8769531, -26.5243912, 202.6829376, 91.8902435, -0.637995
-0.3125, 0.340332, -0.8769531, -25.2439022, 202.3170776, 91.1585388, -0.6207065
-0.3134766, 0.3398438, -0.8925781, -25.3658543, 201.0975647, 88.9634171, -0.6604868
-0.3256836, 0.34375, -0.8881836, -25.9756107, 199.9390259, 88.4146347, -0.7272908
-0.3291016, 0.3491211, -0.8686523, -26.6463413, 196.646347, 88.2317123, -0.7078202
-0.3149414, 0.3520508, -0.8276367, -26.280489, 195.5487823, 88.5975647, -0.6974136
-0.2978516, 0.3486328, -0.8168945, -25.1829281, 193.8414612, 87.8048782, -0.6903639
-0.2734375, 0.3364258, -0.7929688, -24.0853672, 193.2317047, 86.8292694, -0.6742504
-0.269043, 0.3300781, -0.777832, -23.5365868, 192.4390259, 84.2682953, -0.6265812
-0.2456055, 0.3071289, -0.7495117, -22.1341476, 190.7926941, 82.3780518, -0.6665293
-0.2299805, 0.2939453, -0.7407227, -21.3414631, 190.4268341, 81.9512177, -0.6601511
-0.2060547, 0.2739258, -0.7475586, -20.060976, 190.36586, 81.0975647, -0.6314488
-0.2084961, 0.2758789, -0.7456055, -19.4512196, 189.9390259, 81.3414688, -0.6139925
-0.2050781, 0.2949219, -0.7602539, -18.3536587, 189.0243988, 83.1707306, -0.536614
-0.1933594, 0.3198242, -0.7895508, -17.5, 188.1707306, 84.3292694, -0.4281834
-0.1928711, 0.3305664, -0.809082, -16.5853653, 185.9146423, 84.9390259, -0.3959564
-0.2075195, 0.3457031, -0.7875977, -16.6463413, 184.5731812, 84.6341476, -0.4137484
-0.2109375, 0.34375, -0.7563477, -16.4634151, 180, 83.3536606, -0.367422
-0.1816406, 0.3164062, -0.7055664, -17.1951218, 176.9512177, 79.5121994, -0.3049821
-0.1665039, 0.2939453, -0.6914062, -17.8658543, 177.3170776, 77.1341476, -0.1955444
-0.1591797, 0.2524414, -0.6777344, -17.9878044, 179.3292694, 73.4146347, -0.103563
-0.1669922, 0.246582, -0.6625977, -17.0121956, 179.8170776, 73.0487823, -0.057908
-0.1616211, 0.25, -0.628418, -13.0487804, 179.2073212, 75.3048782, 0.0198062
-0.1083984, 0.2612305, -0.6459961, -10.7317076, 179.2073212, 76.5853653, 0.0970169
-0.0864258, 0.2529297, -0.6767578, -8.4146347, 180.9146423, 76.7682953, 0.1710384
-0.081543, 0.2543945, -0.7265625, -8.1097565, 181.0975647, 75.7926865, 0.1542535
-0.0922852, 0.2607422, -0.7260742, -7.1341467, 178.5365906, 75.5487823, 0.1827878
-0.1088867, 0.2709961, -0.6630859, -5.670732, 176.2195129, 76.0365906, 0.2381781
-0.1010742, 0.2763672, -0.6313477, -1.2195122, 172.4390259, 76.7682953, 0.290547
-0.0634766, 0.2753906, -0.6254883, 1.8902439, 173.1097565, 74.8170776, 0.3219348
-0.0566406, 0.2739258, -0.6523438, 2.2560976, 174.6341553, 73.3536606, 0.3785
-0.0839844, 0.2895508, -0.7060547, 3.5365853, 175.4878082, 71.8292694, 0.3519799
-0.1020508, 0.3017578, -0.7148438, 5, 174.0243988, 72.68293, 0.3066606
-0.1079102, 0.3442383, -0.6953125, 7.6219516, 168.6585388, 75.7926865, 0.3432517
-0.0400391, 0.3623047, -0.6962891, 8.6585369, 166.0365906, 76.0365906, 0.3147173
-0.0092773, 0.3540039, -0.7119141, 7.0121951, 163.5975647, 72.9878082, 0.2979324
0.0014648, 0.3525391, -0.7270508, 4.8780489, 163.1097565, 70.6097565, 0.2918898
-0.0092773, 0.3510742, -0.7143555, 2.0121951, 159.4512177, 67.8658524, 0.3214313
-0.0048828, 0.3481445, -0.6376953, 1.7682927, 156.7073212, 68.2926865, 0.2536202
0.0166016, 0.3422852, -0.5927734, 3.2317073, 151.9512177, 69.0853653, 0.2099794
0.0766602, 0.3056641, -0.5141602, 4.390244, 150.9146423, 66.7073212, 0.1755703
0.1049805, 0.2817383, -0.4951172, 4.2682929, 151.5243988, 64.6951218, 0.1243763
0.1293945, 0.2495117, -0.4677734, 4.4512196, 154.6951294, 60.9146347, 0.0985275
0.1259766, 0.2392578, -0.4584961, 5.1219511, 155.4268341, 60.6097565, 0.1126268
0.1313477, 0.2172852, -0.4702148, 8.3536587, 155.4268341, 62.7439041, 0.0736858
0.1401367, 0.2060547, -0.4760742, 10.1219511, 154.3292694, 64.3902435, 0.0011749
0.1464844, 0.1982422, -0.4790039, 12.8658543, 152.86586, 67.2560959, -0.0041962
0.1586914, 0.2084961, -0.4506836, 14.3292685, 152.0121918, 67.8048782, -0.021149
0.1591797, 0.222168, -0.425293, 17.560976, 150.8536682, 67.9268341, -0.0392767
0.1635742, 0.2705078, -0.4052734, 19.4512196, 150.3048859, 67.3170776, -0.0720073
0.1723633, 0.2983398, -0.4321289, 23.2926826, 151.0975647, 65.9146347, -0.1037308
0.1791992, 0.3266602, -0.5644531, 22.7439022, 151.4634247, 65.3048782, -0.1116197
0.1708984, 0.3374023, -0.6445312, 21.2195129, 150.1219482, 65.7926865, -0.103563
0.1206055, 0.3461914, -0.6796875, 16.5853653, 142.0731812, 68.5975647, -0.0887922
0.1074219, 0.3408203, -0.6362305, 15.4268293, 136.0365906, 70.5487823, -0.152575
0.1425781, 0.3056641, -0.5239258, 15.3658543, 125.9756165, 70.4878082, -0.1522393
0.1875, 0.2470703, -0.4672852, 15.4878054, 124.0853653, 68.0487823, -0.0948348
0.1806641, 0.2294922, -0.4511719, 16.9512196, 125.6707382, 61.9512215, -0.0614328
0.1347656, 0.2329102, -0.4321289, 18.2317085, 126.4634171, 60.0609779, -0.0473335
0.1259766, 0.2441406, -0.4282227, 21.9512196, 124.8780518, 61.4024391, 0.0246738
0.1606445, 0.2719727, -0.4399414, 23.4756107, 123.4146347, 63.2926826, 0.0063783
0.1918945, 0.2871094, -0.4482422, 23.7195129, 120.18293, 66.0975647, -0.0236667
0.2578125, 0.2871094, -0.4379883, 21.4634151, 117.4390259, 65.3658524, 0.0350805
0.2861328, 0.2773438, -0.4272461, 20.9146347, 115.9146347, 63.841465, 0.0773785
0.3012695, 0.2475586, -0.4243164, 20.8536587, 111.8902435, 60.9756126, 0.1186694
0.2915039, 0.2338867, -0.4316406, 22.0121956, 110.5487823, 60.4878044, 0.1616388
0.2563477, 0.2202148, -0.4907227, 24.6951218, 106.4634171, 62.0121956, 0.2077974
0.2138672, 0.2250977, -0.5249023, 25.9756107, 103.9024429, 64.0243912, 0.1478752
0.2016602, 0.2285156, -0.515625, 27.0121956, 96.7682953, 67.9878082, 0.13579
0.2280273, 0.2246094, -0.4091797, 27.7439022, 92.7439041, 68.6585388, 0.1428397
0.2553711, 0.2182617, -0.328125, 29.2682934, 86.5853653, 65.8536606, 0.1455253
0.3266602, 0.2021484, -0.1918945, 30.9146347, 85.3658524, 62.8048782, 0.1609674
0.3666992, 0.199707, -0.1591797, 32.6219521, 88.4146347, 54.4512215, 0.2183719
0.418457, 0.1987305, -0.175293, 32.4390259, 93.9634171, 49.1463432, 0.1888304
0.4384766, 0.2011719, -0.2011719, 31.9512196, 95.6707306, 48.841465, 0.1075914
0.4799805, 0.1987305, -0.246582, 30.3658543, 94.6951218, 51.1585388, 0.114641
0.4941406, 0.2021484, -0.2626953, 29.5731716, 92.7439041, 53.1097565, 0.1045701
0.5385742, 0.203125, -0.2851562, 27.9268303, 89.2073212, 55.8536606, 0.0897993
0.5620117, 0.1860352, -0.2905273, 27.2560978, 87.9268341, 56.2804909, 0.0052033
0.5566406, 0.1772461, -0.2905273, 27.0731716, 84.4512253, 55.3658562, -0.0773785
0.5205078, 0.1679688, -0.2998047, 26.8902454, 82.5609741, 55.18293, -0.0867781
0.4868164, 0.1708984, -0.3007812, 28.841465, 78.1097565, 54.5121956, -0.0508583
0.4482422, 0.1787109, -0.3129883, 29.8170738, 75.7317123, 55.0609779, -0.0387732
0.4414062, 0.1762695, -0.3276367, 30.5487804, 71.8902435, 55.7926826, -0.1633173
0.4482422, 0.1674805, -0.3276367, 30.8536587, 68.9634171, 54.7560997, -0.2274357
0.4570312, 0.1616211, -0.331543, 31.5853672, 67.0121994, 53.2926826, -0.2561379
0.4746094, 0.1577148, -0.3447266, 33.0487823, 63.4146347, 49.5121956, -0.2841688
0.4667969, 0.1538086, -0.3334961, 34.0853653, 61.4024391, 47.8048782, -0.2888685
0.4433594, 0.1645508, -0.3383789, 37.8048782, 57.3170738, 45.7926826, -0.254963
0.4316406, 0.1875, -0.3857422, 38.2317085, 54.2073174, 45.1829262, -0.2902113
0.4282227, 0.2060547, -0.3901367, 34.9390259, 47.8048782, 44.3902435, -0.3210956
0.4472656, 0.2407227, -0.3720703, 32.8658562, 44.5121956, 44.4512215, -0.2801404
0.4755859, 0.253418, -0.3525391, 29.7560978, 38.4146347, 43.9634171, -0.2875257
0.546875, 0.2612305, -0.2973633, 29.3292694, 35.8536606, 42.8048782, -0.2754406
0.5708008, 0.2617188, -0.2539062, 28.5365868, 29.6951218, 39.8170738, -0.2321355
0.5849609, 0.2587891, -0.1518555, 26.7073174, 22.0121956, 37.8048782, -0.1829557
0.6083984, 0.2460938, -0.1181641, 24.3292694, 19.6341476, 37.1951218, -0.2328069
0.7250977, 0.1459961, -0.0527344, 16.5853653, 19.3902435, 33.9024391, -0.2465705
0.7919922, 0.0786133, -0.0253906, 13.4146347, 20.2439022, 30.3048782, -0.1898375
0.8540039, -0.0664062, 0.0195312, 12.3780489, 21.7073174, 22.1951218, -0.0975204
0.8203125, -0.1420898, 0.0332031, 15.060976, 22.1341476, 19.7560978, 0.0068818
0.7841797, -0.1425781, 0.0205078, 23.1097565, 22.9878063, 21.280489, 0.1713741
0.7246094, -0.0820312, -0.0180664, 26.5243912, 23.1097565, 24.5731716, 0.209308
0.7089844, -0.0283203, -0.0400391, 31.8902454, 23.0487804, 32.5609779, 0.1995727
0.6987305, 0.081543, -0.0869141, 32.5609779, 22.5, 35.0609779, 0.2982681
0.6899414, 0.1464844, -0.0932617, 30.9146347, 21.280489, 36.7682953, 0.4019989
0.6518555, 0.2788086, -0.0947266, 26.0975609, 18.780489, 35.5487823, 0.5268788
0.6411133, 0.3349609, -0.1201172, 22.6219521, 18.1097565, 35.4878044, 0.6128176
0.7172852, 0.3950195, -0.1816406, 11.7073174, 15.6707325, 33.4146347, 0.6749218
0.7797852, 0.3955078, -0.190918, 5.2439027, 12.8048782, 30.8536587, 0.7460899
0.8916016, 0.3286133, -0.1806641, -5.7317076, 7.7439027, 24.3292694, 0.8585489
0.9272461, 0.1914062, -0.1655273, -9.8170738, 6.2195125, 21.4024391, 0.9632868
0.9077148, 0.1230469, -0.1738281, -13.2926836, 2.195122, 18.4756107, 0.951873
0.8334961, 0.0229492, -0.1948242, -12.8048782, 0.7926829, 18.7195129, 1.0148165
0.7841797, -0.0097656, -0.1923828, -8.4756098, -2.5, 21.4024391, 1.1029374
0.6733398, -0.027832, -0.1928711, -5.7317076, -5, 22.8048782, 1.1559777
0.6166992, -0.0175781, -0.2045898, 0.6097561, -10.6707315, 23.5975609, 1.2056611
0.5322266, 0.0419922, -0.2124023, 4.0243902, -15.8536587, 22.6829281, 1.298146
0.4897461, 0.0820312, -0.2070312, 5.0609756, -18.9024391, 22.2560978, 1.2912642
0.5317383, 0.1757812, -0.2802734, 4.390244, -22.8048782, 22.560976, 1.2143893
0.5839844, 0.2182617, -0.2895508, 2.9268293, -23.9024391, 21.3414631, 1.1640345
0.6962891, 0.2583008, -0.2592773, -1.5243902, -28.3536587, 17.1951218, 1.1116655
0.7871094, 0.215332, -0.2143555, -5.5487804, -32.0121956, 14.3292685, 1.0874952
0.8144531, 0.1894531, -0.1699219, -14.4512196, -38.7195129, 9.5731707, 1.0544289
0.8442383, 0.1533203, -0.0644531, -17.439024, -39.9390259, 9.0243902, 1.0363012
0.8671875, 0.1469727, -0.0400391, -16.9512196, -37.0731697, 10.5487804, 0.9411307
0.9433594, 0.1137695, -0.0625, -14.7560978, -34.5121956, 11.4024391, 0.8558633
0.9589844, 0.0844727, -0.0786133, -10.9146347, -33.1097565, 10.3048782, 0.8112154
0.9360352, 0.0058594, -0.1142578, -10.8536587, -38.9634171, 6.1585369, 0.7484398
0.9125977, -0.0415039, -0.1323242, -12.3170738, -42.1951218, 3.8414636, 0.6917067
0.8413086, -0.1176758, -0.1411133, -13.841464, -45.7926826, -0.1829268, 0.6859998
0.7958984, -0.1450195, -0.1459961, -12.7439032, -45.7317085, -2.5609756, 0.6064393
0.6967773, -0.1694336, -0.1728516, -7.5, -44.0243912, -6.2195125, 0.4745098
0.6015625, -0.1499023, -0.2270508, -4.390244, -43.4146347, -8.1097565, 0.4254978
0.5693359, -0.1269531, -0.2495117, 2.6219513, -44.0243912, -11.5853662, 0.3791714
0.5371094, -0.0629883, -0.2763672, 6.5243902, -45.5487823, -13.3536587, 0.3472801
0.53125, -0.0273438, -0.2802734, 13.5365858, -50, -17.0121956, 0.3017929
0.5722656, 0.0288086, -0.2944336, 16.5853653, -53.0487823, -18.6585369, 0.2593271
0.612793, 0.0366211, -0.3022461, 18.1707325, -59.8170738, -22.7439022, 0.2254215
0.6972656, 0.0043945, -0.3061523, 14.3902445, -63.4146347, -29.5731716, 0.2146792
0.7128906, -0.0161133, -0.2949219, 12.3780489, -63.7195129, -32.8658562, 0.2177005
0.6967773, -0.0546875, -0.2724609, 12.1951218, -64.7560959, -37.7439041, 0.1404898
0.6767578, -0.0634766, -0.2626953, 15.2439032, -65.6097565, -38.2926826, 0.1552605
0.6381836, -0.0341797, -0.2734375, 24.2073174, -69.2682953, -37.6219521, 0.1827878
0.5986328, 0.0449219, -0.3149414, 28.2926826, -71.5243912, -36.7682953, 0.1834592
0.5830078, 0.097168, -0.3364258, 30.7926846, -76.0975647, -36.0365868, 0.1822843
0.5737305, 0.1860352, -0.3432617, 28.9024391, -78.4756088, -35.4878044, 0.2321355
0.59375, 0.2138672, -0.3305664, 19.8780499, -81.7073212, -36.0975609, 0.2348211
0.6547852, 0.2231445, -0.2880859, 14.2073174, -82.8048782, -37.5609779, 0.2002441
0.6972656, 0.2036133, -0.2646484, 4.390244, -83.9634171, -41.5853653, 0.2344854
0.7592773, 0.1333008, -0.2353516, -0.7926829, -83.1707306, -45.5487823, 0.2670481
0.7827148, 0.0947266, -0.222168, -1.1585366, -82.8048782, -47.2560997, 0.2898756
0.7963867, 0.0454102, -0.2109375, 1.097561, -82.3170776, -48.7804871, 0.325124
0.793457, 0.0317383, -0.2114258, 3.0487804, -81.8902435, -49.1463432, 0.3749752
0.7548828, 0.027832, -0.230957, 8.1097565, -81.2195129, -49.8170738, 0.297261
0.6943359, 0.0361328, -0.2680664, 10.4878054, -81.0365906, -50.3048782, 0.2717479
0.6621094, 0.0322266, -0.2871094, 13.6585369, -82.1341476, -51.1585388, 0.2912184
0.6040039, 0.0332031, -0.3183594, 14.6951227, -82.8658524, -51.4634171, 0.3106889
0.5820312, 0.0302734, -0.3374023, 15.4878054, -84.0853653, -53.1097565, 0.3059892
0.5478516, 0.0117188, -0.3652344, 16.2195129, -84.6951218, -53.2926826, 0.3568475
0.53125, 0.0131836, -0.3725586, 18.0487804, -85.3048782, -54.7560997, 0.342916
0.5004883, 0.0209961, -0.387207, 22.0121956, -86.646347, -54.9390259, 0.2509346
0.4882812, 0.0317383, -0.3959961, 24.2073174, -87.2560959, -54.6951218, 0.2400244
0.4785156, 0.065918, -0.4301758, 28.5365868, -89.2073212, -53.7195129, 0.1911803
0.4702148, 0.1010742, -0.480957, 30.3048782, -89.5731735, -54.0243912, 0.156939
0.4648438, 0.1166992, -0.5097656, 33.7804871, -91.2804871, -53.4756126, 0.1018845
0.4404297, 0.1342773, -0.5507812, 34.9390259, -93.3536606, -52.8048782, 0.0636149
0.4370117, 0.1430664, -0.5541992, 34.2073174, -99.9390259, -52.1951218, 0.0548867
0.4453125, 0.1523438, -0.5253906, 32.4390259, -103.4146347, -51.7073174, 0.0503548
0.4648438, 0.1489258, -0.5102539, 28.0487804, -107.5609818, -52.1341476, 0.0320592
0.4887695, 0.1425781, -0.4804688, 24.5731716, -108.8414688, -52.6829262, -0.0856031
0.4990234, 0.1347656, -0.4707031, 23.9024391, -109.2682953, -53.5975609, -0.1398184
0.5014648, 0.1416016, -0.4780273, 25, -110.5487823, -52.9268303, -0.1743954
0.4985352, 0.1542969, -0.4907227, 26.280489, -111.8292694, -51.8902435, -0.194873
0.4741211, 0.1933594, -0.5151367, 28.6585369, -113.4146347, -48.2317085, -0.2109865
0.4580078, 0.2299805, -0.5610352, 28.3536587, -115.0609818, -46.341465, -0.178088
0.4501953, 0.2412109, -0.5839844, 23.1097565, -117.9878082, -44.2073174, -0.2103151
0.4614258, 0.2402344, -0.6069336, 18.780489, -119.6951218, -43.9024391, -0.2735943
0.4692383, 0.2314453, -0.6025391, 9.7560978, -122.9878082, -44.8170738, -0.2717479
0.4819336, 0.2119141, -0.5878906, 6.0365853, -124.4512253, -45.8536606, -0.2586557
0.4833984, 0.2011719, -0.59375, 2.3170731, -126.7682953, -47.5, -0.2344854
0.4770508, 0.1875, -0.6333008, 1.8902439, -128.5975647, -47.3780518, -0.1884947
0.4677734, 0.1850586, -0.6450195, 2.3780489, -129.6951294, -46.0975609, -0.1250477
0.4550781, 0.1958008, -0.637207, 1.5853659, -133.1707306, -42.9268303, -0.188159
0.4628906, 0.1987305, -0.6147461, 0.5487805, -134.7561035, -41.8902435, -0.1764096
0.5029297, 0.1948242, -0.5463867, -2.7439024, -136.2195129, -42.4390259, -0.1062486
0.5732422, 0.1806641, -0.4995117, -3.8414636, -135.3048859, -44.2682953, -0.0780499
0.5839844, 0.1674805, -0.5039062, -6.0975609, -131.9512177, -48.7804871, -0.0562295
0.5878906, 0.1464844, -0.5014648, -7.1341467, -131.0365906, -50.1829262, 0.0132601
0.5908203, 0.140625, -0.5234375, -7.8658538, -130.6097565, -50.9756126, 0.0035248
0.5585938, 0.1523438, -0.6274414, -7.3170733, -129.3902435, -49.7560997, -0.033402
0.5117188, 0.1660156, -0.6816406, -5.9146342, -125.1219559, -43.5975609, 0.0229953
0.4213867, 0.2094727, -0.7646484, -6.1585369, -126.4634171, -34.3292694, 0.0656291
0.3984375, 0.2236328, -0.7939453, -6.4024391, -130.2439117, -31.2195129, 0.1005417
0.3930664, 0.2246094, -0.7949219, -6.4634147, -136.646347, -32.0121956, 0.1072557
0.3862305, 0.2177734, -0.777832, -6.0975609, -137.9268341, -35, 0.0830854
0.3422852, 0.2250977, -0.7563477, -6.2195125, -136.8292694, -40.2439041, 0.0944991
0.3056641, 0.2436523, -0.7993164, -6.7073174, -135.3048859, -41.2804871, 0.1347829
0.2924805, 0.2480469, -0.8427734, -10.060976, -133.7195129, -38.7195129, 0.1728847
0.2939453, 0.2641602, -0.9394531, -12.7439032, -134.0853729, -36.341465, 0.1149767
0.3027344, 0.265625, -0.9692383, -18.780489, -136.8292694, -31.4024391, 0.096849
0.3295898, 0.2719727, -0.9506836, -20.7926826, -139.0243988, -30.1829281, 0.0924849
0.340332, 0.2749023, -0.9008789, -21.8292694, -144.3292694, -31.4024391, 0.0780499
0.362793, 0.2651367, -0.7651367, -21.5853672, -147.5609741, -36.6463432, 0.0726787
0.3745117, 0.2583008, -0.7177734, -21.9512196, -147.0121918, -39.6341476, 0.0950027
0.3994141, 0.2363281, -0.7036133, -25.1219521, -141.0975647, -43.1707344, 0.0260166
0.4165039, 0.2324219, -0.7324219, -27.9268303, -136.8902435, -42.9878044, -0.1144732
0.4511719, 0.2299805, -0.8183594, -33.5975609, -131.3414612, -39.5731735, -0.1754025
0.4624023, 0.2255859, -0.887207, -35.4268303, -130.9146423, -38.0487823, -0.239353
0.4584961, 0.2250977, -0.8935547, -34.5121956, -134.3292694, -35.3048782, -0.3012894
0.4306641, 0.246582, -0.8613281, -32.1341476, -136.9512177, -35.1219521, -0.3197528
0.4033203, 0.2612305, -0.8500977, -27.0121956, -139.6341553, -36.9512215, -0.3435874
0.3388672, 0.2885742, -0.8764648, -26.3414631, -139.6951294, -38.1707344, -0.512108
0.3071289, 0.2944336, -0.9033203, -30.9146347, -138.5365906, -40.0609779, -0.6111391
0.2592773, 0.2675781, -0.9370117, -40.8536606, -139.2073212, -40.0609779, -0.6782788
0.2495117, 0.2504883, -0.934082, -44.5731735, -140.6097565, -39.1463432, -0.7363546
0.2626953, 0.2080078, -0.9125977, -47.1951218, -142.1951294, -37.8658562, -0.7751278
0.2744141, 0.1923828, -0.8950195, -45.2439041, -142.0121918, -38.1707344, -0.7528038
0.2709961, 0.1889648, -0.8618164, -37.9878044, -141.4634247, -39.3902435, -0.8273289
0.2397461, 0.2255859, -0.8354492, -33.9024391, -141.2195129, -39.8170738, -0.9240101
0.230957, 0.2490234, -0.831543, -30.5487804, -139.8780518, -39.6341476, -0.95523
0.2299805, 0.2910156, -0.8852539, -31.1585369, -138.9024353, -39.3292694, -0.9921569
0.2314453, 0.300293, -0.9262695, -36.4634171, -137.1951294, -39.1463432, -1.0022278
0.2270508, 0.3027344, -1.0009766, -39.4512215, -137.3170776, -39.3902435, -1.0297551
0.2133789, 0.2993164, -1.0161133, -42.7439041, -139.6341553, -38.9634171, -1.0609751
0.1660156, 0.3100586, -1.0102539, -42.6829262, -144.3902435, -38.7804871, -1.071046
0.1367188, 0.3242188, -0.9951172, -42.8048782, -146.646347, -38.6585388, -1.0445258
0.0908203, 0.3442383, -0.9790039, -45, -149.9390259, -38.5365868, -0.9753719
0.0810547, 0.3481445, -0.9897461, -48.3536606, -150.7926788, -38.7804871, -0.989807
0.0859375, 0.3212891, -1.0537109, -56.2195129, -152.6219482, -39.8170738, -0.9658045
0.1108398, 0.2441406, -1.0317383, -59.7560997, -154.3292694, -40.3658562, -0.9214923
0.1142578, 0.2080078, -0.9648438, -61.9512215, -158.6585388, -41.1585388, -0.8988327
0.1342773, 0.1630859, -0.809082, -60.6097565, -160.3048859, -41.341465, -0.8726482
0.1464844, 0.1611328, -0.7495117, -54.9390259, -158.7195129, -41.4024391, -0.7736172
0.1772461, 0.1826172, -0.6914062, -52.1951218, -155.3048859, -41.4024391, -0.7507897
0.1860352, 0.2055664, -0.7016602, -48.9634171, -147.1951294, -40.8536606, -0.764889
0.199707, 0.2504883, -0.8178711, -47.9268303, -142.0731812, -38.9024391, -0.7205768
0.2011719, 0.2685547, -0.8925781, -48.2926826, -141.5243988, -37.5, -0.6823072
0.1733398, 0.2802734, -0.9663086, -45.5487823, -144.0853729, -35.1219521, -0.6567941
0.152832, 0.2783203, -0.9643555, -42.8048782, -146.9512177, -35.0609779, -0.6124819
0.1020508, 0.269043, -0.9116211, -36.7073174, -153.1097565, -37.9268303, -0.5562524
0.0429688, 0.2539062, -0.8496094, -35.1219521, -154.8170776, -40.4268303, -0.6027466
0.0166016, 0.2485352, -0.8227539, -35.0609779, -154.6951294, -44.3902435, -0.5926757
-0.0166016, 0.2333984, -0.8012695, -36.5243912, -153.2317047, -45.0609779, -0.5533989
-0.0195312, 0.2197266, -0.8481445, -40.5487823, -150.4268341, -42.4390259, -0.5381247
-0.0019531, 0.1777344, -1.0366211, -42.3780479, -149.5121918, -39.6341476, -0.5327535
0, 0.1533203, -1.1142578, -42.6219521, -151.5853729, -33.0487823, -0.4768597
-0.0292969, 0.1289062, -1.1225586, -37.3780479, -161.3414612, -28.4756107, -0.5163043
-0.0581055, 0.1337891, -1.0673828, -32.7439041, -167.5609741, -28.0487804, -0.6191958
-0.1083984, 0.1791992, -0.9233398, -25, -176.2804871, -30.4878063, -0.663508
-0.1225586, 0.2070312, -0.8735352, -23.5975609, -176.8902435, -32.8048782, -0.7017777
-0.1469727, 0.2563477, -0.8803711, -26.3414631, -172.6219482, -36.4024391, -0.7064775
-0.1518555, 0.2836914, -1.0522461, -29.4512196, -170.6097565, -36.4634171, -0.7313191
-0.1552734, 0.2885742, -1.1323242, -34.3902435, -171.1585388, -33.5365868, -0.7789883
-0.171875, 0.2983398, -1.1855469, -34.2682953, -174.6951294, -31.4634151, -0.8199435
-0.1826172, 0.3100586, -1.1518555, -28.5975609, -185.8536682, -28.841465, -0.8531777
-0.1987305, 0.3344727, -1.0439453, -25.4268303, -191.5243988, -29.3292694, -0.8830549
-0.1992188, 0.3432617, -0.9975586, -24.1463413, -197.5609741, -34.2073174, -0.9955138
-0.1889648, 0.3486328, -0.9223633, -31.7073174, -196.2195129, -39.3902435, -1.0394903
-0.1757812, 0.3413086, -0.9018555, -37.6829262, -194.0243988, -41.4024391, -1.0391547
-0.1206055, 0.3051758, -0.8916016, -47.8048782, -190.4268341, -42.2560997, -1.0515755
-0.0820312, 0.2832031, -0.8925781, -49.9390259, -189.2073212, -41.4634171, -1.067689
-0.0253906, 0.2451172, -0.9145508, -47.1341476, -188.0487823, -39.5731735, -1.0347906
-0.0043945, 0.2094727, -0.9511719, -43.4146347, -188.2926941, -38.7804871, -1.0953841
-0.0131836, 0.199707, -0.9677734, -34.3902435, -190, -39.0853653, -1.1912261
-0.0688477, 0.1958008, -0.9545898, -30.6707325, -191.3414612, -39.8170738, -1.1799802
-0.1132812, 0.2036133, -0.9169922, -25.4268303, -194.0243988, -40.4878044, -1.1683986
-0.1625977, 0.2275391, -0.8349609, -23.4756107, -194.3902435, -40.1219521, -1.1683986
-0.1713867, 0.246582, -0.8198242, -22.8048782, -193.3536682, -39.8780479, -1.1465782
-0.168457, 0.2724609, -0.956543, -24.0853672, -189.512207, -38.5365868, -1.1428855
-0.1782227, 0.2763672, -1.0825195, -24.8780499, -187.9878082, -36.9512215, -1.1744411
-0.2456055, 0.2958984, -1.2758789, -23.4756107, -191.0975647, -31.7682934, -1.0965591
-0.3046875, 0.3183594, -1.2963867, -20.1829281, -196.2804871, -28.841465, -1.0295872
-0.4243164, 0.3876953, -1.2285156, -13.4146347, -209.512207, -25.6707325, -0.9738613
-0.4726562, 0.4726562, -1.1469727, -12.1951218, -214.6951294, -26.3414631, -0.9334096
-0.4682617, 0.496582, -1.1293945, -17.8658543, -218.4756165, -30.9146347, -0.8420996
-0.4023438, 0.484375, -1.1030273, -24.6951218, -218.1707306, -34.2682953, -0.7934234
-0.3515625, 0.4472656, -1.0874023, -40.9146347, -217.0731812, -40.4878044, -0.7974517
-0.2416992, 0.331543, -1.0170898, -47.0731735, -217.1951294, -43.1097565, -0.7316548
-0.1928711, 0.2680664, -0.9707031, -49.5731735, -215.7926941, -46.1585388, -0.6782788
-0.1411133, 0.1757812, -0.8710938, -40.3048782, -211.8292694, -47.9878044, -0.6299382
-0.1391602, 0.1572266, -0.831543, -34.1463432, -208.7195129, -48.2926826, -0.6280919
-0.1811523, 0.175293, -0.765625, -24.4512196, -200.6097565, -47.5, -0.6361486
-0.1992188, 0.2084961, -0.7382812, -22.439024, -196.646347, -47.0731735, -0.6074464
-0.2226562, 0.2939453, -0.7680664, -23.1097565, -189.0853729, -44.7560997, -0.546685
-0.2001953, 0.3505859, -0.9467773, -25.6097565, -185.36586, -43.9024391, -0.4929732
-0.203125, 0.3637695, -1.0302734, -30.1219521, -180.8536682, -41.7073174, -0.5359426
-0.2382812, 0.3764648, -1.0854492, -30.6707325, -181.5243988, -40.6707344, -0.536614
-0.269043, 0.3867188, -1.0615234, -26.8292694, -187.3170776, -40.3658562, -0.509926
-0.340332, 0.4082031, -0.9790039, -24.1463413, -190.2439117, -41.4634171, -0.4682994
-0.3676758, 0.4204102, -0.9580078, -22.5, -192.1951294, -44.3292694, -0.4171054
-0.3994141, 0.4257812, -1.0073242, -28.5365868, -189.3902435, -45.9756126, -0.3801785
-0.4013672, 0.4072266, -1.0595703, -33.3536606, -188.3536682, -45.9146347, -0.4488289
-0.4160156, 0.3598633, -1.1044922, -39.9390259, -189.2682953, -43.9634171, -0.5564202
-0.4257812, 0.3388672, -1.0820312, -39.8170738, -191.3414612, -42.6829262, -0.571191
-0.4389648, 0.3237305, -0.9946289, -34.0853653, -195.1219482, -41.5853653, -0.5748836
-0.4345703, 0.3359375, -0.9824219, -30.7926846, -195.9146423, -42.3780479, -0.5758907
-0.4335938, 0.3422852, -1.0063477, -27.9878063, -194.146347, -45.9146347, -0.5681697
-0.4541016, 0.3271484, -1.0463867, -28.780489, -193.1707306, -47.3170738, -0.5909972
-0.4633789, 0.3115234, -1.0317383, -31.4634151, -193.4146423, -49.5731735, -0.7182269
-0.4707031, 0.2705078, -0.9438477, -31.4024391, -194.6341553, -49.8780518, -0.7764706
-0.4624023, 0.253418, -0.8823242, -28.2926826, -195.7926941, -50.4878044, -0.7786526
-0.4355469, 0.2441406, -0.8242188, -24.3902435, -192.3170776, -50.8536606, -0.7749599
-0.4233398, 0.2495117, -0.8603516, -23.2317085, -189.0853729, -50.6707344, -0.7823453
-0.4130859, 0.2792969, -1.0004883, -22.560976, -183.8414612, -47.9878044, -0.7413901
-0.4248047, 0.2929688, -1.0576172, -22.0731716, -183.5365906, -46.0975609, -0.7783169
-0.4736328, 0.3305664, -1.081543, -18.5975609, -188.1097565, -43.1707344, -0.8612345
-0.5200195, 0.3769531, -1.0043945, -16.0365849, -191.7073212, -43.0487823, -0.8514992
-0.5424805, 0.3979492, -0.9453125, -12.6219511, -196.5243988, -45.9146347, -0.8196078
-0.5625, 0.4257812, -0.8789062, -12.9878054, -197.3170776, -48.0487823, -0.7803311
-0.5634766, 0.4321289, -0.9047852, -18.5365849, -194.6951294, -51.8292694, -0.7789883
-0.5600586, 0.4038086, -1.015625, -26.7073174, -191.2195129, -52.1951218, -0.770428
-0.5634766, 0.3740234, -1.0458984, -28.7195129, -191.646347, -51.0365868, -0.7313191
-0.5698242, 0.3320312, -1.0200195, -26.2195129, -196.0365906, -48.841465, -0.6507515
-0.5693359, 0.3232422, -0.984375, -22.1951218, -198.5365906, -48.7195129, -0.5601129
-0.5712891, 0.3310547, -0.8935547, -14.3902445, -200.4268341, -51.4634171, -0.5799191
-0.578125, 0.3652344, -0.8496094, -12.7439032, -200, -53.2317085, -0.5453422
-0.5708008, 0.3774414, -0.871582, -14.6951227, -197.3780518, -56.341465, -0.474342
-0.5664062, 0.3769531, -0.9711914, -17.8658543, -195.4878082, -56.5243912, -0.4184482
-0.5708008, 0.3691406, -1.0214844, -21.7682934, -194.2073212, -55.4268303, -0.3221027
-0.5986328, 0.3525391, -1.0869141, -20.9146347, -195, -54.3902435, -0.1868162
-0.6279297, 0.3496094, -1.0942383, -13.5365858, -199.3902435, -54.0243912, -0.1198444
-0.7172852, 0.3632812, -1.0742188, -3.8414636, -205.3048859, -55.1219521, -0.0981918
-0.762207, 0.3833008, -1.0507812, -0.7926829, -207.7439117, -55.8536606, -0.0360876
-0.8291016, 0.4150391, -0.9907227, -0.8536586, -211.0365906, -57.5, 0.0213169
-0.8256836, 0.4243164, -0.9907227, -3.7804878, -210.7926941, -57.9878044, 0.0803998
-0.7841797, 0.4067383, -1.0361328, -13.6585369, -209.7561035, -59.3902435, 0.1394827
-0.7514648, 0.355957, -1.0761719, -17.6829281, -209.5731812, -59.6341476, 0.2099794
-0.7412109, 0.3310547, -1.0664062, -20.1219521, -211.8292694, -58.5975609, 0.1844663
-0.7373047, 0.3164062, -1.0263672, -18.5975609, -213.3536682, -57.5, 0.2163577
-0.7358398, 0.3193359, -0.9931641, -11.7073174, -214.8780518, -56.1585388, 0.2764477
-0.7231445, 0.3295898, -0.9277344, -8.2926826, -214.9390259, -56.5243912, 0.3241169
-0.7202148, 0.3339844, -0.9150391, -6.4024391, -215.1219635, -59.9390259, 0.3456016
-0.7387695, 0.3325195, -0.918457, -9.9390249, -213.1097565, -61.7682953, 0.3704433
-0.7456055, 0.3310547, -0.921875, -11.8902445, -210.8536682, -61.2804909, 0.3402304
-0.7548828, 0.3237305, -0.8891602, -13.841464, -207.5609741, -58.5975609, 0.2294499
-0.7485352, 0.3208008, -0.8500977, -12.9878054, -207.1341553, -57.1951218, 0.1874876
-0.7348633, 0.3325195, -0.7866211, -9.5121956, -205.6097565, -56.2195129, 0.1864805
-0.722168, 0.3769531, -0.7470703, -9.2073174, -202.9878082, -56.5243912, 0.2019226
-0.7158203, 0.4057617, -0.7373047, -10.8536587, -196.0365906, -58.2926826, 0.1643244
-0.7094727, 0.4418945, -0.7553711, -12.7439032, -192.7439117, -58.9024391, 0.0978561
-0.7138672, 0.4536133, -0.809082, -17.3170738, -189.8170776, -59.1463432, 0.0686503
-0.7246094, 0.4370117, -0.9897461, -19.1463413, -188.7804871, -58.6585388, 0.0562295
-0.7558594, 0.418457, -1.0678711, -20.8536587, -187.6219482, -56.8292694, 0.0330663
-0.8530273, 0.3759766, -1.1367188, -17.3780499, -191.7682953, -55, -0.0585794
-0.9018555, 0.3564453, -1.1464844, -14.1463413, -195.4268341, -54.6341476, -0.0793927
-0.9799805, 0.3232422, -1.0947266, -6.9512196, -202.0731812, -56.6463432, -0.1052415
-1.012207, 0.3012695, -1.0351562, -4.0243902, -204.9390259, -58.3536606, -0.1042344
-1.0317383, 0.2734375, -0.9130859, -1.9512196, -207.9878082, -60.9756126, -0.0887922
-0.9916992, 0.2749023, -0.8598633, -2.9268293, -206.0975647, -61.341465, -0.0485084
-0.9594727, 0.2822266, -0.8540039, -6.890244, -197.9268341, -59.7560997, -0.0592508
-0.878418, 0.3061523, -0.8476562, -8.5365858, -194.8170776, -58.7804909, -0.1045701
-0.8427734, 0.3232422, -0.8461914, -8.2317076, -192.1341553, -57.7439041, -0.0807355
-0.7993164, 0.3525391, -0.831543, -6.5243902, -191.7073212, -57.6219521, -0.0411231
-0.800293, 0.3779297, -0.8256836, -2.8658538, -190.2439117, -58.1707344, -0.0041962
-0.8256836, 0.4277344, -0.8364258, -2.3170731, -187.7439117, -57.9878044, 0.0639506
-0.8457031, 0.4550781, -0.8647461, -4.5121951, -186.0365906, -57.68293, 0.188159
-0.8745117, 0.4633789, -0.9379883, -10.7926836, -183.9634247, -58.2317085, 0.1977264
-0.8969727, 0.4521484, -0.9545898, -13.2317076, -184.4512177, -58.7195129, 0.2683909
-0.9335938, 0.4179688, -0.9306641, -13.9024391, -186.2195129, -60.0609779, 0.339559
-0.9580078, 0.3803711, -0.8618164, -12.3780489, -187.012207, -61.0365868, 0.3858854
-0.9667969, 0.3608398, -0.8276367, -7.0121951, -185.6707306, -62.9878082, 0.4644388
-0.9702148, 0.34375, -0.7602539, -5.4878049, -184.2682953, -64.1463394, 0.6301061
-0.9638672, 0.3500977, -0.7416992, -4.8170733, -180.8536682, -65.18293, 0.7081559
-0.9355469, 0.3808594, -0.7446289, -6.0365853, -177.4390259, -65.4878082, 0.7078202
-0.9189453, 0.4072266, -0.7724609, -10.4878054, -168.5975647, -65.2439041, 0.8128939
-0.9008789, 0.4438477, -0.824707, -14.0853662, -163.5365906, -65.8536606, 0.900679
-0.8935547, 0.4433594, -0.8266602, -14.4512196, -164.4512177, -67.2560959, 0.9973602
-0.8876953, 0.4360352, -0.8144531, -13.3536587, -167.6829376, -70.3658524, 1.0485542
-0.8876953, 0.434082, -0.8193359, -13.6585369, -167.5, -71.4634171, 1.074403
-0.902832, 0.4272461, -0.8618164, -17.9878044, -163.2317047, -71.5853653, 1.1485924
-0.9135742, 0.4111328, -0.8774414, -21.8292694, -161.4634247, -71.0365906, 1.2150607
-0.9116211, 0.3955078, -0.8725586, -28.2317085, -161.7682953, -70.18293, 1.2724651
-0.902832, 0.3798828, -0.8349609, -29.5121956, -162.2561035, -70.5487823, 1.2311742
-0.8979492, 0.371582, -0.8017578, -30.3048782, -161.4024353, -71.5853653, 1.2560159
-0.8994141, 0.3588867, -0.7451172, -29.6341476, -160.7926941, -72.3780518, 1.2835431
-0.9008789, 0.3510742, -0.7285156, -26.7073174, -158.5365906, -75.0609741, 1.2885786
-0.9155273, 0.347168, -0.71875, -25.4878063, -157.0121918, -76.7682953, 1.2694438
-0.9345703, 0.3613281, -0.7260742, -26.1585369, -156.2195129, -75.7926865, 1.2915999
-0.9604492, 0.3891602, -0.7460938, -30.3658543, -153.1707306, -72.4390259, 1.2506447
-0.9663086, 0.4033203, -0.7583008, -32.8658562, -151.4024353, -71.4634171, 1.1506065
-0.9648438, 0.3994141, -0.7680664, -36.7073174, -151.8902435, -72.1951218, 1.1492638
-0.9746094, 0.3813477, -0.7607422, -38.4146347, -152.8048859, -73.3536606, 1.1653773
-0.984375, 0.3676758, -0.7597656, -39.5731735, -153.2926941, -75.4878082, 1.1271077
-1.0029297, 0.34375, -0.7558594, -39.8780479, -152.3170776, -76.4024429, 1.0858167
-1.0185547, 0.3261719, -0.7514648, -39.5121956, -150.7317047, -77.2560959, 1.0423438
-1.0395508, 0.2915039, -0.7553711, -39.0853653, -150.8536682, -78.1097565, 0.8491493
-1.0429688, 0.2773438, -0.7636719, -37.9878044, -151.8292694, -77.7439041, 0.6843214
-1.0498047, 0.2719727, -0.7709961, -37.8658562, -151.7682953, -76.9512177, 0.5758907
-1.0527344, 0.2729492, -0.7675781, -38.0487823, -151.5853729, -76.4634171, 0.4750134
-1.0512695, 0.2832031, -0.7641602, -38.7195129, -151.5243988, -75.3658524, 0.3936065
-1.0351562, 0.2915039, -0.7714844, -39.1463432, -151.2804871, -74.8170776, 0.3758145
-1.003418, 0.3061523, -0.7827148, -40.8536606, -151.4634247, -74.4512177, 0.2841688
-0.9741211, 0.3125, -0.78125, -41.8902435, -152.1951294, -74.7560959, 0.1347829
-0.9716797, 0.3120117, -0.7836914, -43.2317085, -153.6585388, -74.6951218, 0.0815747
-0.9741211, 0.3017578, -0.7895508, -43.7804871, -154.0243988, -74.6341476, 0.0327306
-0.9814453, 0.2924805, -0.7944336, -43.5975609, -155.0609741, -74.3292694, -0.033402
-1.0131836, 0.2685547, -0.8017578, -43.0487823, -155.9146423, -74.2073212, -0.1337758
-1.0283203, 0.2509766, -0.8007812, -41.5243912, -158.4756165, -73.2926865, -0.1975586
-1.0615234, 0.2158203, -0.7802734, -40.2439041, -160.7317047, -72.0121994, -0.2084688
-1.0786133, 0.1972656, -0.7651367, -39.7560997, -161.646347, -71.6463394, -0.2328069
-1.0957031, 0.1699219, -0.7329102, -37.7439041, -162.0731812, -69.7560959, -0.3298238
-1.0981445, 0.1665039, -0.7080078, -36.6463432, -161.1585388, -68.7195129, -0.5468528
-1.0932617, 0.1704102, -0.6704102, -33.5365868, -159.5121918, -66.8902435, -0.6937209
-1.0834961, 0.1914062, -0.6450195, -31.7073174, -158.5975647, -65.7926865, -0.7420615
-1.0751953, 0.2109375, -0.6303711, -28.780489, -156.7073212, -64.0853653, -0.7796597
-1.0639648, 0.2426758, -0.605957, -27.8048782, -155.7926941, -63.4146347, -0.8024872
-1.0561523, 0.2548828, -0.5942383, -28.0487804, -153.4146423, -62.0731735, -0.7575036
-1.0400391, 0.2714844, -0.5825195, -28.9024391, -151.7682953, -61.1585388, -0.8034943
-1.0292969, 0.2700195, -0.578125, -32.5, -149.2073212, -60, -0.9324025
-1.0141602, 0.2543945, -0.5546875, -36.2804871, -146.0975647, -58.3536606, -0.9968566
-1.0097656, 0.2456055, -0.5429688, -37.2560997, -144.3902435, -57.8658562, -1.0351263
-1.019043, 0.2246094, -0.5273438, -38.1097565, -140.4268341, -57.0731735, -1.0629892
-1.0263672, 0.21875, -0.5239258, -37.4390259, -138.3536682, -56.4024391, -1.0639963
-1.0356445, 0.2138672, -0.5224609, -35.6707344, -135.0609741, -55.2439041, -1.0472114
-1.0478516, 0.2167969, -0.5229492, -34.7560997, -133.5365906, -54.5731735, -1.1603418
-1.0527344, 0.222168, -0.5297852, -33.5975609, -130.2439117, -53.4756126, -1.2234531
-1.0634766, 0.2436523, -0.5537109, -33.3536606, -128.2317047, -53.4146347, -1.2310063
-1.0703125, 0.2592773, -0.5654297, -33.3536606, -125.3048782, -52.9878044, -1.282536
-1.0883789, 0.2807617, -0.5825195, -33.9634171, -124.5121994, -52.6829262, -1.3429618
-1.0893555, 0.2958984, -0.5869141, -34.9390259, -123.6585388, -52.3780518, -1.3755245
-1.0922852, 0.3037109, -0.5976562, -36.7682953, -123.2926865, -51.8292694, -1.4805982
-1.0927734, 0.2983398, -0.605957, -38.1707344, -123.0487823, -51.4024391, -1.6115206
-1.0957031, 0.2758789, -0.6108398, -40.7317085, -122.4390259, -50.7317085, -1.6303197
-1.0947266, 0.2592773, -0.6044922, -41.0975609, -122.3170776, -50.6707344, -1.6471046
-1.1079102, 0.222168, -0.5942383, -40.8536606, -121.7682953, -49.8780518, -1.6450904
-1.1152344, 0.1958008, -0.5844727, -39.6951218, -121.4024429, -49.3902435, -1.6964523
-1.1245117, 0.184082, -0.5795898, -37.0121956, -120.18293, -48.5365868, -1.7734951
-1.1240234, 0.1806641, -0.5644531, -35.2439041, -119.6341476, -48.1097565, -1.7921263
-1.1269531, 0.1850586, -0.5654297, -31.7682934, -117.9268341, -47.1341476, -1.780209
-1.1323242, 0.2045898, -0.5644531, -30.1829281, -117.0121994, -46.4634171, -1.7607385
-1.1303711, 0.2182617, -0.5634766, -28.1707325, -115.3048782, -45.4878044, -1.8397955
-1.121582, 0.2480469, -0.5625, -27.3780499, -113.9634171, -44.5121956, -1.8572519
-1.1123047, 0.2563477, -0.5620117, -27.6219521, -113.4756088, -44.0243912, -1.8282139
-1.0864258, 0.2680664, -0.5556641, -29.3292694, -112.0731735, -43.2317085, -1.8045472
-1.0771484, 0.2724609, -0.5537109, -30.6097565, -111.2195129, -42.9878044, -1.7860838
-1.0615234, 0.2675781, -0.5449219, -32.9268303, -109.5731735, -42.3780479, -1.735729
-1.0454102, 0.2612305, -0.5297852, -33.9024391, -108.7804871, -41.7073174, -1.7182727
-1.0415039, 0.2583008, -0.5224609, -34.5731697, -107.3780518, -40.8536606, -1.739086
-1.0317383, 0.2470703, -0.5073242, -34.6951218, -106.4634171, -40.6707344, -1.6840314
-1.0336914, 0.2485352, -0.5083008, -34.9390259, -104.5731735, -40.1219521, -1.6069886
-1.0234375, 0.2358398, -0.5366211, -35.2439041, -103.5975647, -39.6951218, -1.5081254
-1.0185547, 0.2246094, -0.5415039, -36.2195129, -101.7073212, -38.5975609, -1.4007019
-1.0068359, 0.2021484, -0.5234375, -36.5853653, -101.3414688, -37.3170738, -1.2880751
-1.0004883, 0.1899414, -0.5058594, -36.2195129, -100.9756088, -36.8902435, -1.2296635
-0.9941406, 0.1821289, -0.4692383, -34.1463432, -99.0243912, -35.9756088, -1.1371786
-0.9941406, 0.1845703, -0.4570312, -32.9878044, -96.8902435, -35.3048782, -1.0394903
-0.987793, 0.2080078, -0.4516602, -30.7317085, -93.4146347, -34.0853653, -0.9495232
-0.9882812, 0.2358398, -0.4570312, -30.3048782, -92.0121994, -33.2317085, -0.8246433
-0.987793, 0.2539062, -0.4584961, -30.5487804, -89.6341476, -32.1951218, -0.6463874
-0.9863281, 0.2792969, -0.4555664, -31.0975609, -88.5975647, -31.9512196, -0.5428244
-0.9853516, 0.2880859, -0.456543, -33.841465, -87.3780518, -31.341465, -0.4835737
-0.9770508, 0.2895508, -0.4487305, -37.0731697, -84.9390259, -30.9756107, -0.3419089
-0.9799805, 0.2871094, -0.4443359, -38.6585388, -83.5365906, -30.4878063, -0.1858091
-0.9814453, 0.2856445, -0.4306641, -40.3658562, -80.8536606, -29.6951218, 0.0031891
-0.9892578, 0.2827148, -0.4199219, -40.6097565, -79.3902435, -29.0853672, 0.1166552
-0.9902344, 0.2763672, -0.4130859, -40.2439041, -77.0121994, -28.2317085, 0.2150149
-0.9916992, 0.2749023, -0.4174805, -40.1829262, -75.6707306, -28.2317085, 0.353994
-0.9892578, 0.2749023, -0.4262695, -40, -73.0487823, -28.0487804, 0.5151293
-0.9951172, 0.2744141, -0.4458008, -40.6097565, -71.7073212, -27.4390259, 0.7571679
-0.9990234, 0.2753906, -0.4550781, -41.6463432, -69.5121994, -27.0731716, 0.9001755
-0.9985352, 0.2617188, -0.4545898, -42.6829262, -68.1097565, -26.7073174, 1.0445258
-1.0009766, 0.2553711, -0.453125, -43.5975609, -66.3414612, -25.6097565, 1.1940795
-1.0004883, 0.2329102, -0.4443359, -43.7804871, -64.8780518, -25.060976, 1.299321
-0.9956055, 0.222168, -0.4355469, -43.4146347, -63.7804909, -24.6341476, 1.3929808
-0.9926758, 0.215332, -0.421875, -41.8292694, -61.6463432, -23.4756107, 1.5265888
-0.9931641, 0.2143555, -0.4179688, -40.6097565, -60.4268303, -22.9878063, 1.5727474
-0.9970703, 0.2124023, -0.4125977, -38.7804871, -57.5609779, -21.0975609, 1.5645228
-0.9960938, 0.2148438, -0.4086914, -38.1097565, -56.2804909, -20.6097565, 1.6192416
-0.996582, 0.2163086, -0.4150391, -36.9512215, -53.7804909, -19.4512196, 1.6111849
-1.0048828, 0.2241211, -0.4277344, -36.8902435, -52.7439041, -19.0243912, 1.5964141
-1.0078125, 0.2260742, -0.4375, -36.7682953, -50.1829262, -18.0487804, 1.5789578
-1.0214844, 0.234375, -0.4521484, -37.0121956, -49.2682953, -17.1951218, 1.5907073
-1.0283203, 0.2407227, -0.4628906, -37.0121956, -48.3536606, -15.6707325, 1.5071183
-1.0322266, 0.2387695, -0.4833984, -36.9512215, -47.3780518, -14.2073174, 1.4738842
-1.0341797, 0.2348633, -0.4951172, -37.1341476, -46.9512215, -13.6585369, 1.4695201
-1.0493164, 0.2241211, -0.5151367, -36.341465, -46.8292694, -12.6829271, 1.4336004
-1.0600586, 0.2197266, -0.519043, -35.5487823, -47.1951218, -12.0731707, 1.3840848
-1.078125, 0.2211914, -0.5, -33.5365868, -47.5609779, -10.1829271, 1.3936522
-1.0834961, 0.2304688, -0.4829102, -32.1951218, -47.6219521, -9.5121956, 1.3580682
-1.0805664, 0.2329102, -0.4736328, -30, -46.8902435, -8.719512, 1.2607156
-1.0776367, 0.2475586, -0.4550781, -29.2682934, -46.0975609, -8.5975609, 1.2298314
-1.0708008, 0.2504883, -0.4453125, -28.7195129, -43.7195129, -8.719512, 1.2197604
-1.0600586, 0.2641602, -0.4135742, -28.3536587, -42.0731735, -8.6585369, 1.2432593
-1.0581055, 0.2685547, -0.3984375, -27.6219521, -38.5365868, -8.0487804, 1.2632334
-1.0439453, 0.2753906, -0.3808594, -26.280489, -35, -6.4024391, 1.2852216
-1.0371094, 0.2792969, -0.3759766, -26.0975609, -32.9268303, -5.9756098, 1.3218128
-1.0283203, 0.2832031, -0.3881836, -25.7317085, -28.5365868, -5.2439027, 1.3520256
-1.0292969, 0.2875977, -0.4008789, -25.7926826, -26.280489, -4.9390244, 1.3808957
-1.0429688, 0.2910156, -0.4233398, -25.4878063, -22.9878063, -4.2682929, 1.3114061
-1.059082, 0.2944336, -0.4399414, -25.7317085, -22.0731716, -3.8414636, 1.310399
-1.0644531, 0.2919922, -0.4418945, -25.3658543, -19.8780499, -2.804878, 1.3550469
-1.0776367, 0.2724609, -0.4614258, -24.8780499, -18.9634151, -2.2560976, 1.3761959
-1.0810547, 0.2607422, -0.4707031, -24.7560978, -16.0975609, -1.097561, 1.3835813
-1.0898438, 0.237793, -0.4897461, -23.9634151, -14.7560978, -0.3658537, 1.4282292
-1.0986328, 0.2246094, -0.4882812, -22.3170738, -12.7439032, 1.4634147, 1.3916381
-1.0991211, 0.2075195, -0.4804688, -20.3658543, -11.6463413, 3.2926829, 1.310399
-1.0917969, 0.2006836, -0.4711914, -19.0853672, -10.8536587, 4.3292685, 1.3050278
-1.0712891, 0.1884766, -0.449707, -17.0731716, -8.2926826, 5.609756, 1.2996567
-1.0595703, 0.1899414, -0.4453125, -15.9146347, -6.7682929, 6.2195125, 1.3077134
-1.0463867, 0.2050781, -0.440918, -14.1463413, -3.5365853, 7.3170733, 1.3157702
-1.0385742, 0.2250977, -0.4477539, -13.2926836, -2.195122, 8.5975609, 1.3056992
-1.0317383, 0.2382812, -0.4536133, -10.3048782, 1.097561, 10.9146347, 1.1972686
-1.0302734, 0.2529297, -0.4697266, -8.9024391, 2.2560976, 12.1341467, 1.141207
-1.0307617, 0.2548828, -0.484375, -6.7682929, 4.0243902, 14.5731707, 1.0982376
-1.0415039, 0.2519531, -0.5117188, -6.0975609, 4.2682929, 15.5487804, 1.0216983
-1.0498047, 0.2495117, -0.5200195, -6.280488, 4.2682929, 18.1707325, 0.9001755
-1.0649414, 0.2382812, -0.5200195, -7.1951222, 4.2073174, 20.9756107, 0.8155795
-1.0712891, 0.2348633, -0.5073242, -7.5, 4.2073174, 22.2560978, 0.6900282
-1.0698242, 0.2329102, -0.4824219, -7.4390244, 5.7317076, 23.780489, 0.5186542
-1.0678711, 0.2397461, -0.4672852, -6.6463418, 6.8292685, 24.2073174, 0.4301976
-1.0654297, 0.2597656, -0.453125, -4.8780489, 9.1463413, 24.8780499, 0.3419089
-1.0634766, 0.2792969, -0.4467773, -4.3292685, 10.4268293, 25.3658543, 0.2401923
-1.0625, 0.2856445, -0.4482422, -3.4756098, 12.6219511, 27.0121956, 0.1032273
-1.0683594, 0.2895508, -0.4394531, -3.3536587, 13.780488, 28.1707325, -0.0216526
-1.0629883, 0.2871094, -0.4301758, -4.390244, 15.7926836, 30.3658543, -0.1062486
-1.0498047, 0.2875977, -0.4038086, -4.9390244, 17.0731716, 31.4634151, -0.1629816
-1.046875, 0.277832, -0.3950195, -5.5487804, 21.7073174, 32.0121956, -0.2271
-1.0522461, 0.2680664, -0.3813477, -4.5121951, 27.3170738, 32.6829262, -0.3857176
-1.0576172, 0.269043, -0.3789062, -3.5975611, 29.6341476, 33.2926826, -0.4750134
-1.0737305, 0.2822266, -0.4023438, -1.097561, 35.2439041, 34.8170738, -0.5439994
-1.0751953, 0.2900391, -0.4223633, -0.2439024, 37.8658562, 35.6707344, -0.6309453
-1.0805664, 0.3134766, -0.449707, 0.6707317, 41.8902435, 37.1951218, -0.6997635
-1.0996094, 0.3354492, -0.4609375, 0.7926829, 43.1707344, 38.4146347, -0.7252766
-1.1005859, 0.3461914, -0.4580078, -0.0609756, 45.7926826, 40.2439041, -0.824979
-1.0913086, 0.3686523, -0.4458008, -0.8536586, 47.3170738, 40.5487823, -0.9488518
-1.0820312, 0.3740234, -0.4448242, -2.804878, 51.7682953, 40.6097565, -0.9663081
-1.0595703, 0.3764648, -0.4624023, -4.5731707, 54.4512215, 40.2439041, -0.9522087
-1.0561523, 0.3735352, -0.4775391, -7.3780489, 60.6097565, 38.5975609, -0.9313954
-1.0664062, 0.3671875, -0.512207, -9.2682924, 65.3658524, 38.9634171, -0.8958114
-1.0727539, 0.3686523, -0.5288086, -9.5731707, 67.3780518, 39.5731735, -0.8441138
-1.0913086, 0.3608398, -0.5537109, -9.9390249, 69.0853653, 42.3780479, -0.9025254
-1.0932617, 0.3554688, -0.5600586, -9.6341467, 69.5731735, 43.6585388, -0.9134356
-1.090332, 0.3305664, -0.5473633, -9.1463413, 70.2439041, 45.0609779, -0.8676127
-1.0952148, 0.3066406, -0.5258789, -8.3536587, 70.9146347, 45.2439041, -0.838407
-1.0996094, 0.300293, -0.527832, -6.890244, 74.5121994, 45.3658562, -0.8142367
-1.1225586, 0.2973633, -0.5561523, -5.609756, 77.4390259, 45.9146347, -0.7360189
-1.1381836, 0.2963867, -0.5698242, -3.8414636, 82.3170776, 48.5365868, -0.7494469
-1.1621094, 0.3041992, -0.5878906, -3.1097562, 83.2926865, 50.5487823, -0.8233005
-1.1699219, 0.3012695, -0.581543, -2.0121951, 83.7804871, 54.2073174, -0.8122225
-1.1767578, 0.3017578, -0.5605469, 0.3048781, 84.6951218, 56.4634171, -0.8078584
-1.1777344, 0.2993164, -0.550293, 1.3414634, 85.5487823, 56.8292694, -0.7890593
-1.1835938, 0.3076172, -0.5522461, 3.1707318, 89.7560959, 57.5609779, -0.7967803
-1.1904297, 0.3129883, -0.5605469, 3.9024391, 92.2561035, 57.68293, -0.8266575
-1.2158203, 0.328125, -0.565918, 4.5121951, 96.9512253, 59.4512215, -0.8269932
-1.2358398, 0.3579102, -0.5693359, 5.1219511, 98.7195129, 60.9146347, -0.8008087
-1.2397461, 0.3681641, -0.5625, 5.609756, 101.0365906, 62.8048782, -0.7924163
-1.2280273, 0.3901367, -0.5292969, 5.8536587, 101.9512253, 63.2317085, -0.8736553
-1.2148438, 0.3920898, -0.5249023, 6.0365853, 105.9756088, 62.6219521, -0.9206531
-1.1948242, 0.3989258, -0.559082, 5.609756, 109.5121994, 61.5243912, -0.9733577
-1.1992188, 0.3994141, -0.5913086, 3.2926829, 117.86586, 60.7926826, -1.0576181
-1.2246094, 0.3930664, -0.6445312, -0.6097561, 123.3536606, 62.1341476, -1.1059586
-1.2358398, 0.3852539, -0.6665039, -1.7073171, 124.0243912, 63.4756126, -1.0478828
-1.2631836, 0.3662109, -0.6855469, -2.5609756, 124.2073212, 66.2195129, -1.0801099
-1.2797852, 0.3574219, -0.6811523, -1.4634147, 123.7804871, 67.7439041, -1.1851835
-1.3046875, 0.3461914, -0.6606445, 2.3170731, 123.1707382, 70.2439041, -1.2482948
-1.3071289, 0.3369141, -0.6318359, 4.2073174, 122.9878082, 71.2195129, -1.2973068
-1.2998047, 0.3369141, -0.625, 6.890244, 123.7804871, 71.3414688, -1.3443046
-1.2768555, 0.3408203, -0.6230469, 7.2560978, 125.4878082, 70.7926865, -1.3568933
-1.2753906, 0.347168, -0.625, 7.8048782, 131.4634247, 70.5487823, -1.3402762
-1.2797852, 0.3818359, -0.6445312, 7.9268293, 134.6951294, 71.3414688, -1.436286
-1.2832031, 0.3999023, -0.6538086, 8.2317076, 139.6951294, 74.3292694, -1.4577707
-1.2729492, 0.4282227, -0.668457, 8.2317076, 140.7926788, 77.0731735, -1.4416571
-1.2607422, 0.4399414, -0.6850586, 7.9878049, 141.4024353, 78.0487823, -1.4584421
-1.2509766, 0.4301758, -0.7128906, 6.3414636, 144.146347, 78.0487823, -1.4545815
-1.2602539, 0.4213867, -0.7143555, 5.1829271, 145.2439117, 77.5609741, -1.4043946
-1.2900391, 0.3969727, -0.7167969, 4.0243902, 147.0731812, 77.1951218, -1.4225223
-1.3076172, 0.3637695, -0.7119141, 3.5365853, 148.1707306, 77.6219559, -1.4859693
-1.3173828, 0.3476562, -0.7041016, 3.7195122, 150.6097565, 78.7195129, -1.4675059
-1.331543, 0.3261719, -0.6821289, 4.6951222, 152.0731812, 79.5121994, -1.4302434
-1.331543, 0.3227539, -0.6748047, 7.0731707, 154.6341553, 81.8292694, -1.3369192
-1.3203125, 0.3344727, -0.6962891, 8.2317076, 156.9512177, 83.0487823, -1.257023
-1.3139648, 0.3466797, -0.7182617, 10.6707315, 161.9512177, 86.5243912, -1.2106966
-1.3232422, 0.3803711, -0.7451172, 12.5, 166.0365906, 90.9756088, -1.1324788
-1.3256836, 0.3969727, -0.7426758, 13.1707315, 166.1585388, 92.9878082, -1.0381476
-1.3144531, 0.4208984, -0.7265625, 13.9024391, 164.8780518, 95.3048782, -0.9287098
-1.2973633, 0.4223633, -0.730957, 13.2317076, 164.8780518, 94.9390259, -0.8874189
-1.2617188, 0.4111328, -0.7700195, 11.0975609, 168.7804871, 93.1707306, -0.7937591
-1.2915039, 0.3984375, -0.809082, 9.3902445, 172.8048859, 92.2561035, -0.6797894
-1.3173828, 0.3959961, -0.8178711, 6.2195125, 178.2926941, 93.7195129, -0.5920043
-1.3657227, 0.3930664, -0.8051758, 5.7317076, 178.7804871, 95.9756088, -0.50103
-1.3691406, 0.3920898, -0.7910156, 7.9878049, 176.7073212, 100.7926865, -0.3831998
-1.3413086, 0.3920898, -0.7783203, 9.4512196, 175.4878082, 102.1951218, -0.3351949
-1.328125, 0.3925781, -0.7626953, 12.2560978, 176.1585388, 102.6219559, -0.315053
-1.300293, 0.3964844, -0.7324219, 14.0243902, 178.9634247, 100.7317123, -0.2170291
-1.2851562, 0.4047852, -0.7236328, 14.2682934, 181.0365906, 99.9390259, -0.1243763
-1.2573242, 0.4228516, -0.7363281, 13.9024391, 187.5609741, 98.9634171, -0.0337377
-1.2431641, 0.4375, -0.7548828, 13.2926836, 191.5243988, 98.9634171, 0.0481727
-1.2348633, 0.4555664, -0.809082, 10.1829271, 198.1707306, 101.646347, 0.111284
-1.2402344, 0.4614258, -0.8457031, 8.2926826, 200.2439117, 103.2926865, 0.1064164
-1.2416992, 0.4609375, -0.8540039, 4.8780489, 200.7926941, 106.1585388, 0.1294118
-1.2504883, 0.4536133, -0.8510742, 3.9024391, 200.1219635, 107.1951218, 0.1710384
-1.2529297, 0.4433594, -0.8427734, 3.3536587, 199.6341553, 108.3536606, 0.1690242
-1.2348633, 0.4365234, -0.8041992, 5.4878049, 200.1829376, 107.68293, 0.1693599
-1.222168, 0.4355469, -0.8051758, 7.1951222, 201.2804871, 106.7073212, 0.2663767
-1.2084961, 0.4389648, -0.8564453, 9.2073174, 206.8292694, 104.2073212, 0.2880293
-1.2119141, 0.4379883, -0.890625, 8.9634151, 210.1219635, 103.9024429, 0.2465705
-1.2451172, 0.4482422, -0.9047852, 7.4390244, 213.2317047, 105.9756088, 0.2366674
-1.265625, 0.4614258, -0.8637695, 7.9878049, 211.8292694, 107.8048782, 0.2133364
-1.2407227, 0.4731445, -0.8447266, 9.8780489, 206.5853729, 111.0365906, 0.325124
-1.1586914, 0.46875, -0.8095703, 10.9146347, 205.4878082, 111.0365906, 0.3200885
-1.121582, 0.4741211, -0.8051758, 11.5853662, 208.9024506, 106.7682953, 0.3315023
-1.0981445, 0.4667969, -0.8208008, 10.9756098, 213.2317047, 104.6341476, 0.3751431
-1.0986328, 0.4677734, -0.8491211, 8.2926826, 223.5365906, 102.1951218, 0.4335546
-1.1235352, 0.4604492, -0.9194336, 4.6951222, 231.8292694, 104.146347, 0.5094224
-1.1479492, 0.4560547, -0.9477539, 3.4756098, 233.6585388, 106.3414688, 0.4892805
-1.1845703, 0.4501953, -0.9667969, 2.5, 232.012207, 111.646347, 0.5000229
-1.1967773, 0.449707, -0.9575195, 3.7804878, 229.6951294, 113.8414688, 0.5461814
-1.1889648, 0.4487305, -0.9082031, 7.5609756, 223.9634247, 115.7317123, 0.5839475
-1.144043, 0.4467773, -0.8579102, 10, 222.2561035, 114.6341476, 0.6604868
-1.1201172, 0.4506836, -0.8525391, 12.8658543, 222.6829376, 109.8780518, 0.7961089
-1.0805664, 0.4643555, -0.8920898, 12.7439032, 226.2195129, 106.9512253, 0.8713054
-1.0751953, 0.4746094, -0.9291992, 8.5975609, 237.3780518, 104.2682953, 0.9152819
-1.0913086, 0.4975586, -0.987793, 5, 242.1341553, 104.7561035, 1.0639963
-1.0996094, 0.5004883, -1.0019531, -0.3048781, 245.36586, 108.3536606, 1.2133822
-1.0771484, 0.5009766, -0.9863281, -2.195122, 240.9146423, 111.8292694, 1.3369192
-1.0546875, 0.4946289, -0.965332, -1.8902439, 237.6219635, 111.8902435, 1.4695201
-1.0112305, 0.484375, -0.9243164, 0.1829268, 234.6951294, 109.4512253, 1.6190738
-0.9956055, 0.4765625, -0.9204102, 1.097561, 236.3414764, 107.4390259, 1.6551614
-0.9960938, 0.4755859, -0.9389648, 1.0365853, 242.3170776, 104.6341476, 1.7756771
-1.0053711, 0.4731445, -1.0043945, -0.4878049, 245.4268341, 104.5731735, 1.9368124
-1.0175781, 0.4677734, -1.0341797, -5.4268293, 249.5731812, 106.0365906, 2.0888838
-1.0527344, 0.4555664, -1.0297852, -7.9268293, 249.3902435, 107.5, 2.2107424
-1.0576172, 0.449707, -1.0019531, -9.1463413, 245.0609741, 110.4878082, 2.3554284
-1.0175781, 0.4296875, -0.9604492, -7.7439027, 241.7682953, 110.9756088, 2.3987335
-0.9902344, 0.425293, -0.9394531, -4.0853658, 239.146347, 108.5975647, 2.3866484
-0.9599609, 0.4277344, -0.9082031, -0.6097561, 242.5, 104.8170776, 2.4433814
-0.9428711, 0.4345703, -0.9052734, 0.3658537, 244.9390259, 103.0487823, 2.4420386
-0.9091797, 0.4404297, -0.9550781, -0.7926829, 250.2439117, 101.1585388, 2.4094759
-0.902832, 0.4453125, -0.9951172, -2.7439024, 252.7439117, 101.2195129, 2.3510643
-0.9023438, 0.4472656, -1.0668945, -8.2926826, 256.2804871, 103.5975647, 2.211078
-0.9267578, 0.4487305, -1.0571289, -10.4268293, 256.1585388, 105.8536606, 2.1130541
-0.9321289, 0.4467773, -1.0351562, -9.7560978, 251.5853729, 109.6341476, 2.024094
-0.9003906, 0.4433594, -1.0039062, -7.9268293, 248.5365906, 110.5487823, 1.9099565
-0.8793945, 0.4438477, -1.012207, -3.0487804, 245.2439117, 108.5365906, 1.6487831
-0.8671875, 0.4536133, -1.0263672, -2.1341465, 246.3414764, 107.0121994, 1.4198367
-0.8735352, 0.4482422, -1.0161133, -3.3536587, 248.4756165, 104.2682953, 1.2164034
-0.8520508, 0.4145508, -0.9619141, -6.2195125, 247.012207, 102.0121994, 0.9528801
-0.824707, 0.3896484, -0.9423828, -6.7682929, 245.73172, 100.3048782, 0.7202411
-0.7636719, 0.3510742, -0.940918, -8.5365858, 249.2073212, 97.8048782, 0.5436637
-0.7583008, 0.3486328, -0.9648438, -8.6585369, 253.4146423, 98.0487823, 0.2955825
-0.7807617, 0.3618164, -1.0097656, -8.1097565, 259.6951294, 102.7439041, 0.0135958
-0.7963867, 0.3891602, -0.9838867, -7.1951222, 259.4512329, 106.4024429, -0.139147
-0.7822266, 0.3974609, -0.9487305, -2.9878049, 252.012207, 111.0975647, -0.2851759
-0.7050781, 0.4052734, -0.8847656, -0.3048781, 248.4146423, 110.9756088, -0.4563821
-0.6655273, 0.4013672, -0.8745117, 2.3780489, 247.9878082, 105.7926865, -0.5641413
-0.6308594, 0.3901367, -0.8925781, 2.2560976, 251.2804871, 101.9512253, -0.6581369
-0.6352539, 0.3891602, -0.9082031, -2.4390244, 260.9756165, 96.5243912, -0.8407568
-0.6665039, 0.3852539, -0.9467773, -8.1097565, 266.0365906, 97.4390259, -0.9636225
-0.675293, 0.3911133, -0.9594727, -10.2439022, 266.1585388, 100, -1.0495613
-0.6650391, 0.3984375, -0.9555664, -11.4634151, 262.9268494, 105.4268341, -1.1284504
-0.6489258, 0.4038086, -0.9394531, -10.4268293, 261.2804871, 106.8292694, -1.1912261
-0.6064453, 0.4101562, -0.8950195, -8.2317076, 258.8414612, 105.9146347, -1.1798123
-0.5678711, 0.4116211, -0.8598633, -7.2560978, 258.9634094, 103.6585388, -1.2316777
-0.5512695, 0.40625, -0.8574219, -8.2317076, 260.9146423, 97.6219559, -1.2872358
-0.5307617, 0.3847656, -0.8945312, -10.5487804, 263.5365906, 95.0609741, -1.2489662
-0.5424805, 0.3833008, -0.9145508, -16.1585369, 269.8170776, 92.7439041, -1.2315099
-0.5649414, 0.3637695, -0.9291992, -18.1707325, 272.1951294, 93.7195129, -1.1683986
-0.5654297, 0.3496094, -0.918457, -20.1219521, 271.9512329, 98.3536606, -1.1227436
-0.5498047, 0.3300781, -0.8774414, -17.9878044, 267.3780518, 100.9756088, -1.0609751
-0.5268555, 0.3188477, -0.8681641, -15.9756098, 265.9756165, 101.5853653, -0.9955138
-0.4990234, 0.3095703, -0.8691406, -13.1097565, 267.012207, 100.18293, -0.8964828
-0.5014648, 0.3164062, -0.8759766, -12.1341467, 267.8658447, 99.3902435, -0.7387045
-0.53125, 0.328125, -0.8984375, -11.280488, 268.4146423, 100.1219559, -0.6816358
-0.5307617, 0.3452148, -0.8989258, -11.8902445, 267.8658447, 101.4634171, -0.5708553
-0.5175781, 0.3427734, -0.8891602, -12.6219511, 264.3292847, 103.2317123, -0.4540322
-0.465332, 0.3237305, -0.8408203, -12.8658543, 262.012207, 102.8658524, -0.3415732
-0.4448242, 0.3125, -0.8183594, -12.3780489, 259.0243835, 100.0609818, -0.2153506
-0.4052734, 0.3012695, -0.777832, -11.6463413, 258.9024353, 98.4756088, -0.0250095
-0.3935547, 0.3056641, -0.7597656, -9.3902445, 260.0609741, 96.5243912, 0.0763714
-0.362793, 0.3129883, -0.7548828, -8.4146347, 260.1829224, 95.9756088, 0.1273976
-0.3486328, 0.3188477, -0.7753906, -9.0243902, 260.2438965, 96.3414688, 0.2576486
-0.3291016, 0.3286133, -0.8266602, -12.8048782, 259.8170776, 98.5975647, 0.3687648
-0.3266602, 0.3305664, -0.8286133, -15.060976, 259.1463623, 99.8780518, 0.4818952
-0.3149414, 0.3081055, -0.7783203, -17.9268303, 254.6341553, 101.7073212, 0.6336309
-0.2905273, 0.265625, -0.7011719, -18.1097565, 250.9146423, 101.4024429, 0.7865415
-0.284668, 0.2451172, -0.6640625, -15.3048782, 246.5853729, 98.3536606, 0.8202792
-0.28125, 0.2358398, -0.6313477, -13.9634151, 246.646347, 97.0121994, 0.8723125
-0.2841797, 0.2373047, -0.6435547, -11.7682934, 249.8780518, 95.0609741, 0.9481804
-0.2929688, 0.2519531, -0.6918945, -11.8292685, 251.5853729, 95.6097565, 1.0216983
-0.2929688, 0.2587891, -0.7124023, -13.4146347, 252.0731812, 97.6219559, 1.0871595
-0.2905273, 0.2724609, -0.7163086, -14.6341467, 248.4756165, 100.4878082, 1.2268101
-0.2797852, 0.2670898, -0.7060547, -15.1219511, 246.0975647, 101.0365906, 1.3006638
-0.2485352, 0.2392578, -0.699707, -14.1463413, 241.7073212, 100.2439041, 1.2835431
-0.2402344, 0.2163086, -0.7006836, -13.780488, 240.1829376, 98.5975647, 1.3506828
-0.253418, 0.1782227, -0.703125, -12.560976, 237.6219635, 96.0365906, 1.4238651
-0.2949219, 0.1552734, -0.6928711, -11.5853662, 235.9146423, 95.7317123, 1.5118181
-0.3061523, 0.1513672, -0.690918, -7.3780489, 232.3170776, 97.6219559, 1.5756008
-0.3144531, 0.1503906, -0.7158203, -4.7560978, 230.4268341, 99.146347, 1.6471046
-0.3154297, 0.1557617, -0.7285156, -0.1219512, 226.3414612, 101.646347, 1.7350576
-0.3295898, 0.1708984, -0.7548828, 1.402439, 223.4756165, 102.3780518, 1.8394598
-0.3339844, 0.1870117, -0.7636719, 1.8902439, 215.9756165, 102.8048782, 1.953933
-0.3442383, 0.222168, -0.7250977, 2.0121951, 208.2926941, 102.4390259, 1.9441978
-0.3378906, 0.2319336, -0.6835938, 2.5609756, 204.6341553, 102.0121994, 2.0059663
-0.2827148, 0.2431641, -0.6083984, 4.0243902, 199.0243988, 97.9878082, 2.1177539
-0.2412109, 0.2329102, -0.5751953, 4.8170733, 197.3780518, 94.4512253, 2.1919432
-0.1748047, 0.2119141, -0.5136719, 4.6951222, 196.4634247, 86.5853653, 2.2580758
-0.1352539, 0.203125, -0.4912109, 4.1463413, 196.7073212, 83.5365906, 2.3940337
-0.1201172, 0.199707, -0.5019531, 3.2926829, 198.2926941, 80.9756088, 2.4769512
-0.0966797, 0.203125, -0.5307617, 2.6219513, 198.2926941, 81.2195129, 2.5323415
-0.0927734, 0.1982422, -0.5356445, 2.0731707, 196.1585388, 83.7804871, 2.6726635
-0.0688477, 0.1870117, -0.5053711, 2.3780489, 193.4146423, 85.0609741, 2.7868009
-0.0585938, 0.1801758, -0.4746094, 3.5975611, 188.6585388, 85.3658524, 2.8881819
-0.0371094, 0.1689453, -0.4101562, 5.7317076, 186.7073212, 82.1951218, 3.0060121
-0.0283203, 0.1640625, -0.3974609, 6.5243902, 186.5243988, 79.7560959, 3.174197
-0.0244141, 0.1450195, -0.3969727, 7.0121951, 187.9878082, 74.6341476, 3.2579538
-0.0214844, 0.1342773, -0.4077148, 7.1951222, 188.3536682, 72.9268341, 3.3655451
-0.03125, 0.1137695, -0.4262695, 8.2317076, 187.6219482, 71.1585388, 3.5031815
-0.0356445, 0.1020508, -0.4257812, 9.5121956, 186.2195129, 71.1585388, 3.6428321
-0.0380859, 0.0991211, -0.4145508, 13.1097565, 182.5609741, 71.6463394, 3.7546197
-0.0205078, 0.1054688, -0.4130859, 15, 181.0365906, 72.0121994, 3.9093767
-0.0053711, 0.109375, -0.4389648, 17.3170738, 178.9634247, 71.4024429, 4.0134432
0.0024414, 0.109375, -0.5063477, 17.560976, 178.2926941, 70.4878082, 4.0695048
-0.0058594, 0.1074219, -0.5288086, 16.8292694, 175.1829376, 69.0853653, 4.1927062
-0.0341797, 0.1162109, -0.5141602, 17.8658543, 168.3536682, 69.3292694, 4.2920729
-0.0327148, 0.1269531, -0.4853516, 19.7560978, 164.2073212, 69.6951218, 4.3806973
-0.0117188, 0.1303711, -0.4536133, 23.1097565, 157.6829376, 68.7804871, 4.4243381
0.0131836, 0.1210938, -0.4663086, 23.5975609, 155.4268341, 67.2560959, 4.4659648
0.0302734, 0.0966797, -0.4838867, 22.6829281, 152.4390259, 62.5609779, 4.5438468
0.0058594, 0.0908203, -0.4448242, 22.8048782, 150.0609741, 60.7926826, 4.6271
-0.0039062, 0.0961914, -0.4189453, 24.8170738, 144.2073212, 60, 4.6868544
0.0117188, 0.1040039, -0.3881836, 26.5853672, 140.9146423, 60.1219521, 4.6096437
0.0288086, 0.1108398, -0.3984375, 27.7439022, 136.646347, 59.6951218, 4.5794308
0.0649414, 0.1088867, -0.4375, 26.8292694, 134.9390259, 58.7804909, 4.5955444
0.0771484, 0.1079102, -0.4414062, 23.5365868, 130.4268341, 57.6219521, 4.5935302
0.1206055, 0.0986328, -0.4116211, 21.5243912, 124.7561035, 56.0975609, 4.5942016
0.1435547, 0.0966797, -0.3691406, 22.0121956, 121.2804871, 54.8170738, 4.5653315
0.1948242, 0.0913086, -0.3364258, 25.1829281, 113.5975647, 52.0121956, 4.4377661
0.2182617, 0.0913086, -0.3603516, 26.1585369, 111.2804871, 51.0975609, 4.3014725
0.2246094, 0.0952148, -0.4047852, 26.8902454, 108.1097565, 50.9146347, 4.2370184
0.2016602, 0.1171875, -0.3803711, 26.6463413, 105.9146347, 51.5853653, 4.1544366
0.1962891, 0.1362305, -0.3442383, 26.5243912, 98.0487823, 53.4146347, 4.0668193
0.2470703, 0.1552734, -0.2753906, 26.7682934, 94.146347, 53.4756126, 4.0027008
0.2773438, 0.1508789, -0.253418, 26.2195129, 89.9390259, 50.4268303, 3.9503319
0.3305664, 0.1318359, -0.2216797, 25.6707325, 89.3292694, 47.6829262, 3.7804685
0.3491211, 0.1210938, -0.2036133, 25.6097565, 87.9268341, 41.7073174, 3.6455177
0.3730469, 0.1123047, -0.1796875, 26.0365868, 85.7926865, 38.1707344, 3.5458152
0.3867188, 0.1123047, -0.168457, 26.1585369, 84.4512253, 37.5, 3.4205997
0.4106445, 0.1210938, -0.1796875, 25.6707325, 82.6219559, 38.2317085, 3.2681926
0.4223633, 0.1235352, -0.2006836, 24.6341476, 82.0121994, 38.5975609, 3.1916533
0.4433594, 0.1259766, -0.2426758, 22.2560978, 79.6341476, 39.4512215, 3.0701305
0.4379883, 0.1264648, -0.2651367, 21.2195129, 77.8048782, 39.1463432, 2.9539788
0.4350586, 0.1279297, -0.2641602, 20.060976, 72.5, 38.5975609, 2.9613642
0.4296875, 0.1318359, -0.2456055, 19.4512196, 69.6341476, 37.8048782, 2.921416
0.4311523, 0.1264648, -0.2451172, 17.5, 65.1219559, 34.9390259, 2.8666972
0.4501953, 0.0942383, -0.2348633, 16.3414631, 61.4634171, 31.0365868, 2.8015717
0.4526367, 0.0830078, -0.222168, 16.3414631, 58.9634171, 29.2682934, 2.6934768
0.4501953, 0.059082, -0.2050781, 17.7439022, 54.6951218, 26.280489, 2.7441672
0.453125, 0.0581055, -0.2119141, 18.9024391, 52.8658562, 25.8536587, 2.846891
0.4614258, 0.0712891, -0.25, 21.1585369, 49.6951218, 26.6463413, 2.7525597
0.4736328, 0.0966797, -0.2714844, 21.7682934, 47.7439041, 27.6219521, 2.5232776
0.4770508, 0.112793, -0.2714844, 22.9878063, 41.0975609, 28.9634151, 2.4158541
0.5107422, 0.1391602, -0.2773438, 23.1707325, 37.6219521, 28.780489, 2.3913481
0.5288086, 0.1411133, -0.2700195, 22.0731716, 31.4024391, 27.4390259, 2.3624781
0.5576172, 0.1337891, -0.2509766, 21.1585369, 28.6585369, 25.8536587, 2.2674754
0.565918, 0.1220703, -0.2436523, 19.2073174, 22.6219521, 22.2560978, 2.1550164
0.5869141, 0.0917969, -0.2207031, 18.2926826, 17.9878044, 19.1463413, 2.0093233
0.6040039, 0.0722656, -0.2016602, 18.5365849, 15.5487804, 17.560976, 1.8683299
0.637207, 0.0449219, -0.1552734, 20.3658543, 10.7317076, 15.1829271, 1.8082399
0.6479492, 0.0405273, -0.1381836, 21.7682934, 8.2317076, 13.9024391, 1.7152514
0.6591797, 0.0292969, -0.1201172, 24.2682934, 3.9634147, 12.8658543, 1.5873503
0.6503906, 0.0327148, -0.1494141, 25.2439022, 2.3780489, 12.4390249, 1.4483711
0.6430664, 0.0395508, -0.1743164, 26.9512196, 0.4268293, 13.1707315, 1.3530327
0.6171875, 0.0585938, -0.2016602, 27.6219521, -1.4634147, 13.4756098, 1.1046159
0.6074219, 0.0732422, -0.2094727, 29.9390259, -6.890244, 13.5975609, 0.9042039
0.59375, 0.109375, -0.2080078, 30.7317085, -9.9390249, 13.1707315, 0.7356832
0.590332, 0.1176758, -0.2158203, 32.0121956, -15.6097565, 11.341464, 0.5691768
0.5952148, 0.128418, -0.2353516, 30.3048782, -20.4268303, 6.9512196, 0.421973
0.5830078, 0.1323242, -0.2348633, 28.9024391, -23.2926826, 4.5731707, 0.3419089
0.5644531, 0.1259766, -0.222168, 26.7073174, -28.6585369, 0.9756098, 0.1193408
0.5639648, 0.1240234, -0.2094727, 26.4634151, -31.5243912, 0.3048781, -0.1673457
0.5830078, 0.1279297, -0.1826172, 27.1341476, -37.4390259, -0.8536586, -0.3580224
0.6191406, 0.1333008, -0.1669922, 28.2926826, -40, -1.2804878, -0.5386282
0.6323242, 0.1347656, -0.1640625, 29.5731716, -43.2926826, -2.9878049, -0.6729076
0.6464844, 0.1435547, -0.1621094, 29.3292694, -44.8780479, -4.4512196, -0.8373999
0.6513672, 0.152832, -0.1616211, 26.4024391, -49.1463432, -7.0121951, -1.025391
0.6577148, 0.1538086, -0.1655273, 23.9024391, -50.8536606, -8.1707315, -1.1720912
0.6621094, 0.1459961, -0.1650391, 19.3902435, -54.0853653, -10.3658543, -1.3043565
0.6621094, 0.1337891, -0.1704102, 16.4634151, -57.0731735, -12.3170738, -1.4309148
0.659668, 0.1235352, -0.1801758, 15.8536587, -58.6585388, -13.3536587, -1.6496223
0.6357422, 0.1030273, -0.2114258, 15.9756098, -63.0487823, -14.5731707, -1.8055543
0.6201172, 0.0917969, -0.2314453, 16.5243912, -65.8536606, -14.8170738, -1.911635
0.5795898, 0.0883789, -0.2578125, 17.1341476, -72.1341476, -14.5731707, -2.0187228
0.5556641, 0.0908203, -0.28125, 17.0731716, -75.6707306, -14.3292685, -2.1123827
0.5537109, 0.0917969, -0.2836914, 16.280489, -82.6219559, -14.5731707, -2.1274891
0.5600586, 0.0800781, -0.2788086, 15.4268293, -86.1585388, -15.060976, -2.1734798
0.5625, 0.0688477, -0.2666016, 14.6951227, -92.2561035, -16.8292694, -2.2751965
0.5478516, 0.0620117, -0.2646484, 15.060976, -95.7317123, -17.1951218, -2.3225299
0.5327148, 0.0673828, -0.2724609, 15.9756098, -102.5, -15.1829271, -2.3769131
0.5166016, 0.1044922, -0.3105469, 15.4878054, -110.5487823, -9.4512196, -2.4375067
0.5341797, 0.1274414, -0.3339844, 14.3902445, -114.8780518, -6.890244, -2.4489204
0.5864258, 0.1494141, -0.3359375, 12.560976, -122.1951218, -6.4024391, -2.4354925
0.6049805, 0.1367188, -0.3032227, 12.8658543, -125.7317123, -9.2073174, -2.5387198
0.5854492, 0.1376953, -0.234375, 16.3414631, -135.5487823, -17.2560978, -2.5744717
0.5292969, 0.1738281, -0.2802734, 19.0853672, -137.5, -20.060976, -2.586389
0.5166016, 0.1733398, -0.3320312, 20.8536587, -132.86586, -23.3536587, -2.6256657
0.4990234, 0.1259766, -0.359375, 18.9024391, -130.7317047, -25.1829281, -2.6773632
0.4907227, 0.0800781, -0.3378906, 13.841464, -135.1829224, -31.0975609, -2.6751812
0.4853516, -0.0180664, -0.2524414, 12.560976, -139.2073212, -35.2439041, -2.7381247
0.4775391, -0.0625, -0.2075195, 15.8536587, -144.0243988, -43.9024391, -2.8405127
0.4335938, -0.0981445, -0.1464844, 24.4512196, -143.3536682, -50.0609779, -2.8633402
0.4086914, -0.0942383, -0.140625, 28.9024391, -142.5, -51.2804909, -2.9032883
0.3867188, -0.0405273, -0.1513672, 35.9756088, -142.0121918, -50.4878044, -2.9306477
0.390625, -0.0097656, -0.1674805, 37.6219521, -142.0731812, -49.5731735, -2.9910735
0.4291992, 0.0649414, -0.1855469, 38.841465, -142.9268341, -49.6951218, -3.0788586
0.4765625, 0.1376953, -0.2133789, 37.6829262, -143.4146423, -50.7926826, -3.1439841
0.4902344, 0.1616211, -0.2290039, 34.3292694, -144.0243988, -54.4512215, -3.2269017
0.496582, 0.1791992, -0.2446289, 31.2195129, -144.5121918, -56.4634171, -3.3113298
0.4887695, 0.1743164, -0.2475586, 24.8780499, -146.2804871, -59.7560997, -3.4709545
0.4550781, 0.1455078, -0.2431641, 21.9512196, -147.4390259, -60.5487823, -3.5642786
0.4316406, 0.1206055, -0.2524414, 17.3780499, -149.5121918, -61.1585388, -3.616144
0.3999023, 0.0600586, -0.2875977, 14.6951227, -150.4268341, -62.3170738, -3.6738842
0.3720703, 0.0253906, -0.3027344, 15.060976, -151.2195129, -63.0487823, -3.7695583
0.3071289, -0.0195312, -0.3212891, 18.4756107, -154.2073212, -65.2439041, -3.8163882
0.2700195, -0.0366211, -0.3422852, 21.280489, -156.5243988, -66.8902435, -3.9076982
0.1943359, -0.0385742, -0.4150391, 26.9512196, -161.7682953, -69.0853653, -4.0382849
0.1064453, 0.0004883, -0.5161133, 28.841465, -164.5121918, -69.3902435, -4.0765545
0.0717773, 0.0292969, -0.5698242, 29.8170738, -170.1829376, -67.8048782, -4.1091173
0.0146484, 0.0898438, -0.6582031, 28.4756107, -173.7804871, -66.4634171, -4.1564508
0.0039062, 0.1103516, -0.6733398, 23.9024391, -183.2317047, -63.9634171, -4.1722286
0.0146484, 0.1494141, -0.6396484, 20.9146347, -187.9268341, -63.841465, -4.162829
0.0273438, 0.1655273, -0.6025391, 15.7317076, -196.7073212, -66.8292694, -4.263035
0.0708008, 0.190918, -0.5307617, 10.6707315, -201.4024506, -72.3170776, -4.2950942
0.090332, 0.2041016, -0.5019531, 8.4756098, -202.1951294, -75.1219559, -4.2883803
0.1210938, 0.2333984, -0.4555664, 2.6219513, -202.5, -79.5121994, -4.2865339
0.1391602, 0.246582, -0.4316406, -0.1219512, -202.0731812, -80.6707306, -4.2705882
0.1772461, 0.2749023, -0.3876953, -4.8170733, -201.2195129, -80.9756088, -4.2027771
0.2114258, 0.3046875, -0.3833008, -7.3170733, -200.1829376, -81.2195129, -4.1687037
0.2246094, 0.3115234, -0.4106445, -12.0121956, -197.9878082, -81.7682953, -4.1561151
0.234375, 0.309082, -0.4770508, -14.8780489, -197.6219482, -82.6219559, -4.0557412
0.2231445, 0.2988281, -0.4921875, -19.7560978, -198.5365906, -84.5731735, -3.9807126
0.1953125, 0.2456055, -0.4633789, -21.8292694, -200, -85.7317123, -3.8939345
0.1816406, 0.2094727, -0.4160156, -23.9634151, -203.4146423, -88.5975647, -3.8331731
0.1660156, 0.144043, -0.3393555, -25.060976, -203.2926941, -93.8414688, -3.7514305
0.1557617, 0.1147461, -0.3344727, -26.0365868, -201.7682953, -96.4024429, -3.6179904
0.1083984, 0.0532227, -0.3754883, -28.5975609, -197.0731812, -99.0853653, -3.4805219
0.0693359, 0.0327148, -0.4150391, -29.1463413, -195.1829376, -98.6585388, -3.3469139
0.0043945, 0.0009766, -0.4926758, -27.1951218, -194.5731812, -95.4268341, -3.3192187
-0.0585938, -0.0004883, -0.5395508, -23.9024391, -195.6097565, -92.8658524, -3.2623178
-0.0849609, 0.0073242, -0.559082, -15.9756098, -198.9024506, -88.1097565, -3.1624475
-0.1352539, 0.0390625, -0.6445312, -12.0731707, -201.0365906, -85.9146347, -3.0765087
-0.1538086, 0.0517578, -0.7373047, -10.4268293, -205.2439117, -81.9512177, -2.9930877
-0.2045898, 0.0585938, -0.9360352, -12.1951218, -207.1341553, -80.5487823, -2.8703899
-0.237793, 0.0541992, -0.9916992, -17.6829281, -214.8780518, -76.8902435, -2.7980468
-0.3154297, 0.0664062, -0.9824219, -18.9634151, -228.7804871, -73.4756088, -2.7864652
-0.3344727, 0.0766602, -0.9501953, -17.1341476, -235.9146423, -71.9512177, -2.7094224
-0.3305664, 0.0917969, -0.8891602, -10.8536587, -245.6707306, -72.8658524, -2.6260014
-0.3139648, 0.0927734, -0.8759766, -7.2560978, -247.7439117, -75.6707306, -2.5637293
-0.3076172, 0.0786133, -0.8349609, -1.0365853, -250.1829376, -83.2317123, -2.5252918
-0.3242188, 0.0898438, -0.7670898, 1.402439, -252.4390259, -86.646347, -2.499443
-0.331543, 0.1098633, -0.7460938, 4.0243902, -257.9878235, -89.2682953, -2.5608759
-0.3071289, 0.1396484, -0.7456055, 4.6341462, -258.5365906, -87.8048782, -2.5685969
-0.2856445, 0.1538086, -0.762207, 3.4756098, -255.9756165, -81.2804871, -2.548455
-0.2182617, 0.1621094, -0.7329102, 2.195122, -254.512207, -77.68293, -2.5544976
-0.1743164, 0.1494141, -0.675293, -0.7317073, -254.6951294, -74.0853653, -2.6003204
-0.0766602, 0.1088867, -0.5576172, -3.5365853, -256.0365906, -76.1585388, -2.6441291
-0.0332031, 0.0810547, -0.5439453, -4.8170733, -254.2073212, -78.7804871, -2.7364462
-0.0112305, 0.0249023, -0.5727539, -6.5243902, -246.7073212, -83.4146347, -2.8908675
-0.0351562, 0.0097656, -0.5722656, -5.8536587, -242.7439117, -84.2073212, -2.98822
-0.1210938, 0.0610352, -0.4790039, -0.9146342, -237.4390259, -81.5853653, -3.1332418
-0.1879883, 0.1875, -0.4233398, 2.5609756, -235.5487823, -79.5121994, -3.2591287
-0.2026367, 0.2563477, -0.4545898, 4.9390244, -228.9024506, -74.7560959, -3.4895857
-0.2026367, 0.3535156, -0.6445312, 1.7682927, -224.5731812, -73.4146347, -3.7341421
-0.2109375, 0.3691406, -0.7763672, -11.7073174, -218.23172, -71.1585388, -3.8835279
-0.2539062, 0.3422852, -0.9916992, -19.7560978, -217.5609741, -70.6097565, -4.0030365
-0.3017578, 0.3085938, -1.0395508, -29.8780499, -222.7439117, -68.4756088, -4.102739
-0.421875, 0.2456055, -1.0288086, -28.2317085, -234.2682953, -64.6951218, -4.3410849
-0.4819336, 0.2192383, -1.0151367, -24.3902435, -240.1829376, -62.9268303, -4.5963836
-0.5712891, 0.1806641, -1.0737305, -16.8292694, -246.9512177, -61.6463432, -4.7894102
-0.609375, 0.1542969, -1.1455078, -15, -248.1707306, -62.5, -4.9743801
-0.7138672, 0.0966797, -1.2392578, -13.841464, -250.8536682, -65.6707306, -5.1343404
-0.8261719, 0.0683594, -1.1391602, -13.4756098, -254.2682953, -66.6463394, -5.2434424
-0.8520508, 0.0703125, -1.027832, -9.2073174, -263.9634094, -66.5853653, -5.3528801
-0.8037109, 0.1210938, -0.7958984, -6.2195125, -267.5609741, -66.2195129, -5.4633249
-0.7265625, 0.1630859, -0.7226562, -1.5853659, -264.6341553, -66.7682953, -5.4911879
-0.5229492, 0.2407227, -0.699707, -2.4390244, -257.6219482, -68.2926865, -5.4918593
-0.4301758, 0.2636719, -0.7373047, -11.7073174, -242.3170776, -72.6219559, -5.4673533
-0.2841797, 0.284668, -0.8676758, -23.7195129, -234.2073212, -75, -5.4416724
-0.2460938, 0.2827148, -0.9086914, -28.0487804, -233.9024506, -74.0853653, -5.4334478
-0.2451172, 0.2827148, -0.9008789, -28.4146347, -237.86586, -68.9024429, -5.4925307
-0.2709961, 0.2895508, -0.8618164, -24.7560978, -240.0609741, -65.4268341, -5.4928664
-0.3623047, 0.3339844, -0.7705078, -16.8292694, -241.4024506, -60, -5.4928664
-0.46875, 0.3813477, -0.7480469, -14.6951227, -240.6097565, -59.0243912, -5.4930343
-0.5224609, 0.3920898, -0.7861328, -18.1707325, -236.7682953, -59.8780518, -5.4665141
-0.5991211, 0.3911133, -0.9765625, -23.780489, -234.3902435, -60.7926826, -5.3523766
-0.6352539, 0.3666992, -1.0830078, -37.3780479, -230.6097565, -63.3536606, -5.2837263
