Application:, Trigno Discover (1.6.5)
Date/Time:, 04/02/2025 15:04:23
Collection Length (seconds):, 29.241
wrist (81457), , , , , , bicep (81139)
sensor mode: 609, , , , , , sensor mode: 40
ACC X (G), ACC Y (G), ACC Z (G), GYRO X (deg/s), GYRO Y (deg/s), GYRO Z (deg/s), EMG 1 (mV)
370.3704 Hz, 370.3704 Hz, 370.3704 Hz, 370.3704 Hz, 370.3704 Hz, 370.3704 Hz, 2148.1481 Hz
-0.9536133, -0.1000977, -0.1772461, -7.6829271, 4.0243902, 3.9634147, -0.0307164
-0.9462891, -0.0952148, -0.1845703, -6.5853658, 2.9878049, 4.0243902, -0.0374304
-0.9370117, -0.0791016, -0.1962891, -6.2195125, 2.3170731, 3.9024391, -0.0364233
-0.9379883, -0.0732422, -0.2006836, -5.4878049, 0.3658537, 3.1707318, -0.0045319
-0.9248047, -0.0742188, -0.2133789, -5.4878049, -0.6097561, 2.804878, 0.0387732
-0.925293, -0.0712891, -0.2216797, -6.4024391, -2.7439024, 2.195122, 0.1032273
-0.9291992, -0.0834961, -0.234375, -6.7073174, -5.1219511, 1.5243902, 0.145861
-0.934082, -0.0942383, -0.2387695, -6.7073174, -6.0975609, 1.2195122, 0.1797665
-0.9492188, -0.1103516, -0.2348633, -6.3414636, -8.4756098, 0.7926829, 0.2062867
-0.953125, -0.1132812, -0.2192383, -5.9756098, -9.6341467, 0.6707317, 0.2220645
-0.9506836, -0.1137695, -0.2041016, -5.3658538, -11.280488, 0.7317073, 0.2083009
-0.9394531, -0.0996094, -0.1762695, -4.9390244, -11.8292685, 0.7926829, 0.1978943
-0.9291992, -0.0908203, -0.1689453, -4.6951222, -11.8902445, 1.2195122, 0.1710384
-0.8969727, -0.0615234, -0.1699219, -4.8170733, -12.0121956, 1.402439, 0.1341115
-0.8837891, -0.0517578, -0.1777344, -5.670732, -12.3170738, 1.097561, 0.121355
-0.8725586, -0.0439453, -0.184082, -6.0365853, -13.1097565, 0.6097561, 0.0971847
-0.8725586, -0.050293, -0.1865234, -6.9512196, -14.3292685, -0.7317073, 0.0636149
-0.8808594, -0.0605469, -0.1875, -7.4390244, -15.8536587, -1.7073171, 0.0381018
-0.8925781, -0.065918, -0.1875, -7.7439027, -16.4024391, -2.0731707, 0.0206455
-0.921875, -0.0791016, -0.1914062, -8.1097565, -17.439024, -2.7439024, -0.0256809
-0.9418945, -0.0795898, -0.1879883, -8.1097565, -17.9268303, -2.5609756, -0.0480049
-0.9477539, -0.0820312, -0.184082, -8.2926826, -18.1707325, -2.5609756, -0.079057
-0.953125, -0.0849609, -0.1748047, -8.1707315, -18.2926826, -2.6219513, -0.0997024
-0.9458008, -0.0859375, -0.1674805, -8.3536587, -18.0487804, -2.0731707, -0.1379721
-0.9335938, -0.0844727, -0.15625, -8.6585369, -17.8048782, -2.0121951, -0.1468681
-0.9291992, -0.0795898, -0.1513672, -8.5975609, -17.3170738, -1.5853659, -0.16701
-0.9179688, -0.074707, -0.1679688, -8.6585369, -16.8902435, -1.7682927, -0.2103151
-0.9140625, -0.0678711, -0.175293, -8.6585369, -17.0121956, -1.8292683, -0.2240787
-0.9282227, -0.0639648, -0.1875, -8.9634151, -17.3780499, -2.5, -0.2334783
-0.934082, -0.0625, -0.1923828, -8.9634151, -17.8048782, -3.1097562, -0.2375067
-0.9545898, -0.0629883, -0.184082, -9.2073174, -18.7195129, -3.2926829, -0.2566415
-0.9624023, -0.0717773, -0.1816406, -8.780488, -18.6585369, -3.2926829, -0.2697337
-0.9643555, -0.0786133, -0.1777344, -9.3292685, -18.6585369, -2.9878049, -0.2613413
-0.9628906, -0.0888672, -0.1708984, -9.4512196, -18.5365849, -2.9878049, -0.2615091
-0.965332, -0.097168, -0.1699219, -9.8170738, -18.1097565, -2.3170731, -0.2586557
-0.9682617, -0.0932617, -0.1757812, -9.4512196, -17.8658543, -2.0731707, -0.2845045
-0.9697266, -0.0878906, -0.1772461, -8.6585369, -17.6829281, -1.9512196, -0.2687266
-0.9829102, -0.0717773, -0.1962891, -8.4756098, -17.9268303, -1.9512196, -0.2442206
-0.996582, -0.0649414, -0.2036133, -8.4146347, -17.9268303, -2.195122, -0.2321355
-1.0063477, -0.0537109, -0.2207031, -9.0853662, -18.7195129, -2.5609756, -0.2177005
-1.0117188, -0.0532227, -0.2241211, -9.6341467, -19.0243912, -2.6219513, -0.1858091
-1.0185547, -0.0473633, -0.2177734, -10.8536587, -19.939024, -2.6219513, -0.1680171
-1.0170898, -0.0488281, -0.2099609, -11.1585369, -20.1219521, -2.9268293, -0.1482109
-1.0107422, -0.0576172, -0.2080078, -11.8902445, -20.7926826, -3.1097562, -0.0998703
-1.0083008, -0.0639648, -0.2011719, -11.8292685, -20.7317085, -3.3536587, -0.0639506
-1.0078125, -0.0688477, -0.1914062, -12.560976, -21.0365868, -4.0853658, -0.0263523
-1.0073242, -0.0717773, -0.1772461, -12.560976, -21.2195129, -4.1463413, 0.0045319
-1.0087891, -0.0703125, -0.1748047, -12.9878054, -21.0975609, -4.2073174, 0.0280308
-1.0053711, -0.0644531, -0.1640625, -12.6829271, -20.4878044, -4.4512196, 0.0260166
-1.0058594, -0.0615234, -0.1630859, -12.6829271, -20.4268303, -4.2682929, 0.0330663
-1.0019531, -0.0546875, -0.1533203, -13.1707315, -19.8780499, -4.7560978, 0.04448
-1, -0.0458984, -0.1489258, -13.5975609, -19.3902435, -4.8170733, 0.0555581
-0.9931641, -0.0488281, -0.1479492, -14.5121956, -18.5365849, -5.1219511, 0.0622721
-0.9858398, -0.0595703, -0.1459961, -15.060976, -18.2926826, -5.1219511, 0.0814069
-0.9868164, -0.0693359, -0.1416016, -16.0975609, -17.560976, -5.9756098, 0.0669718
-0.9833984, -0.0908203, -0.1494141, -16.2195129, -17.0121956, -6.1585369, 0.0475013
-0.9863281, -0.1015625, -0.1513672, -15.9756098, -16.280489, -5.670732, 0.0495155
-0.9916992, -0.1079102, -0.1552734, -15.4268293, -15.9756098, -5.4878049, 0.030045
-0.9921875, -0.1054688, -0.1611328, -14.3902445, -15.6097565, -5.2439027, 0.0139315
-0.9975586, -0.0981445, -0.1704102, -13.4756098, -15.4268293, -5.4878049, -0.0182956
-0.9960938, -0.0947266, -0.171875, -13.2926836, -15.6097565, -5.3048782, -0.0350805
-0.9970703, -0.0830078, -0.1806641, -13.1707315, -15.7926836, -4.8780489, -0.0518654
-0.9956055, -0.0786133, -0.1806641, -12.9878054, -15.4878054, -4.6951222, -0.072343
-0.9897461, -0.0810547, -0.1782227, -13.3536587, -15.5487804, -5.0609756, -0.0867781
-0.9873047, -0.0849609, -0.175293, -13.5365858, -16.1585369, -5, -0.1373007
-0.9916992, -0.0849609, -0.1772461, -13.5365858, -16.7073174, -5.3048782, -0.1621424
-0.9975586, -0.0961914, -0.1777344, -13.4756098, -16.4024391, -5.0609756, -0.1827878
-1.0039062, -0.0981445, -0.1816406, -13.2926836, -16.5853653, -5.2439027, -0.202594
-0.9970703, -0.097168, -0.1860352, -13.2317076, -16.5243912, -5.1219511, -0.2180362
-0.9936523, -0.097168, -0.1889648, -12.9268293, -16.7073174, -4.390244, -0.2240787
-0.9975586, -0.0957031, -0.1933594, -12.6829271, -17.0121956, -4.2073174, -0.2507668
-0.9931641, -0.1025391, -0.1967773, -12.5, -17.3780499, -4.2073174, -0.2821546
-0.9926758, -0.1054688, -0.1948242, -12.3170738, -18.2317085, -3.9024391, -0.2935683
-0.9907227, -0.0981445, -0.1860352, -11.8292685, -18.3536587, -3.8414636, -0.3002823
-0.9936523, -0.1030273, -0.184082, -11.5243902, -18.4146347, -3.8414636, -0.3016251
-0.9902344, -0.1044922, -0.1811523, -11.0365858, -18.4756107, -3.5975611, -0.3043107
-0.9882812, -0.1074219, -0.1796875, -10.5487804, -18.5365849, -3.5365853, -0.2841688
-0.980957, -0.1000977, -0.1674805, -10.4878054, -18.4756107, -3.4146342, -0.2996109
-0.9785156, -0.0917969, -0.1616211, -10.6707315, -17.9878044, -3.0487804, -0.2959182
-0.96875, -0.0795898, -0.1484375, -10.4268293, -17.3170738, -2.6219513, -0.2777905
-0.9599609, -0.0712891, -0.1464844, -10.7317076, -16.8292694, -2.3170731, -0.2532845
-0.9404297, -0.0585938, -0.1416016, -10.7926836, -16.0975609, -2.4390244, -0.2286107
-0.9370117, -0.0512695, -0.1416016, -11.219512, -15.7926836, -2.7439024, -0.1989014
-0.9360352, -0.0488281, -0.1430664, -12.0731707, -15.4878054, -3.1097562, -0.191516
-0.9379883, -0.046875, -0.1469727, -12.3170738, -15.1829271, -2.8658538, -0.1884947
-0.9438477, -0.0576172, -0.1538086, -13.1707315, -14.6951227, -3.3536587, -0.1594568
-0.9570312, -0.0712891, -0.152832, -13.4146347, -14.5731707, -3.3536587, -0.1284047
-0.9614258, -0.0791016, -0.1513672, -13.0487804, -14.1463413, -3.5975611, -0.0908064
-0.9672852, -0.0922852, -0.1542969, -12.9878054, -14.0853662, -3.5975611, -0.0760357
-0.96875, -0.0966797, -0.1469727, -12.6829271, -13.5365858, -3.2317073, -0.0508583
-0.9731445, -0.0942383, -0.1450195, -12.4390249, -13.2317076, -3.1097562, -0.0216526
-0.9760742, -0.0864258, -0.1494141, -12.0121956, -12.5, -2.6829269, 0.0129244
-0.9702148, -0.0712891, -0.1542969, -12.560976, -11.8292685, -2.0731707, 0.0424659
-0.9741211, -0.0703125, -0.1621094, -12.0731707, -12.0121956, -2.3780489, 0.0347448
-0.9790039, -0.0727539, -0.1757812, -12.6219511, -12.5, -2.5609756, 0.0454871
-0.9814453, -0.0761719, -0.175293, -12.7439032, -12.3170738, -2.7439024, 0.0562295
-1, -0.0869141, -0.1748047, -13.4756098, -12.560976, -2.6219513, 0.0520333
-1.0014648, -0.0952148, -0.1811523, -13.1707315, -12.4390249, -2.6219513, 0.0599222
-1.0024414, -0.1005859, -0.1875, -13.2926836, -12.3780489, -1.8292683, 0.0802319
-1.0024414, -0.1035156, -0.1899414, -13.2926836, -12.2560978, -1.5243902, 0.0622721
-0.996582, -0.105957, -0.1938477, -12.8048782, -12.560976, -1.402439, 0.0392767
-1.0009766, -0.1044922, -0.1875, -12.6829271, -12.7439032, -1.2804878, 0.026688
-0.9990234, -0.1025391, -0.1835938, -12.1341467, -13.2926836, -0.9756098, 0.0078889
-1.0019531, -0.0981445, -0.1894531, -11.1585369, -13.5365858, -0.5487805, -0.0078889
-1.0078125, -0.0957031, -0.1914062, -11.0365858, -13.841464, -0.5487805, -0.0125887
-1.0117188, -0.0952148, -0.1860352, -11.0975609, -14.2682934, -0.4878049, -0.0176242
-1.015625, -0.09375, -0.1845703, -10.9146347, -14.0853662, -0.1829268, -0.0594186
-1.0146484, -0.0893555, -0.1772461, -11.0365858, -13.9024391, 0.0609756, -0.0874495
-1.015625, -0.0922852, -0.1689453, -10.7317076, -13.780488, 0.0609756, -0.0995346
-1.012207, -0.0957031, -0.1660156, -10.3048782, -13.4146347, 0.3658537, -0.1169909
-1.0024414, -0.0991211, -0.1567383, -10.2439022, -13.1097565, 0.4878049, -0.1273976
-0.9956055, -0.1054688, -0.1582031, -10.1219511, -12.560976, 0.7926829, -0.1243763
-0.9931641, -0.1000977, -0.1577148, -9.8780489, -12.0121956, 0.7926829, -0.1431754
-0.9916992, -0.0947266, -0.1582031, -9.6951218, -11.5853662, 1.402439, -0.1700313
-0.9941406, -0.078125, -0.1625977, -9.6341467, -11.0365858, 1.8902439, -0.1680171
-0.9960938, -0.0800781, -0.1645508, -9.7560978, -11.5243902, 1.8292683, -0.1743954
-0.9960938, -0.0805664, -0.1650391, -10.060976, -11.5853662, 2.0121951, -0.1787594
-0.9995117, -0.0878906, -0.1572266, -10.060976, -11.7682934, 1.8292683, -0.1943694
-1.0014648, -0.0922852, -0.152832, -9.9390249, -11.0975609, 1.9512196, -0.1962158
-1.0146484, -0.09375, -0.1567383, -9.5121956, -10.7317076, 2.0121951, -0.1935302
-1.0180664, -0.0898438, -0.1572266, -9.4512196, -10.060976, 2.195122, -0.1827878
-1.027832, -0.0751953, -0.1630859, -9.4512196, -10, 2.6829269, -0.1707027
-1.0351562, -0.0654297, -0.1674805, -9.5731707, -9.2073174, 2.6219513, -0.1841306
-1.0366211, -0.0522461, -0.1762695, -9.8780489, -8.841464, 2.6219513, -0.178088
-1.0361328, -0.0493164, -0.1796875, -10.6097565, -9.0853662, 2.3780489, -0.1727169
-1.0263672, -0.0498047, -0.1889648, -11.7682934, -9.1463413, 2.195122, -0.1660029
-1.0244141, -0.0493164, -0.1928711, -12.2560978, -9.3292685, 2.0121951, -0.1519036
-1.0224609, -0.0625, -0.190918, -12.8658543, -9.4512196, 1.9512196, -0.1116197
-1.0205078, -0.0795898, -0.1875, -12.9878054, -9.6341467, 1.5853659, -0.0854353
-1.0244141, -0.0859375, -0.1821289, -13.2926836, -10.3658543, 1.4634147, -0.0619364
-1.0195312, -0.0957031, -0.1640625, -13.4756098, -10.3658543, 1.5853659, -0.0176242
-1.0214844, -0.0957031, -0.1591797, -12.3170738, -9.8170738, 1.5853659, 0.0283665
-1.0268555, -0.0957031, -0.1489258, -12.3170738, -9.7560978, 1.7682927, 0.0565652
-1.0205078, -0.0996094, -0.1542969, -11.7682934, -8.6585369, 2.1341465, 0.0971847
-1.0117188, -0.0957031, -0.1669922, -11.4634151, -8.2926826, 2.4390244, 0.1401541
-1.0083008, -0.0908203, -0.1699219, -11.5853662, -8.1707315, 2.9268293, 0.1257191
-1.0092773, -0.0839844, -0.1674805, -11.7073174, -8.2926826, 3.1707318, 0.1364614
-1.0043945, -0.0791016, -0.1674805, -11.9512196, -8.2926826, 3.1097562, 0.1451896
-1.0043945, -0.0761719, -0.168457, -11.9512196, -8.6585369, 2.9878049, 0.1233692
-1.0039062, -0.0854492, -0.1704102, -11.7682934, -8.5975609, 3.2317073, 0.0924849
-1.0083008, -0.0947266, -0.1728516, -11.8902445, -9.0853662, 3.2317073, 0.1092699
-1.0146484, -0.1103516, -0.1699219, -11.5243902, -9.0243902, 3.1097562, 0.1294118
-1.0180664, -0.1206055, -0.168457, -11.0975609, -8.9024391, 2.9878049, 0.1461967
-1.0351562, -0.1240234, -0.1645508, -10.6097565, -8.5365858, 3.5365853, 0.1822843
-1.0366211, -0.1206055, -0.1611328, -9.6341467, -8.1097565, 4.390244, 0.205951
-1.03125, -0.1118164, -0.1630859, -9.1463413, -7.8658538, 5.1829271, 0.223743
-1.0239258, -0.1074219, -0.1635742, -8.719512, -7.5, 5.4878049, 0.2180362
-1.0200195, -0.0942383, -0.1625977, -8.4146347, -7.3170733, 5.5487804, 0.2009155
-1.0170898, -0.0830078, -0.1577148, -8.4756098, -7.5609756, 5.609756, 0.1837949
-1.0141602, -0.0786133, -0.1606445, -8.9024391, -7.3170733, 5.7317076, 0.1495537
-1.0117188, -0.0717773, -0.159668, -9.1463413, -7.3780489, 5.9146342, 0.1075914
-1.0102539, -0.0712891, -0.159668, -9.6341467, -7.4390244, 5.7317076, 0.0468299
-1.0102539, -0.0839844, -0.1538086, -9.8780489, -7.3780489, 5.5487804, 0.0025177
-1.0151367, -0.0917969, -0.1542969, -10.1219511, -7.5, 5.4878049, -0.0182956
-1.0200195, -0.1000977, -0.1577148, -10.1219511, -6.7682929, 5.3048782, -0.0391089
-1.0263672, -0.0991211, -0.1591797, -9.6951218, -6.6463418, 5.670732, -0.0663005
-1.0288086, -0.0961914, -0.1547852, -9.2682924, -6.5853658, 5.9146342, -0.0740215
-1.0322266, -0.0942383, -0.1567383, -9.2682924, -6.7073174, 5.9756098, -0.1062486
-1.0180664, -0.0888672, -0.1533203, -9.3292685, -6.2195125, 6.1585369, -0.1384756
-1.0107422, -0.0839844, -0.1542969, -9.4512196, -6.280488, 6.0365853, -0.1445182
-1.0043945, -0.0810547, -0.159668, -9.7560978, -6.1585369, 5.9146342, -0.1519036
-1.0024414, -0.0839844, -0.152832, -9.6951218, -6.1585369, 6.4024391, -0.1629816
-1.0009766, -0.0878906, -0.1523438, -9.3292685, -6.4024391, 6.0365853, -0.1629816
-1.0048828, -0.0893555, -0.1479492, -9.3902445, -6.280488, 5.7926831, -0.1472038
-1.0073242, -0.0893555, -0.1474609, -9.0853662, -5.9756098, 5.5487804, -0.1613031
-1.0063477, -0.0883789, -0.1362305, -9.1463413, -5.9146342, 5.4878049, -0.1373007
-1.0107422, -0.0878906, -0.137207, -9.2682924, -5.4268293, 5.7926831, -0.110277
-1.0014648, -0.0825195, -0.1337891, -9.2073174, -4.4512196, 6.0975609, -0.1025559
-0.9960938, -0.0849609, -0.1328125, -9.0243902, -4.5121951, 6.4634147, -0.0944991
-0.9951172, -0.0786133, -0.1269531, -9.3902445, -4.0243902, 6.0365853, -0.0582437
-0.9956055, -0.0766602, -0.1303711, -9.5121956, -3.7804878, 5.8536587, -0.0558938
-0.9960938, -0.0795898, -0.137207, -9.6951218, -3.3536587, 5.5487804, -0.0757
-1.0024414, -0.09375, -0.1425781, -9.6951218, -3.5365853, 5.609756, -0.0767071
-1.003418, -0.0976562, -0.1381836, -9.9390249, -3.2317073, 5.8536587, -0.0807355
-1.0068359, -0.1044922, -0.1357422, -10.1829271, -2.9268293, 5.9146342, -0.0793927
-1.0043945, -0.1103516, -0.1367188, -9.5731707, -2.3780489, 5.9146342, -0.1028916
-1.0083008, -0.1152344, -0.1425781, -9.0853662, -2.4390244, 6.3414636, -0.1062486
-1.0126953, -0.1113281, -0.144043, -8.5365858, -2.1341465, 7.0121951, -0.0572366
-1.003418, -0.1020508, -0.1533203, -7.6219516, -2.1341465, 7.3780489, 0.030045
-0.9980469, -0.1015625, -0.1552734, -7.3170733, -2.2560976, 7.4390244, 0.1478752
-0.9921875, -0.1025391, -0.1557617, -6.9512196, -2.6219513, 7.0731707, 0.2314641
-0.9873047, -0.1054688, -0.159668, -6.4634147, -2.9268293, 7.0121951, 0.311696
-0.987793, -0.1040039, -0.1625977, -6.6463418, -3.4146342, 7.3780489, 0.3461051
-0.9887695, -0.097168, -0.152832, -6.5853658, -3.5975611, 7.4390244, 0.3298238
-0.9902344, -0.0942383, -0.1450195, -6.5243902, -3.4756098, 7.5, 0.2945754
-0.9912109, -0.0825195, -0.1425781, -6.4634147, -3.7804878, 7.2560978, 0.2536202
-0.9912109, -0.0830078, -0.1455078, -6.1585369, -3.9634147, 6.8292685, 0.191516
-0.984375, -0.0825195, -0.1484375, -6.3414636, -3.9634147, 6.8292685, 0.1203479
-0.9848633, -0.0786133, -0.1484375, -7.0731707, -4.0853658, 6.7073174, 0.0850996
-0.9819336, -0.0791016, -0.1489258, -7.2560978, -4.5121951, 6.8292685, 0.0609293
-0.9838867, -0.0761719, -0.1513672, -7.1951222, -4.4512196, 6.6463418, 0.0414588
-0.987793, -0.0717773, -0.1586914, -7.5609756, -5, 6.280488, 0.0246738
-0.9848633, -0.0732422, -0.1606445, -7.8048782, -4.8780489, 6.2195125, 0.0025177
-0.9833984, -0.0839844, -0.1625977, -7.9878049, -5.2439027, 5.9756098, -0.0501869
-0.9804688, -0.0927734, -0.1552734, -7.8658538, -5.7317076, 6.0975609, -0.0944991
-0.9780273, -0.0957031, -0.1547852, -7.5, -5.5487804, 5.9756098, -0.1250477
-0.9804688, -0.0952148, -0.1538086, -7.4390244, -5.7926831, 6.0365853, -0.1495537
-0.9785156, -0.0947266, -0.1518555, -7.2560978, -5.7926831, 6.1585369, -0.16701
-0.9692383, -0.09375, -0.1464844, -7.3170733, -5.9756098, 6.3414636, -0.1673457
-0.9624023, -0.0917969, -0.144043, -7.0731707, -6.3414636, 6.1585369, -0.1950408
-0.9643555, -0.0849609, -0.1513672, -6.7073174, -6.4024391, 6.1585369, -0.2240787
-0.9638672, -0.0810547, -0.152832, -6.6463418, -6.8292685, 6.0975609, -0.2331426
-0.9663086, -0.0732422, -0.1606445, -6.280488, -7.3170733, 5.7926831, -0.2344854
-0.9711914, -0.0776367, -0.1669922, -6.5243902, -7.5, 5.7317076, -0.2260929
-0.9746094, -0.0786133, -0.1674805, -7.0121951, -8.4756098, 5.2439027, -0.2455634
-0.980957, -0.0810547, -0.1708984, -7.1341467, -8.780488, 5.1829271, -0.2589914
-0.9853516, -0.0810547, -0.1689453, -7.4390244, -9.2682924, 4.8780489, -0.2552987
-0.9814453, -0.0800781, -0.1669922, -7.5609756, -9.4512196, 4.6951222, -0.2351568
-0.9726562, -0.0820312, -0.1625977, -7.8658538, -9.9390249, 4.9390244, -0.1942016
-0.9643555, -0.0898438, -0.1572266, -7.9268293, -10.1829271, 4.8170733, -0.1891661
-0.9599609, -0.0883789, -0.1591797, -7.4390244, -10.8536587, 4.9390244, -0.1720455
-0.9584961, -0.0830078, -0.1660156, -7.3780489, -11.219512, 4.2682929, -0.1428397
-0.965332, -0.0820312, -0.1660156, -7.3780489, -11.7073174, 4.3292685, -0.1366293
-0.9726562, -0.0844727, -0.1665039, -7.8048782, -12.1951218, 3.8414636, -0.1183337
-0.9775391, -0.0927734, -0.1660156, -7.8048782, -12.3780489, 3.9024391, -0.0609293
-0.9882812, -0.0947266, -0.1616211, -7.6829271, -12.8048782, 4.0853658, -0.0397803
-0.9931641, -0.0947266, -0.1586914, -7.6829271, -12.8658543, 4.2073174, -0.0359197
-0.9892578, -0.0878906, -0.1606445, -7.4390244, -13.1707315, 4.2073174, -0.008896
-0.9824219, -0.078125, -0.1674805, -7.2560978, -13.1097565, 4.2073174, 0.0025177
-0.9804688, -0.0737305, -0.1665039, -7.1951222, -13.5365858, 4.2682929, 0.018967
-0.9804688, -0.0703125, -0.1669922, -7.5, -13.6585369, 4.0243902, 0.0428016
-0.9833984, -0.0693359, -0.1679688, -7.9878049, -14.3902445, 4.4512196, 0.0582437
-0.9824219, -0.0737305, -0.1650391, -8.4146347, -15, 4.0243902, 0.0495155
-0.9760742, -0.0737305, -0.1567383, -9.0853662, -15.4268293, 4.0243902, 0.0669718
-0.9750977, -0.0751953, -0.1533203, -9.5731707, -15.1829271, 3.2317073, 0.0884565
-0.9750977, -0.0756836, -0.1494141, -9.8170738, -14.8780489, 2.7439024, 0.0948348
-0.9702148, -0.0727539, -0.1396484, -9.6341467, -14.6341467, 3.0487804, 0.1099413
-0.9663086, -0.0654297, -0.1391602, -9.2682924, -14.6951227, 3.0487804, 0.1186694
-0.9648438, -0.0595703, -0.1367188, -9.9390249, -14.6341467, 2.9268293, 0.0971847
-0.9560547, -0.0571289, -0.1367188, -10.1829271, -14.5731707, 2.6829269, 0.0654612
-0.9506836, -0.0595703, -0.1357422, -10.7317076, -14.3902445, 2.3780489, 0.0513619
-0.9536133, -0.065918, -0.1293945, -11.0365858, -14.4512196, 2.0731707, 0.0317235
-0.9521484, -0.0693359, -0.1342773, -11.5853662, -14.1463413, 1.6463414, 0.0226596
-0.9692383, -0.0693359, -0.1376953, -11.7073174, -14.2682934, 1.3414634, 0.0065461
-0.972168, -0.074707, -0.1391602, -11.9512196, -14.4512196, 1.2195122, -0.0058747
-0.9775391, -0.0849609, -0.1479492, -11.9512196, -14.2682934, 1.1585366, -0.0303807
-0.9829102, -0.0908203, -0.1474609, -12.1341467, -14.5731707, 0.9756098, -0.057908
-0.9897461, -0.1040039, -0.1508789, -12.1341467, -14.2073174, 1.097561, -0.0760357
-0.9921875, -0.109375, -0.1508789, -11.7073174, -14.1463413, 1.2804878, -0.1159838
-0.9921875, -0.1079102, -0.1523438, -10.5487804, -14.0853662, 1.4634147, -0.1240406
-0.9916992, -0.1010742, -0.1630859, -10.1219511, -13.9634151, 1.6463414, -0.1287404
-0.9892578, -0.0976562, -0.1591797, -9.2073174, -13.780488, 1.8292683, -0.1413291
-0.9882812, -0.0952148, -0.1611328, -8.4146347, -13.780488, 2.2560976, -0.1555962
-0.9882812, -0.0874023, -0.1708984, -7.5, -13.841464, 1.7682927, -0.1473716
-0.987793, -0.0874023, -0.1884766, -6.4024391, -14.0853662, 1.7682927, -0.160296
-0.9882812, -0.0874023, -0.1967773, -6.280488, -14.6341467, 1.7682927, -0.1747311
-0.9863281, -0.090332, -0.1972656, -6.3414636, -16.0975609, 2.3780489, -0.1653315
-0.9882812, -0.0913086, -0.1918945, -6.4634147, -16.7073174, 2.3780489, -0.1693599
-0.984375, -0.0922852, -0.1821289, -6.4024391, -17.3780499, 2.0731707, -0.1770809
-0.9902344, -0.0947266, -0.1567383, -6.2195125, -17.7439022, 2.1341465, -0.1579461
-0.9838867, -0.0976562, -0.1489258, -5.9756098, -18.2317085, 2.0121951, -0.1273976
-0.9697266, -0.0996094, -0.1333008, -5.670732, -18.2926826, 2.0121951, -0.1243763
-0.9672852, -0.1020508, -0.1333008, -4.8170733, -17.8048782, 2.1341465, -0.0970169
-0.9624023, -0.0927734, -0.1362305, -4.3292685, -17.5, 2.1341465, -0.0696574
-0.9624023, -0.0859375, -0.140625, -3.7804878, -17.6219521, 2.5609756, -0.0485084
-0.9633789, -0.0795898, -0.1435547, -3.7195122, -17.7439022, 2.7439024, -0.0307164
-0.9580078, -0.0810547, -0.144043, -4.0243902, -18.0487804, 2.5, 0.0119173
-0.9555664, -0.0888672, -0.1401367, -4.0853658, -18.2317085, 2.195122, 0.0414588
-0.9609375, -0.0922852, -0.1386719, -3.9634147, -18.4146347, 2.0731707, 0.0421302
-0.9677734, -0.0908203, -0.1391602, -3.9634147, -18.1097565, 2.3780489, 0.0750286
-0.9814453, -0.0820312, -0.1567383, -4.0243902, -17.8658543, 2.4390244, 0.1143053
-0.9848633, -0.0771484, -0.1577148, -3.8414636, -17.7439022, 2.6829269, 0.1431754
-0.9931641, -0.0634766, -0.1733398, -4.0243902, -17.8048782, 2.804878, 0.1582818
-0.9936523, -0.0625, -0.1796875, -4.7560978, -18.4146347, 2.4390244, 0.1717098
-0.9863281, -0.0654297, -0.1855469, -5.1829271, -18.2317085, 2.7439024, 0.1905089
-0.9863281, -0.0722656, -0.1889648, -5.4268293, -18.4146347, 2.5609756, 0.2086366
-0.9848633, -0.0805664, -0.1958008, -4.9390244, -18.780489, 2.8658538, 0.2339818
-0.9838867, -0.0839844, -0.1982422, -4.2073174, -19.0853672, 3.1097562, 0.2227359
-0.9799805, -0.0834961, -0.2075195, -3.4146342, -19.6951218, 3.4756098, 0.2274357
-0.9863281, -0.0766602, -0.2148438, -2.8658538, -20.1219521, 3.5975611, 0.2378424
-0.9941406, -0.0795898, -0.2216797, -2.3780489, -21.4634151, 3.9634147, 0.248249
-0.9951172, -0.0830078, -0.2368164, -2.1341465, -21.9512196, 4.4512196, 0.2469062
-1.0029297, -0.0883789, -0.2382812, -2.0121951, -22.9268303, 4.9390244, 0.2455634
-1.0117188, -0.1035156, -0.2241211, -1.7682927, -23.4146347, 5.4268293, 0.2227359
-1.0102539, -0.1196289, -0.2124023, -1.0365853, -24.9390259, 5.609756, 0.1965515
-0.9956055, -0.1435547, -0.1918945, -0.2439024, -25.3048782, 6.0365853, 0.1965515
-0.9956055, -0.1445312, -0.1801758, 2.2560976, -24.5731716, 7.5, 0.2079652
-0.9946289, -0.125, -0.1630859, 4.4512196, -23.9024391, 9.1463413, 0.2123293
-0.9921875, -0.1108398, -0.1601562, 5.1219511, -23.5975609, 9.8170738, 0.1945373
-0.9838867, -0.0708008, -0.1616211, 6.3414636, -22.8048782, 10.2439022, 0.1905089
-0.9931641, -0.0390625, -0.1835938, 6.280488, -22.5, 10.1829271, 0.1482109
-1.0014648, -0.0288086, -0.203125, 6.890244, -22.560976, 9.8780489, 0.1300832
-1.0380859, -0.012207, -0.2412109, 6.5853658, -23.0487804, 9.8170738, 0.124712
-1.0532227, -0.0107422, -0.2495117, 5.9756098, -24.0853672, 8.9634151, 0.1173266
-1.081543, -0.0078125, -0.2670898, 5.3658538, -24.8170738, 9.0853662, 0.1032273
-1.0898438, -0.0126953, -0.28125, 5.0609756, -26.5853672, 8.9024391, 0.1200122
-1.1044922, -0.0263672, -0.3012695, 4.5731707, -26.7073174, 8.9024391, 0.10692
-1.1074219, -0.0366211, -0.3120117, 4.0243902, -28.0487804, 9.1463413, 0.079057
-1.1132812, -0.050293, -0.3217773, 4.6341462, -30.2439022, 9.2682924, 0.0770428
-1.1108398, -0.0517578, -0.3154297, 5.0609756, -31.341465, 9.4512196, 0.0867781
-1.1176758, -0.0620117, -0.2954102, 7.0731707, -33.2317085, 9.5731707, 0.0975204
-1.1230469, -0.065918, -0.2861328, 8.2317076, -33.9634171, 9.5731707, 0.0871138
-1.1186523, -0.0600586, -0.2832031, 9.8170738, -34.9390259, 9.7560978, 0.0995346
-1.125, -0.0600586, -0.2983398, 10.3658543, -35.1829262, 9.7560978, 0.1206836
-1.1254883, -0.0610352, -0.3125, 10.9146347, -35.1219521, 10.3048782, 0.145861
-1.1469727, -0.0712891, -0.3452148, 11.7073174, -35.3658562, 10.4878054, 0.1748989
-1.1513672, -0.0688477, -0.3535156, 12.9878054, -37.4390259, 11.7073174, 0.1748989
-1.1748047, -0.0605469, -0.3710938, 14.1463413, -38.6585388, 12.4390249, 0.1958801
-1.1865234, -0.043457, -0.3735352, 16.8292694, -40.2439041, 13.6585369, 0.2173648
-1.1977539, -0.0063477, -0.3637695, 19.2682934, -41.7073174, 14.5121956, 0.2375067
-1.1928711, 0.0107422, -0.359375, 19.8780499, -41.9512215, 14.2073174, 0.2630198
-1.1694336, 0.0424805, -0.3574219, 20.6707325, -42.3780479, 14.3292685, 0.3049821
-1.1391602, 0.0541992, -0.3564453, 21.0365868, -42.5, 14.5731707, 0.3194171
-1.1259766, 0.0493164, -0.3515625, 21.8292694, -42.6829262, 14.8780489, 0.3157244
-1.1054688, 0.027832, -0.3154297, 22.0731716, -42.3780479, 15, 0.3325093
-1.0996094, 0.0249023, -0.2875977, 22.0121956, -42.9268303, 15.8536587, 0.3412375
-1.0756836, 0.0229492, -0.2216797, 21.7682934, -42.3170738, 16.2195129, 0.3442588
-1.0644531, 0.0302734, -0.1904297, 20.7926826, -39.3292694, 16.7073174, 0.3509728
-1.0439453, 0.0273438, -0.1508789, 19.939024, -33.2317085, 16.8902435, 0.374136
-1.0356445, 0.0263672, -0.1469727, 19.5121956, -30.060976, 17.0731716, 0.3617151
-1.0283203, 0.0302734, -0.1801758, 18.7195129, -24.2073174, 17.8658543, 0.3543297
-1.03125, 0.0307617, -0.2133789, 18.9024391, -21.6463413, 18.2317085, 0.3586938
-1.0522461, 0.0419922, -0.2792969, 19.2073174, -17.8048782, 19.3292694, 0.3647364
-1.0766602, 0.0581055, -0.3154297, 19.0243912, -17.0121956, 19.7560978, 0.3503014
-1.081543, 0.0639648, -0.3300781, 18.3536587, -14.8170738, 20, 0.353994
-1.0830078, 0.0751953, -0.3554688, 17.2560978, -13.4756098, 19.939024, 0.3274739
-1.0825195, 0.0776367, -0.3608398, 16.3414631, -11.1585369, 19.6951218, 0.298436
-1.0844727, 0.0820312, -0.3369141, 15.7317076, -10.7317076, 19.939024, 0.2898756
-1.0727539, 0.0869141, -0.3203125, 15.2439032, -9.1463413, 21.2195129, 0.2881971
-1.0493164, 0.0888672, -0.2958984, 15.3048782, -5.3658538, 22.6219521, 0.2818189
-1.043457, 0.0834961, -0.2895508, 15.6707325, -2.8658538, 22.9268303, 0.2611734
-1.0317383, 0.0581055, -0.2851562, 15.7926836, 1.3414634, 23.1707325, 0.2274357
-1.0327148, 0.0541992, -0.2861328, 15.9756098, 2.804878, 23.0487804, 0.2062867
-1.0449219, 0.0517578, -0.2875977, 16.3414631, 6.9512196, 23.8414631, 0.1837949
-1.0493164, 0.0605469, -0.3076172, 16.7073174, 9.3902445, 24.6951218, 0.1623102
-1.050293, 0.0649414, -0.3251953, 16.9512196, 13.9634151, 26.0975609, 0.115816
-1.0527344, 0.0634766, -0.3525391, 17.1341476, 15.8536587, 27.1951218, 0.0978561
-1.0566406, 0.0620117, -0.3637695, 16.7682934, 18.4756107, 28.7195129, 0.0743572
-1.065918, 0.0664062, -0.3632812, 16.8902435, 19.939024, 29.4512196, 0.0602579
-1.0698242, 0.0678711, -0.355957, 17.1341476, 22.1951218, 30.9756107, 0.0428016
-1.0693359, 0.0664062, -0.3510742, 17.9268303, 25.8536587, 31.5243912, 0.0404517
-1.0698242, 0.0654297, -0.3588867, 17.8658543, 27.9878063, 31.9512196, 0.01561
-1.0820312, 0.0688477, -0.3662109, 18.7195129, 32.1341476, 32.6829262, -0.0052033
-1.0908203, 0.0688477, -0.3662109, 19.0853672, 34.0243912, 33.5975609, -0.0109102
-1.1040039, 0.0698242, -0.347168, 20.1829281, 37.9268303, 34.7560997, -0.018967
-1.0991211, 0.0693359, -0.315918, 19.8780499, 40.6097565, 35.3658562, -0.023331
-1.0976562, 0.0703125, -0.3100586, 20.5487804, 47.0121956, 35.0609779, -0.0001678
-1.0991211, 0.0825195, -0.3227539, 21.0975609, 50.6707344, 35.3048782, 0.0421302
-1.0981445, 0.0952148, -0.3393555, 21.0975609, 57.6219521, 36.5243912, 0.0325628
-1.1000977, 0.1225586, -0.3759766, 21.4634151, 60.7926826, 37.5609779, 0.0357519
-1.1015625, 0.1328125, -0.394043, 22.0731716, 65.6707306, 39.3902435, 0.0453193
-1.1113281, 0.1381836, -0.4248047, 21.5243912, 69.3902435, 39.3902435, 0.0592508
-1.1152344, 0.1323242, -0.4345703, 21.5243912, 70.9756088, 39.3292694, 0.0830854
-1.1196289, 0.1069336, -0.4633789, 21.4634151, 74.4512177, 38.7804871, 0.1294118
-1.1308594, 0.0976562, -0.4731445, 21.5243912, 75.9756088, 38.9024391, 0.1441825
-1.1538086, 0.0839844, -0.487793, 22.8048782, 79.0853653, 40.4878044, 0.1435111
-1.1621094, 0.0947266, -0.4946289, 23.4146347, 80.1219559, 41.5243912, 0.1532464
-1.1640625, 0.1010742, -0.4931641, 24.4512196, 82.5609741, 43.4146347, 0.1596246
-1.1645508, 0.1103516, -0.4824219, 24.6951218, 84.146347, 43.841465, 0.1762417
-1.1704102, 0.1186523, -0.4697266, 24.9390259, 86.5243912, 44.1463432, 0.1757382
-1.1699219, 0.1240234, -0.4560547, 25.1829281, 88.4756088, 43.9634171, 0.1764096
-1.1757812, 0.1181641, -0.4594727, 26.0365868, 93.9634171, 43.7195129, 0.1918517
-1.1943359, 0.0942383, -0.4907227, 27.3780499, 99.2682953, 44.4512215, 0.2096437
-1.2060547, 0.0791016, -0.5058594, 28.0487804, 101.0365906, 44.9390259, 0.2143435
-1.234375, 0.0595703, -0.5273438, 29.5121956, 103.6585388, 46.7682953, 0.1889982
-1.2456055, 0.0595703, -0.5239258, 30.1219521, 105.18293, 47.5609779, 0.1901732
-1.2573242, 0.0751953, -0.4921875, 30.6707325, 108.5365906, 49.0853653, 0.1918517
-1.2563477, 0.1015625, -0.456543, 30.8536587, 110.8536606, 49.5731735, 0.1804379
-1.2568359, 0.1147461, -0.4458008, 31.7682934, 116.8902435, 50.3048782, 0.1495537
-1.2543945, 0.1333008, -0.4516602, 32.3780479, 120, 50.9756126, 0.1253834
-1.2563477, 0.1435547, -0.456543, 34.5121956, 125.7926865, 52.0731735, 0.1032273
-1.2578125, 0.1552734, -0.4536133, 35.4878044, 128.4756165, 52.1951218, 0.0830854
-1.2548828, 0.1538086, -0.4599609, 36.7073174, 132.9878082, 52.0121956, 0.0770428
-1.2592773, 0.1386719, -0.4960938, 35.6707344, 139.0243988, 50.9756126, 0.0609293
-1.2719727, 0.1308594, -0.5126953, 35.4268303, 142.1341553, 50.6097565, 0.0288701
-1.2998047, 0.1132812, -0.5327148, 35.1829262, 146.0365906, 51.8902435, 0.0018463
-1.3017578, 0.1005859, -0.5424805, 34.8780479, 147.7439117, 52.8658562, -0.0182956
-1.3027344, 0.0620117, -0.5854492, 33.2926826, 151.8902435, 53.841465, -0.0555581
-1.3237305, 0.0419922, -0.6166992, 32.5609779, 153.1707306, 54.4512215, -0.0676432
-1.3491211, 0.0385742, -0.6171875, 30.5487804, 154.9390259, 56.4634171, -0.0733501
-1.362793, 0.0610352, -0.5942383, 30.3048782, 155.9146423, 57.8658562, -0.0908064
-1.3574219, 0.0795898, -0.5854492, 29.9390259, 159.0853729, 60.3658562, -0.1012131
-1.3422852, 0.1220703, -0.5839844, 30.1829281, 161.1585388, 61.341465, -0.090135
-1.3261719, 0.1386719, -0.6035156, 29.6341476, 165.8536682, 62.68293, -0.1169909
-1.2924805, 0.1396484, -0.6708984, 28.9634151, 168.7195129, 63.1097565, -0.1324331
-1.2832031, 0.1240234, -0.7124023, 28.9024391, 169.4512177, 63.2317085, -0.1263905
-1.2963867, 0.0966797, -0.7734375, 29.6341476, 168.2317047, 64.2073212, -0.1317617
-1.3168945, 0.0800781, -0.777832, 29.3902454, 166.9512177, 64.6341476, -0.1243763
-1.3374023, 0.0717773, -0.7338867, 28.780489, 164.8170776, 65.8536606, -0.1129625
-1.3374023, 0.0874023, -0.6796875, 28.9634151, 165.4268341, 66.2195129, -0.0944991
-1.3320312, 0.105957, -0.6708984, 29.3902454, 169.0853729, 67.7439041, -0.0621042
-1.2978516, 0.15625, -0.6938477, 29.8170738, 171.0365906, 68.6585388, -0.0323949
-1.2680664, 0.1811523, -0.7163086, 28.9024391, 173.9634247, 71.4634171, -0.0104067
-1.2128906, 0.1977539, -0.765625, 27.8048782, 174.6951294, 72.0121994, -0.0199741
-1.190918, 0.1928711, -0.7817383, 24.4512196, 174.3902435, 71.5853653, -0.0035248
-1.1762695, 0.1606445, -0.7617188, 21.1585369, 172.86586, 69.7560959, 0.030045
-1.1782227, 0.1533203, -0.7275391, 20, 172.5609741, 69.0853653, 0.0558938
-1.1723633, 0.1513672, -0.6738281, 18.4756107, 174.0853729, 68.9634171, 0.0867781
-1.1484375, 0.1787109, -0.6772461, 17.5, 176.4634247, 69.1463394, 0.1307546
-1.1328125, 0.190918, -0.706543, 16.280489, 180.8536682, 70.1219559, 0.1374685
-1.1079102, 0.2075195, -0.7783203, 15.1829271, 182.0731812, 70.5487823, 0.1320974
-1.0976562, 0.2045898, -0.8085938, 12.3780489, 182.6829376, 71.4634171, 0.1529107
-1.0874023, 0.1704102, -0.8369141, 11.0975609, 181.8292694, 71.2195129, 0.1710384
-1.0957031, 0.1542969, -0.8339844, 9.7560978, 180.2439117, 71.0365906, 0.1928588
-1.1210938, 0.1245117, -0.7915039, 9.1463413, 179.2682953, 70.4268341, 0.2106508
-1.1254883, 0.1196289, -0.7592773, 9.2073174, 178.6585388, 70.6097565, 0.2234073
-1.1240234, 0.1259766, -0.7089844, 9.2073174, 180.9756165, 71.6463394, 0.199237
-1.1088867, 0.1274414, -0.7094727, 9.6341467, 182.86586, 71.7682953, 0.2017548
-1.0791016, 0.1420898, -0.7568359, 9.2073174, 186.4634247, 72.9268341, 0.2099794
-1.0551758, 0.1689453, -0.8100586, 8.719512, 187.2561035, 73.6585388, 0.2083009
-1.0473633, 0.1928711, -0.828125, 7.1341467, 186.646347, 76.0365906, 0.191516
-1.0371094, 0.206543, -0.8710938, 6.8292685, 185.8536682, 76.5243912, 0.173724
-1.0380859, 0.203125, -0.8774414, 5.670732, 183.7195129, 75.7926865, 0.1310903
-1.0649414, 0.1889648, -0.8583984, 5.3658538, 182.2561035, 74.9390259, 0.0951705
-1.074707, 0.1879883, -0.8325195, 3.7804878, 179.8170776, 73.9634171, 0.0938277
-1.081543, 0.2021484, -0.7885742, 2.9268293, 180.36586, 73.8414688, 0.0721752
-1.0668945, 0.2148438, -0.7890625, 2.0121951, 182.6219482, 74.5121994, 0.0528725
-1.0200195, 0.2299805, -0.8115234, 0.3048781, 185.1219482, 75.7926865, 0.0159457
-0.9921875, 0.2275391, -0.8203125, -0.4878049, 185.1219482, 76.4024429, -0.0139315
-0.9399414, 0.2045898, -0.815918, -2.8658538, 184.2682953, 76.1585388, -0.0404517
-0.918457, 0.1899414, -0.7900391, -4.1463413, 183.9024506, 75.6707306, -0.0495155
-0.9145508, 0.1845703, -0.7851562, -5.3048782, 184.3292694, 75.4878082, -0.0726787
-0.9379883, 0.1865234, -0.8041992, -4.8170733, 185.3048859, 75.5487823, -0.10692
-0.9526367, 0.1889648, -0.8100586, -4.4512196, 186.2195129, 76.8292694, -0.1210193
-0.9731445, 0.2089844, -0.8330078, -4.8170733, 186.4634247, 77.7439041, -0.1344472
-0.9790039, 0.2124023, -0.8623047, -6.3414636, 186.7682953, 78.2926865, -0.1505608
-0.996582, 0.2119141, -0.9189453, -7.4390244, 187.012207, 78.5975647, -0.1633173
-1.0073242, 0.2080078, -0.921875, -8.5365858, 185.4878082, 79.8780518, -0.1592889
-1.0029297, 0.2080078, -0.8793945, -8.780488, 183.4146423, 80, -0.1695277
-0.9824219, 0.2036133, -0.8544922, -8.4756098, 183.5975647, 79.4512177, -0.1962158
-0.9360352, 0.1855469, -0.8466797, -9.0853662, 185.3048859, 78.2926865, -0.1906767
-0.9067383, 0.1665039, -0.8901367, -9.2682924, 186.0365906, 78.2317123, -0.1795987
-0.9013672, 0.1743164, -0.9047852, -9.5731707, 185.8536682, 80.3048782, -0.1619745
-0.9033203, 0.1992188, -0.9033203, -9.0853662, 184.8170776, 82.0731735, -0.1263905
-0.8984375, 0.2182617, -0.8925781, -9.1463413, 183.4146423, 83.9024429, -0.0981918
-0.8969727, 0.253418, -0.8764648, -9.8780489, 183.2317047, 83.5975647, -0.1153124
-0.8994141, 0.2651367, -0.8823242, -11.8902445, 183.9634247, 83.2317123, -0.0976883
-0.8881836, 0.2666016, -0.9013672, -13.0487804, 184.2682953, 82.8658524, -0.0743572
-0.8857422, 0.2646484, -0.9111328, -15.1219511, 184.512207, 82.8658524, -0.0394446
-0.8774414, 0.2607422, -0.9155273, -17.0121956, 184.0243988, 82.9268341, -0.0075532
-0.8706055, 0.2568359, -0.9145508, -17.9268303, 183.9024506, 83.0487823, 0.0394446
-0.859375, 0.2456055, -0.9277344, -18.9024391, 184.2682953, 83.2317123, 0.0558938
-0.8574219, 0.2246094, -0.9443359, -19.5121956, 183.9024506, 83.2317123, 0.0508583
-0.8598633, 0.2133789, -0.9375, -19.8170738, 182.3780518, 83.7804871, 0.0753643
-0.855957, 0.2070312, -0.8969727, -20.3048782, 181.7682953, 83.5975647, 0.0908064
-0.8554688, 0.2124023, -0.8837891, -20.4268303, 182.5609741, 83.6585388, 0.1012131
-0.8491211, 0.2480469, -0.8842773, -21.0365868, 184.2073212, 83.7804871, 0.1032273
-0.84375, 0.2705078, -0.9003906, -21.7682934, 186.4024506, 85.1219559, 0.1072557
-0.8359375, 0.3085938, -0.921875, -22.3170738, 187.1951294, 85.5487823, 0.1206836
-0.8222656, 0.3173828, -0.9282227, -24.3902435, 187.5, 85.6097565, 0.1171588
-0.796875, 0.3027344, -0.9365234, -26.5853672, 187.4390259, 83.5975647, 0.1270619
-0.7861328, 0.2885742, -0.934082, -27.3780499, 187.4390259, 82.2560959, 0.1085985
-0.7788086, 0.2553711, -0.9360352, -28.4146347, 187.4390259, 81.2195129, 0.0908064
-0.7763672, 0.2387695, -0.9448242, -28.780489, 187.8048859, 80.9756088, 0.064622
-0.777832, 0.2382812, -0.9511719, -28.9634151, 188.1707306, 81.7682953, 0.0287022
-0.7856445, 0.2514648, -0.9633789, -29.0243912, 188.1097565, 82.68293, 0.0030213
-0.7866211, 0.2661133, -0.9750977, -28.7195129, 187.6219482, 83.4146347, -0.0095674
-0.7988281, 0.2856445, -0.9926758, -29.3902454, 187.6219482, 83.3536606, -0.0317235
-0.8061523, 0.2924805, -0.9926758, -30.3658543, 187.5609741, 83.5365906, -0.0746929
-0.7880859, 0.2924805, -0.9892578, -32.6829262, 187.2561035, 83.5365906, -0.1025559
-0.7744141, 0.2695312, -0.9926758, -33.9024391, 187.4390259, 83.0487823, -0.1334401
-0.7563477, 0.2128906, -1.0058594, -33.2926826, 187.6219482, 82.3780518, -0.1582818
-0.762207, 0.1953125, -1.0151367, -32.9878044, 186.8902435, 82.8048782, -0.1787594
-0.7773438, 0.2075195, -1.0083008, -32.9268303, 185.3048859, 85.0609741, -0.1898375
-0.7700195, 0.2568359, -0.9580078, -33.2926826, 184.9390259, 86.4024429, -0.2213931
-0.7485352, 0.2807617, -0.9448242, -33.4756088, 186.1585388, 87.8048782, -0.2366674
-0.7109375, 0.3149414, -0.965332, -33.7804871, 187.4390259, 87.68293, -0.2502632
-0.6918945, 0.3183594, -0.9838867, -33.7195129, 189.146347, 86.3414688, -0.2594949
-0.6831055, 0.3164062, -0.9946289, -34.0243912, 188.7804871, 86.0365906, -0.2767834
-0.668457, 0.3110352, -0.9775391, -35.4878044, 187.2561035, 85.6097565, -0.2764477
-0.6376953, 0.2875977, -0.9418945, -37.5609779, 188.2926941, 84.8170776, -0.2890364
-0.6254883, 0.2719727, -0.9501953, -38.2317085, 189.6951294, 84.3902435, -0.3096818
-0.6298828, 0.2490234, -0.987793, -37.6219521, 191.4024506, 84.5121994, -0.3093462
-0.6484375, 0.2485352, -0.996582, -37.2560997, 190.8536682, 85, -0.3022965
-0.659668, 0.2739258, -0.9560547, -37.0731697, 190.3048859, 86.4024429, -0.2915541
-0.6269531, 0.2841797, -0.9067383, -37.2560997, 190.8536682, 86.1585388, -0.2697337
-0.6044922, 0.2768555, -0.9287109, -37.4390259, 195.6097565, 84.3902435, -0.2418708
-0.6015625, 0.2460938, -1.0371094, -37.1951218, 197.86586, 83.7195129, -0.2230716
-0.6166992, 0.2348633, -1.074707, -37.0731697, 197.3780518, 84.4512253, -0.2099794
-0.6459961, 0.2197266, -1.0673828, -36.8292694, 195.3048859, 85.7926865, -0.1928588
-0.6518555, 0.2177734, -1.0341797, -37.2560997, 191.2804871, 87.6219559, -0.2019226
-0.6367188, 0.2387695, -0.9858398, -37.1951218, 192.2561035, 87.1341476, -0.173724
-0.6269531, 0.2539062, -0.9848633, -36.5853653, 193.9634247, 86.9512253, -0.1310903
-0.597168, 0.2709961, -1.0161133, -35.9756088, 195.4878082, 87.8658524, -0.1049058
-0.5820312, 0.2783203, -1.0288086, -36.0975609, 195.1219482, 88.1097565, -0.1008774
-0.5532227, 0.2802734, -1.0424805, -35.9146347, 193.8414612, 88.2317123, -0.0928206
-0.53125, 0.2617188, -1.059082, -35.7317085, 193.3536682, 88.0487823, -0.0892958
-0.5385742, 0.2485352, -1.0615234, -35, 192.1341553, 87.1341476, -0.0971847
-0.5532227, 0.2416992, -1.0385742, -34.3902435, 190.9756165, 86.8292694, -0.0817426
-0.5576172, 0.2485352, -1.027832, -32.9268303, 189.7561035, 87.3170776, -0.0696574
-0.5454102, 0.2641602, -1.0458984, -32.8048782, 190.36586, 87.68293, -0.0605936
-0.5444336, 0.2705078, -1.0620117, -32.1341476, 191.8902435, 88.9634171, -0.0518654
-0.5283203, 0.2700195, -1.0766602, -31.5853672, 190.6707306, 88.7195129, -0.0421302
-0.5170898, 0.2719727, -1.0688477, -31.9512196, 189.7561035, 88.5975647, -0.0632792
-0.4824219, 0.2817383, -1.0297852, -33.6585388, 189.2073212, 87.8658524, -0.0652934
-0.4643555, 0.2792969, -1.0166016, -33.6585388, 190.36586, 87.6219559, -0.0708324
-0.4331055, 0.2583008, -1.0327148, -32.0121956, 192.3780518, 86.8902435, -0.0918135
-0.4267578, 0.2412109, -1.0307617, -31.0365868, 192.1951294, 86.5853653, -0.1169909
-0.4291992, 0.2387695, -1.0146484, -30, 191.0975647, 85.9756088, -0.1344472
-0.4199219, 0.2387695, -0.9951172, -29.3902454, 191.8292694, 85.7926865, -0.1562676
-0.4228516, 0.2426758, -1.0048828, -28.0487804, 194.3902435, 85.0609741, -0.1930266
-0.4345703, 0.2700195, -1.043457, -27.7439022, 195.4268341, 85.4878082, -0.1928588
-0.4335938, 0.2910156, -1.0415039, -28.9634151, 196.0365906, 86.9512253, -0.219379
-0.3945312, 0.3144531, -1.0185547, -30.4878063, 196.4024506, 87.0731735, -0.2469062
-0.3759766, 0.3125, -1.0136719, -30.4878063, 197.6829376, 86.0365906, -0.2823224
-0.3632812, 0.2944336, -1.0317383, -30.4878063, 199.3292694, 82.9878082, -0.3127031
-0.3671875, 0.2856445, -1.0371094, -30, 199.6951294, 82.0731735, -0.325124
-0.3701172, 0.2636719, -1.0351562, -28.1707325, 199.6341553, 81.1585388, -0.3338521
-0.3657227, 0.2387695, -1.0576172, -27.1951218, 199.9390259, 81.0975647, -0.3439231
-0.3774414, 0.230957, -1.0722656, -27.0121956, 200.4878082, 81.5853653, -0.374136
-0.3955078, 0.2192383, -1.0800781, -26.9512196, 200.3048859, 82.2560959, -0.3848783
-0.3994141, 0.2290039, -1.0751953, -26.7073174, 198.8414612, 83.3536606, -0.3999847
-0.3994141, 0.2685547, -1.0507812, -26.5243912, 198.2317047, 84.146347, -0.40972
-0.3911133, 0.2871094, -1.0444336, -26.7073174, 198.8414612, 84.6951218, -0.4051881
-0.3520508, 0.3007812, -1.0507812, -26.8902454, 199.6951294, 83.7804871, -0.4058595
-0.3398438, 0.2958984, -1.065918, -26.7073174, 199.8170776, 82.8658524, -0.4385901
-0.340332, 0.2919922, -1.0727539, -26.5243912, 198.6585388, 81.646347, -0.455375
-0.3422852, 0.2875977, -1.0517578, -26.4634151, 197.2561035, 81.4024429, -0.4434577
-0.3305664, 0.2895508, -0.9755859, -26.1585369, 197.012207, 81.3414688, -0.411902
-0.2963867, 0.2666016, -0.9550781, -26.4024391, 198.2317047, 80.6707306, -0.3889067
-0.2836914, 0.2480469, -0.9804688, -24.0243912, 202.0731812, 79.4512177, -0.3620508
-0.2890625, 0.2285156, -1.0214844, -22.3780499, 202.3780518, 79.2073212, -0.3318379
-0.2988281, 0.2416992, -1.019043, -20.7317085, 200.2439117, 80.5487823, -0.3246204
-0.2998047, 0.2880859, -0.9633789, -20.6097565, 199.4512177, 81.646347, -0.2969253
-0.2836914, 0.3032227, -0.9453125, -21.5243912, 200.6707306, 82.1341476, -0.2469062
-0.2509766, 0.3110352, -0.9672852, -22.3170738, 203.9024506, 79.8780518, -0.2024262
-0.2431641, 0.3022461, -0.9946289, -22.439024, 204.7561035, 78.9024429, -0.173724
-0.2451172, 0.2856445, -1.0151367, -22.8658543, 202.86586, 78.4146347, -0.1226978
-0.2392578, 0.2797852, -1.0107422, -23.2926826, 201.2195129, 78.4146347, -0.1025559
-0.2211914, 0.265625, -0.9960938, -23.7195129, 200.4268341, 78.7195129, -0.0988632
-0.2358398, 0.2563477, -1.0004883, -23.3536587, 200.5487823, 78.4756088, -0.0720073
-0.2495117, 0.2553711, -1.0068359, -22.1951218, 199.3902435, 78.4756088, -0.0565652
-0.2734375, 0.2822266, -0.9995117, -22.439024, 198.3536682, 78.6585388, -0.040116
-0.2734375, 0.2944336, -0.9892578, -23.9024391, 197.1341553, 80.2439041, -0.0352483
-0.2368164, 0.2714844, -0.9575195, -24.1463413, 197.1951294, 80.5487823, -0.0374304
-0.2172852, 0.2587891, -0.9501953, -23.4146347, 197.2561035, 78.8414688, -0.04448
-0.2089844, 0.2548828, -0.9575195, -23.1097565, 196.2804871, 77.9878082, -0.0424659
-0.1992188, 0.262207, -0.953125, -23.5975609, 195.9756165, 78.4756088, -0.0379339
-0.1923828, 0.2836914, -0.9619141, -23.9024391, 195.36586, 79.7560959, -0.0542153
-0.1806641, 0.3105469, -0.9643555, -23.7195129, 195.0609741, 80.3658524, -0.0659648
-0.1713867, 0.3134766, -0.9389648, -22.560976, 193.5975647, 79.9390259, -0.0793927
-0.1362305, 0.2895508, -0.8793945, -21.8902435, 192.7439117, 78.5365906, -0.0911421
-0.1186523, 0.2612305, -0.8623047, -21.280489, 193.1097565, 74.8170776, -0.0923171
-0.097168, 0.2055664, -0.8422852, -21.280489, 194.512207, 73.7195129, -0.0983597
-0.0932617, 0.1879883, -0.8481445, -19.8780499, 196.5853729, 73.9024429, -0.1270619
-0.0991211, 0.1865234, -0.8916016, -18.0487804, 196.7682953, 75.2439041, -0.1804379
-0.1069336, 0.2119141, -0.9052734, -14.3902445, 195.6097565, 78.4756088, -0.2051118
-0.1181641, 0.2880859, -0.894043, -13.2317076, 193.6585388, 79.6951218, -0.2207218
-0.1186523, 0.3120117, -0.8857422, -13.7195129, 192.9268341, 78.9024429, -0.2435492
-0.105957, 0.3286133, -0.8608398, -14.8780489, 193.3536682, 75.7317123, -0.2613413
-0.0830078, 0.309082, -0.8349609, -15.060976, 193.6585388, 73.9634171, -0.2573129
-0.0703125, 0.2973633, -0.8129883, -15.9756098, 193.3536682, 72.0731735, -0.285008
-0.0151367, 0.2568359, -0.7558594, -16.2195129, 193.7195129, 71.0975647, -0.2982681
0.0097656, 0.2348633, -0.7441406, -14.8170738, 195.36586, 69.5121994, -0.3033036
0.034668, 0.2172852, -0.7734375, -13.6585369, 196.7682953, 69.1463394, -0.3080034
0.0307617, 0.21875, -0.8154297, -11.1585369, 197.7439117, 69.0853653, -0.3120317
0.0009766, 0.2495117, -0.8959961, -10.3048782, 196.5243988, 69.8170776, -0.2908827
-0.0258789, 0.2744141, -0.9086914, -10.3048782, 192.012207, 70.2439041, -0.297261
-0.0639648, 0.3178711, -0.8710938, -13.2317076, 187.6829376, 68.7804871, -0.3207599
-0.065918, 0.328125, -0.8295898, -14.6951227, 186.2195129, 67.5, -0.3090105
-0.0473633, 0.3178711, -0.784668, -16.9512196, 185.7926941, 64.6341476, -0.2868544
-0.003418, 0.2763672, -0.8125, -17.8048782, 186.4024506, 63.3536606, -0.2447242
0.0151367, 0.2631836, -0.8227539, -17.9878044, 185.3048859, 62.7439041, -0.2245823
0.0390625, 0.246582, -0.8334961, -18.4756107, 183.5975647, 62.9268303, -0.2015869
0.0419922, 0.2392578, -0.8378906, -18.780489, 181.0365906, 62.68293, -0.1827878
0.0224609, 0.2348633, -0.8383789, -18.5975609, 179.6951294, 62.1341476, -0.158114
0, 0.2382812, -0.8295898, -17.9878044, 176.4024506, 60.4878044, -0.1245441
-0.0424805, 0.2358398, -0.7954102, -17.2560978, 175, 59.6951218, -0.1025559
-0.0493164, 0.2255859, -0.7719727, -15.6097565, 173.5975647, 58.5975609, -0.0674754
-0.0449219, 0.2045898, -0.7216797, -12.8658543, 173.5365906, 57.7439041, -0.0287022
-0.0356445, 0.1967773, -0.7094727, -11.5853662, 173.6585388, 57.5, -0.0041962
-0.0063477, 0.184082, -0.730957, -10.6707315, 175.0609741, 57.4390259, 0.0149386
0.0004883, 0.1796875, -0.7626953, -10.4268293, 174.6341553, 57.68293, 0.0532082
0.0029297, 0.1757812, -0.7714844, -9.0853662, 169.6951294, 57.7439041, 0.0636149
0.0019531, 0.1884766, -0.7480469, -8.2926826, 166.5243988, 56.9512215, 0.0599222
-0.0019531, 0.2006836, -0.7236328, -7.3780489, 160.4878082, 54.5121956, 0.0757
-0.0004883, 0.2446289, -0.6616211, -6.9512196, 158.4146423, 53.4146347, 0.0948348
0.0097656, 0.2626953, -0.6289062, -6.0975609, 156.8292694, 51.5853653, 0.1045701
0.0625, 0.2675781, -0.597168, -5.4878049, 157.0121918, 51.0975609, 0.1198444
0.090332, 0.2539062, -0.6035156, -4.390244, 156.2804871, 48.3536606, 0.1495537
0.1225586, 0.1948242, -0.6147461, -5.4268293, 153.7195129, 44.7560997, 0.1253834
0.1308594, 0.1606445, -0.6230469, -5.670732, 151.4634247, 43.0487823, 0.1173266
0.109375, 0.1152344, -0.6044922, -5.3048782, 146.646347, 40.9756088, 0.1018845
0.059082, 0.1655273, -0.5268555, -5.4268293, 143.6585388, 40.6707344, 0.068986
0.0541992, 0.2236328, -0.4912109, -7.6219516, 141.2195129, 41.5243912, 0.0547189
0.1044922, 0.3198242, -0.4370117, -9.0853662, 142.7439117, 41.9512215, 0.0636149
0.1513672, 0.3320312, -0.4282227, -11.8292685, 146.9512177, 39.8780479, 0.0454871
0.2651367, 0.2905273, -0.4257812, -12.6219511, 147.9268341, 37.1341476, 0.0152743
0.3027344, 0.2470703, -0.4379883, -14.2682934, 148.2317047, 30, -0.012253
0.3188477, 0.1606445, -0.4833984, -14.8170738, 147.2561035, 25, -0.0256809
0.2998047, 0.1269531, -0.5112305, -14.5731707, 145.7926788, 24.5731716, -0.043473
0.2275391, 0.0898438, -0.5478516, -12.8658543, 141.2195129, 26.3414631, -0.0636149
0.1899414, 0.0888672, -0.5410156, -12.1341467, 138.5365906, 27.2560978, -0.0746929
0.1376953, 0.0883789, -0.4916992, -12.9268293, 133.9024353, 27.0121956, -0.0777142
0.1245117, 0.0942383, -0.4389648, -13.4756098, 132.6829224, 27.1341476, -0.0810712
0.137207, 0.1025391, -0.4370117, -11.8292685, 133.0487823, 28.4146347, -0.0767071
0.1845703, 0.1220703, -0.4521484, -10.4268293, 133.3536682, 30.3658543, -0.1032273
0.2280273, 0.1279297, -0.4501953, -7.8658538, 130.3048859, 34.0243912, -0.1092699
0.3081055, 0.1376953, -0.4179688, -7.8048782, 127.5609818, 34.0853653, -0.114641
0.331543, 0.1391602, -0.40625, -7.4390244, 124.3292694, 31.4024391, -0.1092699
0.3486328, 0.1396484, -0.4003906, -5.3048782, 122.0121994, 28.9024391, -0.0983597
0.3481445, 0.1416016, -0.4057617, -3.9024391, 119.9390259, 28.5975609, -0.0956741
0.3432617, 0.1503906, -0.4165039, -3.4146342, 115.5487823, 28.780489, -0.093492
0.3413086, 0.1464844, -0.3955078, -4.5121951, 113.5365906, 28.780489, -0.0909743
0.3623047, 0.1118164, -0.3793945, -4.5121951, 109.6341476, 27.8048782, -0.0542153
0.347168, 0.1064453, -0.4487305, -3.1097562, 107.68293, 27.1341476, -0.0297093
0.3291016, 0.128418, -0.4946289, -3.5365853, 101.5853653, 28.2317085, -0.005539
0.300293, 0.1992188, -0.5019531, -6.5853658, 97.3170776, 30.060976, 0.0256809
0.3134766, 0.2236328, -0.4526367, -12.8048782, 89.2682953, 33.2317085, 0.054551
0.3759766, 0.2329102, -0.3876953, -14.9390249, 85.8536606, 33.1707306, 0.051194
0.4106445, 0.21875, -0.3847656, -18.6585369, 81.1585388, 29.6341476, 0.0750286
0.4399414, 0.1987305, -0.3510742, -24.5731716, 76.2804871, 27.4390259, 0.1072557
0.4560547, 0.1767578, -0.3168945, -26.6463413, 73.8414688, 27.4390259, 0.1399863
0.5029297, 0.1210938, -0.2509766, -26.2195129, 69.8170776, 27.8658543, 0.1626459
0.5224609, 0.1015625, -0.2207031, -24.8170738, 67.7439041, 27.3170738, 0.1918517
0.5351562, 0.0688477, -0.1635742, -23.2926826, 65, 25.3658543, 0.1978943
0.5493164, 0.0288086, -0.1186523, -22.1951218, 64.3902435, 24.8780499, 0.1895018
0.5639648, 0.0092773, -0.1191406, -17.6219521, 63.4756126, 25.1219521, 0.2113222
0.5693359, 0.0078125, -0.1923828, -16.3414631, 62.3780518, 25.7317085, 0.2328069
0.5649414, 0.0170898, -0.2241211, -16.2195129, 59.1463432, 29.5121956, 0.2522774
0.5620117, 0.0444336, -0.2299805, -16.4024391, 56.2195129, 31.4024391, 0.2536202
0.5625, 0.0639648, -0.2172852, -15.7317076, 50.1219521, 33.1097565, 0.2455634
0.5771484, 0.0922852, -0.1552734, -14.6341467, 45.7317085, 31.280489, 0.2509346
0.5888672, 0.0976562, -0.1259766, -14.0853662, 44.4512215, 29.5731716, 0.2563058
0.6225586, 0.0976562, -0.1103516, -12.3780489, 43.2317085, 27.560976, 0.2620127
0.6416016, 0.0913086, -0.1259766, -11.4634151, 42.8658562, 27.4390259, 0.2264286
0.6645508, 0.0878906, -0.1933594, -11.0365858, 40.1829262, 28.4756107, 0.1983978
0.6791992, 0.0874023, -0.2543945, -10.9146347, 37.1951218, 28.780489, 0.1842985
0.6733398, 0.0854492, -0.2651367, -12.8048782, 30, 28.4756107, 0.1673457
0.6459961, 0.0844727, -0.2543945, -13.5365858, 26.7073174, 27.7439022, 0.1619745
0.6420898, 0.0810547, -0.2368164, -13.2317076, 20.7926826, 26.0975609, 0.1643244
0.6367188, 0.065918, -0.1865234, -12.9878054, 18.1097565, 25.3658543, 0.1126268
0.6396484, 0.0605469, -0.1713867, -10.7926836, 14.3292685, 24.2073174, 0.0750286
0.6386719, 0.0595703, -0.1884766, -7.8048782, 11.280488, 23.7195129, 0.0493477
0.6347656, 0.0678711, -0.2167969, -6.9512196, 8.9634151, 23.780489, 0.0320592
0.6357422, 0.1147461, -0.2578125, -8.1097565, 2.9878049, 24.5121956, 0.0078889
0.6455078, 0.1308594, -0.2548828, -9.6951218, 0.1219512, 24.3292694, 0.002182
0.6582031, 0.1455078, -0.2416992, -10.9756098, -5.4268293, 22.3780499, -0.0015106
0.6430664, 0.1479492, -0.2333984, -11.0365858, -8.4756098, 20.8536587, -0.0347448
0.6289062, 0.1523438, -0.2236328, -11.8902445, -16.4024391, 18.0487804, -0.0562295
0.6430664, 0.1269531, -0.1743164, -12.7439032, -19.7560978, 16.0975609, -0.068986
0.6606445, 0.1132812, -0.140625, -13.4146347, -22.2560978, 14.6951227, -0.0736858
0.7724609, 0.0605469, -0.0976562, -14.1463413, -23.8414631, 15.5487804, -0.0746929
0.8164062, 0.0307617, -0.0864258, -13.1097565, -26.0975609, 15.060976, -0.0713359
0.8413086, 0.0185547, -0.1201172, -11.8902445, -29.6951218, 12.560976, -0.0748608
0.8286133, 0.0380859, -0.1430664, -12.0121956, -32.1951218, 11.6463413, -0.0914778
0.7827148, 0.0991211, -0.1518555, -13.7195129, -37.6829262, 10.4878054, -0.0715038
0.7646484, 0.1289062, -0.1533203, -15.2439032, -39.3292694, 10.1829271, -0.0350805
0.7456055, 0.1611328, -0.144043, -18.2317085, -42.1951218, 8.9634151, -0.0097353
0.7387695, 0.1601562, -0.1245117, -19.939024, -43.4756126, 7.3780489, 0.0057069
0.7421875, 0.1533203, -0.1254883, -22.8048782, -46.0365868, 4.390244, -0.002182
0.7563477, 0.1396484, -0.1513672, -24.2073174, -46.7682953, 3.2317073, 0.0099031
0.7558594, 0.1313477, -0.1640625, -26.7682934, -48.9024391, 1.8902439, 0.049012
0.7490234, 0.1123047, -0.1689453, -28.2317085, -50.5487823, 1.6463414, 0.0871138
0.7602539, 0.0957031, -0.1523438, -30.1829281, -54.0853653, 0.3048781, 0.0936599
0.7841797, 0.078125, -0.1044922, -29.8170738, -57.68293, -1.9512196, 0.1171588
0.7851562, 0.0786133, -0.105957, -29.5731716, -58.4756126, -3.3536587, 0.1294118
0.7626953, 0.0883789, -0.1494141, -29.8780499, -59.5731735, -5.0609756, 0.1408255
0.7451172, 0.090332, -0.1811523, -30, -60.3658562, -5.2439027, 0.1549248
0.7138672, 0.0854492, -0.2241211, -29.1463413, -63.9024391, -5.609756, 0.1789273
0.6845703, 0.0722656, -0.2426758, -28.3536587, -66.4024429, -6.7073174, 0.1690242
0.6694336, 0.0644531, -0.2387695, -27.3170738, -71.7073212, -9.3902445, 0.1656672
0.6416016, 0.0610352, -0.2128906, -26.9512196, -73.6585388, -10.5487804, 0.1811093
0.6264648, 0.0576172, -0.1987305, -24.6341476, -76.5853653, -11.8292685, 0.1858091
0.6254883, 0.0615234, -0.1948242, -22.8048782, -77.9268341, -12.0121956, 0.191516
0.6264648, 0.0766602, -0.21875, -20.5487804, -80.4268341, -12.560976, 0.2015869
0.6152344, 0.125, -0.2592773, -20.7317085, -84.9390259, -12.8048782, 0.199237
0.621582, 0.152832, -0.2553711, -20.9756107, -86.2804871, -13.2926836, 0.1555962
0.6245117, 0.2148438, -0.2290039, -22.560976, -88.8414688, -14.2682934, 0.1273976
0.6420898, 0.2319336, -0.2202148, -23.8414631, -90.4878082, -15, 0.1045701
0.6914062, 0.2236328, -0.2202148, -26.9512196, -92.5609741, -19.3292694, 0.0777142
0.6826172, 0.1967773, -0.2680664, -29.0243912, -92.9878082, -22.1951218, 0.0495155
0.6674805, 0.1860352, -0.300293, -32.8658562, -96.4634171, -26.5243912, 0.0495155
0.6245117, 0.171875, -0.3164062, -34.5121956, -99.4512253, -27.4390259, 0.0102388
0.6035156, 0.1767578, -0.3095703, -36.4634171, -104.2682953, -28.1097565, -0.0451514
0.5668945, 0.2075195, -0.3017578, -36.7682953, -106.3414688, -27.9878063, -0.0681468
0.5629883, 0.2226562, -0.3105469, -39.6951218, -110.0609818, -28.1097565, -0.0834211
0.5634766, 0.2265625, -0.3168945, -44.0853653, -113.1707306, -29.4512196, -0.0889601
0.5605469, 0.2143555, -0.3115234, -46.1585388, -114.9390259, -31.0975609, -0.1059129
0.5859375, 0.1762695, -0.3305664, -48.7195129, -116.4024429, -34.7560997, -0.1253834
0.5327148, 0.1704102, -0.4262695, -50.1219521, -114.4512253, -36.0975609, -0.1465324
0.4916992, 0.1625977, -0.3515625, -55.1219521, -124.146347, -32.9268303, -0.164828
0.5737305, 0.0864258, -0.1699219, -54.8780518, -130.4268341, -31.5243912, -0.1807736
0.6386719, 0.034668, -0.0952148, -45, -130.9146423, -36.0975609, -0.219379
0.6381836, -0.0092773, -0.1054688, -38.7195129, -127.1341476, -41.2195129, -0.230457
0.6035156, 0.0170898, -0.1914062, -34.1463432, -123.2317123, -45.6097565, -0.2224002
0.5302734, 0.0834961, -0.2792969, -35.1829262, -122.86586, -42.8658562, -0.2210575
0.5224609, 0.121582, -0.269043, -34.0853653, -127.3780518, -33.5365868, -0.2210575
0.5522461, 0.1865234, -0.2714844, -28.9634151, -131.4634247, -31.2195129, -0.2083009
0.5561523, 0.2143555, -0.2827148, -28.1097565, -132.0731812, -33.6585388, -0.2012512
0.5195312, 0.2451172, -0.3232422, -31.5853672, -133.9024353, -40.4878044, -0.1754025
0.4853516, 0.2241211, -0.3374023, -33.7804871, -135.0609741, -42.8048782, -0.1374685
0.4755859, 0.1992188, -0.3408203, -34.0243912, -136.7682953, -45, -0.110277
0.4638672, 0.15625, -0.4057617, -31.5243912, -137.8048859, -45.7317085, -0.0726787
0.4487305, 0.1533203, -0.4462891, -27.6219521, -141.0975647, -45.9146347, -0.0354162
0.4013672, 0.1767578, -0.4726562, -27.1951218, -144.2682953, -45.6097565, 0.0209812
0.3881836, 0.1933594, -0.4609375, -28.4146347, -150.8536682, -44.8170738, 0.0384375
0.3911133, 0.2133789, -0.4326172, -28.5365868, -152.9268341, -44.6951218, 0.0599222
0.390625, 0.2158203, -0.4335938, -27.1951218, -153.0487823, -46.7073174, 0.0862745
0.3803711, 0.2109375, -0.4389648, -25, -153.9634247, -49.6951218, 0.1092699
0.3857422, 0.2036133, -0.4335938, -24.5121956, -155.4268341, -51.2804909, 0.1230335
0.3930664, 0.1762695, -0.4423828, -22.560976, -159.0243988, -54.2073174, 0.1483787
0.3862305, 0.1640625, -0.4790039, -20, -160.1829376, -54.8170738, 0.1461967
0.3833008, 0.171875, -0.512207, -13.1097565, -163.6585388, -53.5975609, 0.1374685
0.3637695, 0.2075195, -0.5405273, -10, -165.8536682, -52.6829262, 0.1495537
0.3500977, 0.2246094, -0.5180664, -7.9878049, -170.9756165, -53.5365868, 0.1445182
0.3305664, 0.2475586, -0.4091797, -8.1097565, -173.0487823, -55.6097565, 0.1488823
0.3369141, 0.2387695, -0.3520508, -9.8170738, -172.3780518, -61.0365868, 0.1498894
0.3706055, 0.1806641, -0.3217773, -9.5121956, -170.4268341, -64.0853653, 0.1555962
0.3881836, 0.1411133, -0.3505859, -6.0975609, -165.4878082, -67.8048782, 0.1495537
0.394043, 0.0859375, -0.4418945, -0.0609756, -164.6951294, -67.4390259, 0.1441825
0.3803711, 0.081543, -0.4882812, 2.5, -166.3414612, -65.6097565, 0.1216907
0.340332, 0.1225586, -0.5629883, 4.1463413, -171.8902435, -61.7073174, 0.0803998
0.293457, 0.2104492, -0.6289062, 4.3292685, -173.9024506, -60.3658562, 0.0656291
0.2631836, 0.2612305, -0.6660156, 4.4512196, -178.9024506, -59.8780518, 0.0459907
0.1816406, 0.3383789, -0.7290039, 4.0853658, -182.0731812, -60.9756126, 0.0206455
0.1416016, 0.3725586, -0.7451172, 1.7682927, -189.3902435, -63.9024391, -0.0068818
0.0864258, 0.3974609, -0.7670898, -0.6707317, -192.86586, -65.7317123, -0.0283665
0.0654297, 0.3964844, -0.7636719, -7.3170733, -197.7439117, -68.7195129, -0.0552224
0.0581055, 0.3793945, -0.7246094, -10.6097565, -199.146347, -69.8170776, -0.0894636
0.0698242, 0.3657227, -0.7036133, -16.3414631, -201.1585388, -71.5243912, -0.0948348
0.1264648, 0.328125, -0.6650391, -20.4878044, -202.1951294, -73.6585388, -0.1028916
0.15625, 0.3066406, -0.6499023, -21.5853672, -202.1951294, -74.4512177, -0.1169909
0.1914062, 0.2597656, -0.5864258, -20.9146347, -203.0487823, -77.4390259, -0.1166552
0.2089844, 0.2514648, -0.4833984, -20.7926826, -203.7195129, -78.6585388, -0.1070878
0.2202148, 0.2543945, -0.4614258, -22.1951218, -202.3170776, -80.3048782, -0.1398184
0.2353516, 0.2568359, -0.5063477, -23.3536587, -199.8170776, -80.4268341, -0.1559319
0.2285156, 0.2504883, -0.5708008, -24.0853672, -194.0243988, -79.4512177, -0.1566033
0.1894531, 0.2490234, -0.6855469, -23.9024391, -193.2317047, -78.2926865, -0.1532464
0.15625, 0.2626953, -0.7080078, -24.0853672, -197.6829376, -77.0731735, -0.152575
0.1035156, 0.2700195, -0.6826172, -27.0121956, -203.5975647, -78.7804871, -0.1250477
0.0834961, 0.253418, -0.6645508, -28.0487804, -204.4512177, -80.6707306, -0.1196765
0.0395508, 0.1992188, -0.6459961, -26.5853672, -202.2561035, -85.8536606, -0.1176623
0.0024414, 0.1811523, -0.6425781, -24.2682934, -201.4634247, -87.3780518, -0.079057
-0.0698242, 0.1743164, -0.6269531, -21.7073174, -201.1585388, -86.3414688, -0.057908
-0.0771484, 0.1879883, -0.6264648, -21.4024391, -200.5487823, -84.3902435, -0.0323949
-0.059082, 0.1850586, -0.6606445, -20.1829281, -196.7682953, -80.6707306, -0.0179599
-0.0390625, 0.1816406, -0.8085938, -17.6219521, -195, -79.0853653, 0.0008392
-0.0541992, 0.1884766, -0.8779297, -10.4878054, -197.4390259, -78.2926865, 0.0253452
-0.1337891, 0.2456055, -0.9584961, -8.2926826, -201.8902435, -78.5365906, 0.0641184
-0.1787109, 0.2763672, -1.0053711, -8.719512, -212.6829376, -80.7926865, 0.1015488
-0.2905273, 0.3486328, -1.1420898, -12.7439032, -219.0243988, -82.2560959, 0.0951705
-0.3608398, 0.3876953, -1.2045898, -14.3902445, -222.2561035, -81.9512177, 0.1038987
-0.484375, 0.4799805, -1.2089844, -19.3902435, -234.9390259, -80.4268341, 0.1169909
-0.5039062, 0.5302734, -1.1347656, -23.5975609, -241.646347, -80.3658524, 0.1367971
-0.4116211, 0.5922852, -0.8901367, -35.2439041, -245.6097565, -83.6585388, 0.1482109
-0.2016602, 0.5322266, -0.8027344, -40.1219521, -241.2195129, -87.1951218, 0.1757382
-0.1108398, 0.4697266, -0.84375, -42.5, -228.23172, -94.0243912, 0.1807736
-0.0083008, 0.3417969, -0.9165039, -40.2439041, -226.5243988, -96.2804871, 0.1654994
0.0249023, 0.3061523, -0.8847656, -38.5365868, -234.3292694, -96.9512253, 0.1683528
0.0795898, 0.2753906, -0.7021484, -40.7926826, -238.9024506, -97.0731735, 0.1764096
0.1020508, 0.2661133, -0.6318359, -45.7926826, -236.0365906, -99.0243912, 0.1851377
0.0839844, 0.237793, -0.6552734, -43.2926826, -223.4146423, -100.6707306, 0.1807736
0.0351562, 0.2353516, -0.7128906, -38.6585388, -220.2439117, -101.0365906, 0.1755703
-0.0913086, 0.2695312, -0.8125, -33.841465, -223.4756165, -100.4878082, 0.1166552
-0.1508789, 0.300293, -0.8100586, -34.5731697, -225.5487823, -100.3658524, 0.0911421
-0.2197266, 0.3261719, -0.7407227, -38.2926826, -223.4756165, -101.8902435, 0.0822461
-0.2392578, 0.3164062, -0.6826172, -37.6829262, -219.2682953, -103.4756088, 0.0710002
-0.2407227, 0.3046875, -0.6801758, -32.9268303, -210.6097565, -105.9146347, 0.0548867
-0.2089844, 0.2983398, -0.7182617, -30.9756107, -207.6829376, -106.646347, 0.0481727
-0.184082, 0.3041992, -0.7285156, -32.2560997, -203.9024506, -105.8536606, 0.0075532
-0.1196289, 0.3144531, -0.7348633, -35.3048782, -201.7073212, -105.1219559, -0.0498512
-0.0869141, 0.3110352, -0.7441406, -42.6219521, -197.3170776, -102.9878082, -0.0686503
-0.0571289, 0.2900391, -0.8496094, -45.1219521, -194.512207, -102.7439041, -0.0881209
-0.0722656, 0.2758789, -0.9638672, -44.9390259, -195.4878082, -103.3536606, -0.0936599
-0.2011719, 0.2729492, -1.2270508, -42.6219521, -203.0487823, -106.0365906, -0.1163195
-0.3227539, 0.2973633, -1.3388672, -41.8292694, -210.4268341, -107.5, -0.1374685
-0.6201172, 0.390625, -1.5585938, -39.3902435, -226.3414612, -108.3536606, -0.144686
-0.9160156, 0.503418, -1.6860352, -38.6585388, -234.2073212, -107.7439041, -0.1467002
-1.0385742, 0.5605469, -1.65625, -39.5731735, -254.3902435, -104.5121994, -0.1539178
-1.1049805, 0.6435547, -1.3676758, -42.0731735, -266.7683105, -103.1707306, -0.1896696
-1.0112305, 0.652832, -1.1479492, -51.341465, -279.0853577, -105.6097565, -0.1945373
-0.6401367, 0.5385742, -0.8286133, -56.5243912, -274.6341553, -110, -0.194873
-0.4472656, 0.4296875, -0.7954102, -62.0731735, -248.0487823, -119.8170776, -0.1901732
-0.1479492, 0.2104492, -0.8632812, -57.6219521, -230.9146423, -118.8414688, -0.1831235
-0.0449219, 0.128418, -0.8823242, -52.3170738, -232.012207, -114.0243912, -0.1418326
0.0888672, 0.097168, -0.8237305, -41.9512215, -240.36586, -104.5731735, -0.1300832
0.1044922, 0.1376953, -0.7568359, -37.9268303, -241.5853729, -104.0243912, -0.1267262
-0.0107422, 0.2719727, -0.6289062, -32.8658562, -234.2073212, -111.5853653, -0.1050736
-0.2358398, 0.3789062, -0.5498047, -31.1585369, -228.4146423, -116.7073212, -0.1049058
-0.3286133, 0.3984375, -0.5507812, -29.5731716, -217.6829376, -122.7439041, -0.0844282
-0.4047852, 0.362793, -0.5986328, -30.3658543, -211.7073212, -122.86586, -0.0391089
-0.4052734, 0.3251953, -0.6513672, -33.1707306, -198.8414612, -117.86586, -0.0035248
-0.3857422, 0.2587891, -0.809082, -33.7195129, -193.5975647, -113.5975647, 0.002182
-0.3891602, 0.2563477, -0.8876953, -31.5853672, -188.5365906, -105.6097565, 0.0182956
-0.4536133, 0.3076172, -0.9672852, -28.780489, -193.5975647, -102.9878082, 0.0372625
-0.5019531, 0.3579102, -0.96875, -28.5975609, -197.5609741, -104.2682953, 0.0508583
-0.612793, 0.4526367, -1.019043, -32.2560997, -201.8902435, -108.8414688, 0.0629435
-0.6821289, 0.4838867, -1.1005859, -34.2073174, -201.5243988, -110.6707306, 0.0830854
-0.8515625, 0.519043, -1.3154297, -36.7073174, -202.5609741, -110.6707306, 0.0607614
-1.03125, 0.5571289, -1.4794922, -37.1341476, -206.9512177, -109.3902435, 0.0330663
-1.0976562, 0.5825195, -1.5126953, -40.3048782, -222.9878082, -106.0365906, 0.0569009
-1.1367188, 0.5922852, -1.4521484, -43.0487823, -231.7682953, -105.0609818, 0.0651255
-1.1088867, 0.5727539, -1.3549805, -49.2682953, -244.8170776, -107.3780518, 0.0803998
-0.9833984, 0.4814453, -1.1206055, -52.0121956, -247.6219635, -110.36586, 0.0763714
-0.9033203, 0.4179688, -1.0444336, -55.5487823, -244.0853729, -116.8292694, 0.0629435
-0.7768555, 0.3007812, -1.0004883, -54.9390259, -233.7804871, -117.68293, 0.0428016
-0.7353516, 0.2568359, -1.003418, -52.9878044, -231.0365906, -114.6951218, 0.0166171
-0.6767578, 0.2026367, -0.984375, -47.2560997, -231.5853729, -106.7682953, 0.0082246
-0.6508789, 0.1831055, -0.9453125, -44.1463432, -233.0487823, -104.146347, -0.0236667
-0.6279297, 0.171875, -0.8364258, -40.2439041, -232.6829376, -102.8658524, -0.0297093
-0.6552734, 0.2011719, -0.7475586, -39.2073174, -229.7561035, -102.6219559, -0.0407874
-0.6796875, 0.2177734, -0.722168, -37.8658562, -220.4878082, -99.5731735, -0.0663005
-0.7021484, 0.2695312, -0.7358398, -36.7682953, -215.36586, -96.2195129, -0.0924849
-0.7104492, 0.2963867, -0.784668, -34.5731697, -207.3170776, -88.5975647, -0.1139696
-0.7480469, 0.3579102, -0.902832, -33.0487823, -204.512207, -85.2439041, -0.1498894
-0.7973633, 0.394043, -0.9360352, -29.5121956, -203.0487823, -81.8292694, -0.181445
-0.9150391, 0.4750977, -0.8925781, -26.280489, -206.0365906, -82.6219559, -0.1978943
-0.9545898, 0.5083008, -0.8276367, -25.6097565, -206.2195129, -84.7560959, -0.2113222
-0.9755859, 0.515625, -0.6928711, -28.0487804, -198.7195129, -90.9756088, -0.2173648
-0.9506836, 0.4892578, -0.6831055, -30.9146347, -191.4024506, -93.7804871, -0.2227359
-0.90625, 0.3828125, -0.8466797, -34.3292694, -174.5121918, -95.9756088, -0.2217288
-0.9438477, 0.2949219, -1.074707, -33.7195129, -170.0609741, -94.3902435, -0.2465705
-0.9946289, 0.2900391, -1.1342773, -26.8292694, -174.8780518, -87.3780518, -0.2415351
-1.1064453, 0.3720703, -1.1074219, -22.6829281, -181.7682953, -84.0243912, -0.2368353
-1.1381836, 0.4355469, -1.0263672, -18.8414631, -192.7439117, -80.7317123, -0.248249
-1.1269531, 0.5419922, -0.8300781, -20.1219521, -193.8414612, -81.9512177, -0.2479133
-1.0869141, 0.5610352, -0.7719727, -29.2682934, -183.5365906, -88.2926865, -0.2156863
-0.9819336, 0.5170898, -0.7724609, -39.7560997, -165.7926941, -93.6585388, -0.1983978
-0.9384766, 0.4697266, -0.8007812, -43.6585388, -160.1829376, -94.5121994, -0.1821164
-0.8618164, 0.3569336, -0.8374023, -47.7439041, -157.1951294, -91.646347, -0.1606317
-0.7944336, 0.2910156, -0.8022461, -48.1707344, -157.5609741, -88.7804871, -0.1421683
-0.7729492, 0.2749023, -0.7631836, -48.5365868, -157.5, -85.0609741, -0.1163195
-0.7724609, 0.277832, -0.6757812, -49.5731735, -155.9756165, -84.7560959, -0.103563
-0.7817383, 0.2880859, -0.6557617, -51.1585388, -150.9146423, -85.4268341, -0.0780499
-0.8198242, 0.2939453, -0.7319336, -51.7682953, -146.8902435, -86.1585388, -0.0525368
-0.8544922, 0.284668, -0.8183594, -49.9390259, -140.1829376, -85.9756088, -0.0219883
-0.9663086, 0.2636719, -1.0253906, -47.6219521, -140.1829376, -84.6951218, 0.0109102
-1.0361328, 0.2626953, -1.1137695, -42.8048782, -146.7073212, -81.2195129, 0.0095674
-1.1870117, 0.296875, -1.1679688, -39.1463432, -159.0853729, -77.3170776, 0.0270237
-1.2421875, 0.3198242, -1.121582, -38.4756088, -165.6097565, -76.3414688, 0.0461585
-1.2636719, 0.3642578, -0.9243164, -39.5121956, -172.3170776, -76.0365906, 0.0575723
-1.1645508, 0.3657227, -0.769043, -39.8780479, -170.5487823, -77.1341476, 0.0726787
-1.0986328, 0.3442383, -0.7495117, -39.6951218, -159.0243988, -80.4878082, 0.0971847
-0.9887695, 0.3007812, -0.7998047, -38.2317085, -153.7195129, -81.2195129, 0.0944991
-0.9580078, 0.2929688, -0.8486328, -33.2926826, -150.2439117, -79.0853653, 0.0877852
-0.9272461, 0.3334961, -0.9204102, -31.1585369, -151.5243988, -76.7073212, 0.1038987
-0.9243164, 0.3691406, -0.9077148, -29.3902454, -156.5853729, -72.8048782, 0.1018845
-0.9355469, 0.4350586, -0.8056641, -30.1219521, -158.7804871, -72.5609741, 0.0924849
-0.9311523, 0.449707, -0.7285156, -35.5487823, -159.2682953, -76.8902435, 0.0882887
-0.9101562, 0.4223633, -0.6015625, -42.5, -151.9512177, -83.3536606, 0.0787213
-0.8964844, 0.3818359, -0.5800781, -44.4512215, -146.0365906, -85.18293, 0.0345769
-0.878418, 0.300293, -0.6147461, -44.7560997, -136.4024353, -84.6341476, 0.0213169
-0.8911133, 0.25, -0.7226562, -42.5609779, -133.4756165, -82.5, 0.0132601
-0.8994141, 0.25, -0.7734375, -38.7804871, -133.2926788, -77.7439041, -0.0048676
-0.9560547, 0.2753906, -0.84375, -37.2560997, -134.8170776, -76.2195129, -0.0307164
-0.9980469, 0.2915039, -0.8481445, -36.6463432, -138.4756165, -76.2804871, -0.0458228
-1.0634766, 0.3320312, -0.7866211, -37.0121956, -140.3048859, -77.1951218, -0.0696574
-1.0791016, 0.3486328, -0.7348633, -39.3292694, -141.3414612, -78.9634171, -0.1159838
-1.0473633, 0.3530273, -0.6665039, -40.1219521, -139.8780518, -79.2682953, -0.1285725
-1.0185547, 0.3447266, -0.6772461, -40.0609779, -133.3536682, -78.4756088, -0.1324331
-0.9819336, 0.3364258, -0.7480469, -36.1585388, -129.2682953, -77.0121994, -0.1361257
-0.9746094, 0.3408203, -0.7817383, -33.4146347, -130.4878082, -76.7073212, -0.1379721
-0.984375, 0.371582, -0.7998047, -30.3048782, -135.5487823, -76.4634171, -0.1498894
-0.9892578, 0.3994141, -0.734375, -30.3048782, -137.5, -77.8658524, -0.1673457
-0.987793, 0.4013672, -0.6923828, -33.9024391, -137.6829376, -81.2195129, -0.1733883
-0.9648438, 0.3666992, -0.6137695, -36.1585388, -135.6707306, -82.68293, -0.1562676
-0.9443359, 0.3374023, -0.6015625, -38.4756088, -130.6097565, -84.146347, -0.1764096
-0.9077148, 0.2519531, -0.6743164, -38.1707344, -127.5, -84.146347, -0.1801022
-0.9125977, 0.2158203, -0.7529297, -33.9024391, -125.1219559, -82.9268341, -0.1764096
-0.9902344, 0.1884766, -0.894043, -31.7682934, -127.0731735, -82.1951218, -0.1626459
-1.0488281, 0.2045898, -0.9262695, -27.0731716, -135.8536682, -79.8170776, -0.1351186
-1.1601562, 0.265625, -0.8754883, -23.780489, -145.7317047, -77.9878082, -0.0995346
-1.1943359, 0.3022461, -0.8227539, -23.3536587, -148.5365906, -78.0487823, -0.0965133
-1.199707, 0.3632812, -0.7216797, -24.3902435, -147.5609741, -78.5975647, -0.100206
-1.1347656, 0.3798828, -0.6694336, -25.8536587, -145, -78.4756088, -0.0736858
-1.0878906, 0.3735352, -0.6586914, -29.6341476, -140.36586, -77.0731735, -0.0391089
-0.9731445, 0.3344727, -0.6601562, -31.0975609, -139.2073212, -76.3414688, 0.0065461
-0.9277344, 0.3105469, -0.671875, -32.1951218, -137.8048859, -76.2804871, 0.0582437
-0.9008789, 0.2739258, -0.7094727, -30.6707325, -138.0487823, -76.7073212, 0.1045701
-0.9194336, 0.2700195, -0.7329102, -25.6097565, -140.7926788, -78.7804871, 0.1099413
-1.0014648, 0.2856445, -0.7470703, -21.0365868, -145.8536682, -80.7926865, 0.1260548
-1.046875, 0.3017578, -0.7363281, -20.1219521, -147.8048859, -81.3414688, 0.1468681
-1.1142578, 0.3334961, -0.6875, -20.4268303, -149.0853729, -81.0365906, 0.1675135
-1.1186523, 0.3417969, -0.6552734, -21.1585369, -147.9268341, -80.4268341, 0.1797665
-1.0898438, 0.3500977, -0.590332, -22.8658543, -144.9390259, -78.7195129, 0.21149
-1.0219727, 0.3325195, -0.5561523, -23.5365868, -143.1707306, -77.7439041, 0.216022
-0.9829102, 0.3168945, -0.5600586, -22.439024, -138.7195129, -77.9878082, 0.2049439
-0.9643555, 0.2963867, -0.6049805, -21.0365868, -137.1951294, -78.6585388, 0.2146792
-0.9785156, 0.2958984, -0.6391602, -17.0121956, -137.0121918, -80.6097565, 0.2294499
-1.0537109, 0.331543, -0.6875, -15.060976, -137.6829376, -81.3414688, 0.2385138
-1.0996094, 0.3535156, -0.6962891, -12.3170738, -139.8170776, -82.2560959, 0.216022
-1.1713867, 0.3886719, -0.6796875, -11.9512196, -141.2195129, -83.1707306, 0.1905089
-1.1894531, 0.3935547, -0.6591797, -13.2317076, -140.9756165, -84.0243912, 0.1576104
-1.1850586, 0.3662109, -0.5927734, -16.8292694, -137.9878082, -85.18293, 0.1426719
-1.1655273, 0.3447266, -0.5546875, -17.8658543, -135.4268341, -85.5487823, 0.1502251
-1.105957, 0.2890625, -0.5053711, -19.1463413, -130.1219482, -84.9390259, 0.117998
-1.0522461, 0.2563477, -0.5117188, -19.0853672, -127.0731735, -84.146347, 0.0965133
-1.0332031, 0.2485352, -0.5263672, -17.8658543, -122.8048782, -82.7439041, 0.0683146
-1.0273438, 0.2631836, -0.5576172, -17.2560978, -122.0731735, -82.0121994, 0.0354162
-1.0390625, 0.2739258, -0.5688477, -17.7439022, -122.0731735, -81.4024429, 0.0075532
-1.0634766, 0.2958984, -0.5751953, -17.7439022, -121.7682953, -81.5243912, 0.0035248
-1.0786133, 0.2988281, -0.5727539, -18.5365849, -121.646347, -82.1341476, -0.018967
-1.1044922, 0.3041992, -0.5878906, -19.1463413, -120.6707382, -82.6219559, -0.0505226
-1.1171875, 0.2973633, -0.6049805, -19.2073174, -120.4878082, -82.68293, -0.0605936
-1.1474609, 0.2792969, -0.6416016, -18.5975609, -121.2804871, -81.8902435, -0.0652934
-1.159668, 0.2700195, -0.65625, -18.0487804, -122.5609818, -81.646347, -0.0783856
-1.1879883, 0.2573242, -0.6923828, -16.8292694, -125.5487823, -81.2195129, -0.093492
-1.2260742, 0.2338867, -0.7617188, -15.060976, -126.7073212, -80.8536606, -0.0921492
-1.2485352, 0.2241211, -0.7807617, -10.9146347, -130.4878082, -80.0609741, -0.1089342
-1.2817383, 0.2094727, -0.7734375, -9.0853662, -134.146347, -79.2682953, -0.1203479
-1.2773438, 0.2109375, -0.7319336, -7.2560978, -140.7926788, -77.8048782, -0.1201801
-1.246582, 0.234375, -0.6166992, -7.1341467, -142.1341553, -76.9512177, -0.1156481
-1.2148438, 0.25, -0.5541992, -6.6463418, -141.0365906, -74.8170776, -0.0955062
-1.1162109, 0.2768555, -0.4770508, -7.0121951, -136.5853729, -72.3170776, -0.0505226
-1.0668945, 0.2797852, -0.4545898, -7.3780489, -134.0853729, -71.5243912, -0.0297093
-0.9848633, 0.2749023, -0.4267578, -7.8658538, -130.4878082, -71.4024429, -0.0330663
-0.9638672, 0.2734375, -0.4169922, -7.9268293, -128.5975647, -71.6463394, -0.0182956
-0.9677734, 0.2670898, -0.394043, -7.2560978, -125.9146347, -72.6219559, -0.0031891
-1.0043945, 0.2612305, -0.3833008, -6.2195125, -123.9634171, -73.2317123, 0.0243381
-1.0244141, 0.269043, -0.3911133, -5.7317076, -119.6341476, -73.7804871, 0.0495155
-1.0629883, 0.2836914, -0.4350586, -5.5487804, -117.0731735, -73.5975647, 0.070161
-1.0800781, 0.2885742, -0.4560547, -6.3414636, -112.6219559, -72.5609741, 0.0827497
-1.1005859, 0.3066406, -0.4790039, -6.7682929, -111.3414688, -71.3414688, 0.1032273
-1.0991211, 0.3139648, -0.4746094, -7.3780489, -109.7561035, -70.1219559, 0.1178302
-1.0908203, 0.3300781, -0.4711914, -8.2926826, -108.1707306, -70.2439041, 0.1065843
-1.0844727, 0.3208008, -0.4799805, -9.0243902, -107.5, -70.4268341, 0.1139696
-1.0874023, 0.2836914, -0.5239258, -9.4512196, -106.2195129, -70.9146347, 0.1287404
-1.0976562, 0.2646484, -0.5517578, -8.9024391, -106.2804871, -70.6097565, 0.1430076
-1.1391602, 0.2207031, -0.5771484, -6.7682929, -109.0243912, -70.8536606, 0.1441825
-1.1821289, 0.1958008, -0.5644531, -5.609756, -110.4268341, -70.3658524, 0.1693599
-1.1992188, 0.1904297, -0.5454102, -4.0243902, -111.7682953, -69.1463394, 0.1582818
-1.1938477, 0.1811523, -0.4936523, -3.7195122, -111.2195129, -68.5365906, 0.1431754
-1.1723633, 0.1728516, -0.4658203, -3.2317073, -109.3902435, -65.9146347, 0.1337758
-1.1176758, 0.1591797, -0.4326172, -2.9268293, -107.68293, -64.4512177, 0.1132982
-1.0952148, 0.1616211, -0.4331055, -1.2195122, -104.3902435, -61.4634171, 0.0783856
-1.0668945, 0.1826172, -0.4643555, 1.7073171, -101.8292694, -58.7804909, 0.0592508
-1.0629883, 0.1972656, -0.4863281, 2.9878049, -101.8902435, -57.8658562, 0.0428016
-1.0800781, 0.2319336, -0.5185547, 4.6951222, -103.1707306, -57.5, 0.0083925
-1.0942383, 0.2426758, -0.5180664, 5.1829271, -103.9024429, -57.9878044, -0.01561
-1.1274414, 0.2675781, -0.4907227, 4.6951222, -104.5121994, -59.0853691, -0.0276951
-1.1347656, 0.2724609, -0.440918, 3.6585367, -103.4146347, -59.1463432, -0.0666361
-1.128418, 0.2744141, -0.4189453, 2.6829269, -100.6097565, -57.7439041, -0.0941634
-1.0825195, 0.2695312, -0.3813477, 2.0121951, -98.7804871, -56.7682953, -0.1082628
-1.0600586, 0.2636719, -0.3735352, 1.5243902, -95.1219559, -55.18293, -0.1366293
-1.0175781, 0.2543945, -0.3647461, 1.1585366, -93.4756088, -54.7560997, -0.1764096
-1.0024414, 0.2446289, -0.3603516, 0.1829268, -90.0609741, -55.2439041, -0.1884947
-0.9931641, 0.2314453, -0.3554688, -0.3658537, -86.8902435, -55.7926826, -0.2002441
-1.0004883, 0.2294922, -0.3647461, -0.1219512, -85.2439041, -56.0365868, -0.2076295
-1.0195312, 0.2324219, -0.3857422, 1.3414634, -82.4390259, -55.7317085, -0.2224002
-1.0336914, 0.2358398, -0.3989258, 1.8292683, -81.5243912, -55.0609779, -0.2479133
-1.0668945, 0.2485352, -0.4248047, 1.8902439, -80.18293, -54.3292694, -0.2613413
-1.0786133, 0.2617188, -0.4345703, 1.0365853, -79.6951218, -54.1463432, -0.2532845
-1.0854492, 0.2583008, -0.434082, 0.1829268, -78.3536606, -53.7195129, -0.2465705
-1.0820312, 0.2421875, -0.4208984, -0.5487805, -77.5, -53.4146347, -0.2751049
-1.0795898, 0.2299805, -0.4150391, -1.402439, -76.0975647, -52.8048782, -0.2697337
-1.0664062, 0.2075195, -0.3945312, -2.3170731, -75.0609741, -52.5, -0.2415351
-1.0595703, 0.1982422, -0.3930664, -2.7439024, -72.0121994, -51.5243912, -0.2151827
-1.0478516, 0.1835938, -0.4057617, -2.3780489, -69.3902435, -50.3048782, -0.1955444
-1.0488281, 0.1831055, -0.4150391, -2.0121951, -68.4146347, -49.5731735, -0.1660029
-1.0541992, 0.1953125, -0.4423828, -0.6097561, -67.68293, -48.5975609, -0.1589532
-1.0688477, 0.2084961, -0.4838867, -0.1829268, -67.1951218, -48.2926826, -0.1579461
-1.0791016, 0.2124023, -0.503418, 0.8536586, -67.7439041, -47.4390259, -0.1257191
-1.1035156, 0.2041016, -0.5126953, 1.5243902, -68.9024429, -47.1951218, -0.1025559
-1.1015625, 0.1943359, -0.5, 1.402439, -71.0975647, -46.5243912, -0.0726787
-1.0922852, 0.1591797, -0.4677734, 1.2195122, -71.8292694, -46.1585388, -0.0475013
-1.0820312, 0.1396484, -0.4472656, 1.6463414, -71.8902435, -44.8170738, -0.0169528
-1.0678711, 0.1079102, -0.4125977, 2.5, -71.0365906, -43.9634171, -0.0256809
-1.0566406, 0.1035156, -0.3969727, 4.4512196, -69.5731735, -40.9146347, -0.0142672
-1.0385742, 0.1118164, -0.3686523, 7.0121951, -67.68293, -38.4146347, 0.0001678
-1.0307617, 0.1289062, -0.3554688, 7.5609756, -66.0975647, -37.6219521, 0.0085603
-1.0175781, 0.1616211, -0.3398438, 8.841464, -63.1097565, -36.8902435, 0.0246738
-1.015625, 0.1933594, -0.3305664, 8.4756098, -61.341465, -36.4024391, 0.0535439
-1.0166016, 0.206543, -0.3276367, 8.1097565, -57.8048782, -35.6707344, 0.0370947
-1.0053711, 0.203125, -0.3115234, 7.1951222, -56.341465, -35.1219521, 0.0199741
-0.9960938, 0.1923828, -0.3076172, 6.2195125, -52.4390259, -34.3902435, 0.0424659
-0.9819336, 0.1699219, -0.2919922, 6.1585369, -49.9390259, -34.3902435, 0.0458228
-0.9804688, 0.1650391, -0.2768555, 5.7317076, -45.0609779, -33.3536606, 0.040116
-0.9750977, 0.1806641, -0.2724609, 5.7926831, -42.4390259, -32.8658562, 0.0057069
-0.9716797, 0.1928711, -0.2763672, 5.9756098, -36.9512215, -31.7073174, -0.018967
-0.9648438, 0.2119141, -0.3271484, 5.7926831, -32.3170738, -30.4878063, -0.033402
-0.9692383, 0.2119141, -0.3613281, 5.1219511, -30.8536587, -30.3048782, -0.0458228
-1.0009766, 0.2055664, -0.4365234, 3.8414636, -29.6341476, -30.5487804, -0.0525368
-1.0581055, 0.1801758, -0.4736328, 2.804878, -30.2439022, -30.7926846, -0.1008774
-1.0854492, 0.1650391, -0.4741211, 2.3170731, -30.9146347, -30.4268303, -0.1290761
-1.1230469, 0.1279297, -0.4506836, 2.8658538, -30.7317085, -30, -0.1498894
-1.1289062, 0.1181641, -0.4365234, 4.8170733, -29.8780499, -28.1097565, -0.1723812
-1.1171875, 0.1035156, -0.4208984, 6.280488, -28.6585369, -26.9512196, -0.1878233
-1.1074219, 0.1025391, -0.4287109, 9.3292685, -25.4268303, -23.7195129, -0.1831235
-1.078125, 0.1074219, -0.4541016, 11.341464, -24.2073174, -22.3170738, -0.2039368
-1.0634766, 0.1040039, -0.4726562, 14.9390249, -23.2317085, -19.6951218, -0.2373388
-1.0551758, 0.1040039, -0.4946289, 17.9268303, -24.1463413, -18.1097565, -0.233814
-1.0551758, 0.0996094, -0.4902344, 19.3292694, -24.7560978, -17.5, -0.2361639
-1.0644531, 0.0839844, -0.4501953, 21.7073174, -26.0365868, -17.0731716, -0.2455634
-1.0673828, 0.074707, -0.3828125, 22.8048782, -25.9146347, -16.7073174, -0.2398566
-1.0595703, 0.0776367, -0.3466797, 24.8170738, -22.8048782, -15.2439032, -0.2264286
-1.0268555, 0.0996094, -0.3178711, 25.8536587, -20.1219521, -14.0243902, -0.2458991
-1.0073242, 0.1181641, -0.331543, 27.9878063, -13.7195129, -10.4878054, -0.2391852
-0.9716797, 0.1503906, -0.3969727, 29.0243912, -11.341464, -8.780488, -0.2145113
-0.9604492, 0.1577148, -0.4370117, 31.341465, -9.6951218, -6.890244, -0.1861448
-0.9760742, 0.1611328, -0.4990234, 32.3780479, -10.2439022, -7.1341467, -0.1552605
-1.0024414, 0.1606445, -0.5087891, 33.1097565, -13.3536587, -8.9024391, -0.114641
-1.0620117, 0.1738281, -0.4960938, 32.6219521, -15.3658543, -8.9024391, -0.1055772
-1.0883789, 0.1728516, -0.4833984, 32.3170738, -15.6097565, -8.5975609, -0.1075914
-1.1064453, 0.1523438, -0.4794922, 32.0121956, -14.5731707, -6.7682929, -0.0710002
-1.1113281, 0.1186523, -0.5180664, 32.5, -13.5365858, -5.7317076, -0.0337377
-1.1162109, 0.1044922, -0.546875, 33.7804871, -12.9878054, -3.3536587, -0.0068818
-1.1381836, 0.1040039, -0.5869141, 34.7560997, -13.5975609, -1.8902439, 0.0152743
-1.1494141, 0.1103516, -0.5834961, 37.0731697, -16.5243912, 0.4878049, 0.0448157
-1.152832, 0.1318359, -0.5385742, 37.9878044, -17.560976, 1.2195122, 0.0696574
-1.1401367, 0.1337891, -0.5146484, 39.9390259, -18.4146347, 2.2560976, 0.0944991
-1.0986328, 0.1347656, -0.4672852, 40.4878044, -16.0975609, 3.4146342, 0.1198444
-1.0761719, 0.1303711, -0.4506836, 41.0365868, -14.2682934, 4.390244, 0.1116197
-1.0444336, 0.1313477, -0.4243164, 43.1097565, -11.0365858, 7.5609756, 0.1200122
-1.0332031, 0.1362305, -0.4106445, 43.9024391, -9.7560978, 8.719512, 0.1366293
-1.0097656, 0.15625, -0.3994141, 45.6097565, -6.4024391, 10.4268293, 0.1609674
-0.9970703, 0.1586914, -0.4052734, 46.2195129, -4.6341462, 10.6707315, 0.1754025
-1.0009766, 0.1503906, -0.4130859, 47.4390259, -1.4634147, 10.4268293, 0.1878233
-1.0175781, 0.1308594, -0.4135742, 47.6829262, -0.0609756, 10.1219511, 0.1821164
-1.03125, 0.1279297, -0.4047852, 46.1585388, 2.9878049, 11.0365858, 0.1643244
-1.0380859, 0.1479492, -0.3842773, 45.1829262, 5.4878049, 12.0121956, 0.1696956
-1.034668, 0.1679688, -0.3808594, 43.841465, 10.9146347, 14.7560978, 0.1508965
-1.0205078, 0.2075195, -0.4057617, 43.841465, 16.0365849, 16.5243912, 0.1287404
-1.0151367, 0.2226562, -0.4316406, 43.5365868, 17.9268303, 16.7682934, 0.1203479
-1.0136719, 0.2338867, -0.4755859, 41.5853653, 19.3902435, 16.3414631, 0.1176623
-1.0258789, 0.2280273, -0.4907227, 40.4268303, 19.6341476, 15.7317076, 0.085771
-1.0585938, 0.1855469, -0.5004883, 37.9878044, 20.3658543, 14.7560978, 0.0642863
-1.0947266, 0.1367188, -0.5053711, 37.9268303, 20.6707325, 14.5121956, 0.0387732
-1.1118164, 0.1132812, -0.5161133, 38.4146347, 22.560976, 15.9146347, 0.0159457
-1.1376953, 0.0849609, -0.5493164, 38.9024391, 23.4146347, 17.0731716, -0.0008392
-1.1386719, 0.0830078, -0.5585938, 40.6707344, 24.0243912, 20.6707325, -0.0035248
-1.1308594, 0.1020508, -0.5585938, 41.1585388, 23.6585369, 22.6829281, -0.030045
-1.1171875, 0.1298828, -0.5415039, 41.7682953, 23.4756107, 25.3658543, -0.0572366
-1.0878906, 0.1796875, -0.503418, 41.2195129, 24.6951218, 26.8292694, -0.0666361
-1.0678711, 0.1967773, -0.4794922, 40.7317085, 25.7317085, 27.5, -0.0622721
-1.0239258, 0.206543, -0.4458008, 40.1219521, 28.7195129, 27.5, -0.0696574
-1.0117188, 0.2001953, -0.4448242, 39.8170738, 30.2439022, 27.6829281, -0.0847639
-1.0200195, 0.1733398, -0.4975586, 39.3902435, 34.2682953, 27.8658543, -0.0887922
-1.0649414, 0.140625, -0.578125, 39.8780479, 35.7317085, 28.5975609, -0.0887922
-1.097168, 0.1274414, -0.6064453, 41.7073174, 35.7926826, 30.7317085, -0.0840925
-1.1606445, 0.1103516, -0.6132812, 42.4390259, 34.8780479, 31.6463413, -0.0740215
-1.1816406, 0.1118164, -0.590332, 44.0853653, 33.4146347, 32.6219521, -0.0807355
-1.184082, 0.1357422, -0.5136719, 44.9390259, 34.5121956, 33.4146347, -0.0552224
-1.1655273, 0.1552734, -0.46875, 44.2073174, 39.3292694, 36.6463432, -0.0182956
-1.0786133, 0.1948242, -0.3876953, 42.3780479, 47.6829262, 39.8780479, 0.0068818
-1.0151367, 0.2138672, -0.3774414, 41.2195129, 52.4390259, 41.2804871, 0.0193027
-0.9189453, 0.2358398, -0.4233398, 40, 61.6463432, 42.1951218, 0.0501869
-0.9013672, 0.2426758, -0.4750977, 39.8780479, 64.2682953, 42.2560997, 0.0540475
-0.9321289, 0.2602539, -0.5581055, 40.2439041, 64.8170776, 40.2439041, 0.0708324
-1.0170898, 0.2768555, -0.5615234, 39.4512215, 63.7195129, 39.1463432, 0.1085985
-1.0561523, 0.2744141, -0.5429688, 37.3780479, 64.0853653, 36.4634171, 0.1364614
-1.1137695, 0.2431641, -0.5146484, 36.0975609, 66.2195129, 35.1219521, 0.1683528
-1.1328125, 0.2265625, -0.5117188, 33.9024391, 73.1707306, 35.3048782, 0.1884947
-1.1386719, 0.2143555, -0.5322266, 33.3536606, 76.7682953, 36.6463432, 0.2039368
-1.125, 0.2182617, -0.550293, 32.9268303, 83.2317123, 40.7926826, 0.199237
-1.0771484, 0.2255859, -0.5986328, 32.8658562, 87.7439041, 42.8658562, 0.2066224
-1.0634766, 0.2319336, -0.6362305, 33.2926826, 88.7804871, 43.4146347, 0.2254215
-1.0629883, 0.2177734, -0.690918, 32.4390259, 88.7195129, 43.3536606, 0.2341497
-1.0805664, 0.2060547, -0.6923828, 31.8902454, 87.68293, 43.7195129, 0.237171
-1.1142578, 0.1894531, -0.6479492, 30.9146347, 86.646347, 44.3902435, 0.2375067
-1.1289062, 0.1708984, -0.5932617, 30.8536587, 88.0487823, 44.6951218, 0.2341497
-1.1254883, 0.1650391, -0.5834961, 31.9512196, 92.5609741, 46.8292694, 0.2146792
-1.1040039, 0.1704102, -0.6166992, 32.3780479, 95.4878082, 48.3536606, 0.2173648
-1.0927734, 0.1826172, -0.6342773, 31.5853672, 100.1219559, 52.0731735, 0.1972229
-1.0859375, 0.2114258, -0.6523438, 31.0975609, 101.0365906, 53.5365868, 0.1696956
-1.0893555, 0.2265625, -0.6425781, 30.7317085, 101.7073212, 55.4878044, 0.1460288
-1.0810547, 0.2436523, -0.6098633, 30.9756107, 103.4146347, 54.9390259, 0.1233692
-1.0830078, 0.246582, -0.5942383, 31.341465, 105.6097565, 54.2073174, 0.1099413
-1.0825195, 0.2446289, -0.5947266, 30.5487804, 110.9146347, 53.841465, 0.0998703
-1.081543, 0.2373047, -0.6103516, 30.2439022, 113.5365906, 54.3902435, 0.0871138
-1.0791016, 0.2314453, -0.6240234, 29.1463413, 117.0731735, 55.9756126, 0.0216526
-1.0766602, 0.2133789, -0.6323242, 28.9024391, 118.9024429, 56.4634171, -0.0114137
-1.0839844, 0.1967773, -0.6474609, 29.2073174, 122.6219559, 56.8292694, -0.0411231
-1.1152344, 0.1767578, -0.6762695, 29.6951218, 124.2073212, 56.7682953, -0.0585794
-1.140625, 0.1826172, -0.6860352, 30.6707325, 126.2195129, 57.3170738, -0.0740215
-1.1748047, 0.2089844, -0.7075195, 30.6707325, 127.1951218, 58.0487823, -0.0802319
-1.1831055, 0.2177734, -0.7236328, 31.1585369, 131.2195129, 60.3658562, -0.1022202
-1.1923828, 0.2304688, -0.7587891, 32.0731697, 133.4146423, 61.6463432, -0.1250477
-1.1943359, 0.2275391, -0.7700195, 31.8902454, 133.4756165, 61.8292694, -0.1331044
-1.1992188, 0.2250977, -0.7524414, 30.2439022, 133.1097565, 62.1341476, -0.142504
-1.1943359, 0.2275391, -0.7294922, 29.3292694, 133.7804871, 62.7439041, -0.1411612
-1.1645508, 0.2387695, -0.7006836, 28.1707325, 137.3780518, 63.4756126, -0.1347829
-1.1469727, 0.2529297, -0.7167969, 28.5975609, 139.7561035, 63.9024391, -0.1304189
-1.1411133, 0.2558594, -0.730957, 28.5365868, 143.2317047, 65.4878082, -0.1545892
-1.1391602, 0.2402344, -0.7480469, 28.4756107, 143.9024353, 65.3658524, -0.1549248
-1.1484375, 0.2255859, -0.7558594, 27.8048782, 145, 64.3902435, -0.1257191
-1.1835938, 0.2158203, -0.7602539, 27.4390259, 145.4268341, 64.0853653, -0.1017166
-1.2084961, 0.2114258, -0.7568359, 27.3780499, 147.1341553, 64.5121994, -0.0928206
-1.2426758, 0.2104492, -0.7485352, 27.4390259, 149.3902435, 65.7926865, -0.0632792
-1.2495117, 0.2099609, -0.7329102, 27.0731716, 150.8536682, 65.9146347, -0.0592508
-1.2431641, 0.2207031, -0.7241211, 26.7073174, 154.9390259, 66.3414612, -0.0683146
-1.2319336, 0.2236328, -0.7255859, 26.0365868, 157.3170776, 66.4634171, -0.0330663
-1.2055664, 0.2353516, -0.7426758, 25.6097565, 161.0365906, 67.5, -0.0005035
-1.1801758, 0.234375, -0.7910156, 25.3658543, 162.2561035, 67.7439041, 0.0297093
-1.1831055, 0.2260742, -0.8105469, 26.1585369, 163.6585388, 67.7439041, 0.043473
-1.2167969, 0.2133789, -0.8129883, 26.7073174, 162.8048859, 67.2560959, 0.0589151
-1.2416992, 0.2143555, -0.7978516, 26.6463413, 160.7317047, 66.8292694, 0.0696574
-1.262207, 0.2236328, -0.753418, 26.4634151, 160.8536682, 66.5243912, 0.085771
-1.2651367, 0.2275391, -0.75, 25.3658543, 165.0609741, 66.9512177, 0.1049058
-1.2592773, 0.2314453, -0.7963867, 25.2439022, 169.8170776, 67.6219559, 0.0948348
-1.2612305, 0.2319336, -0.8222656, 24.4512196, 170.4268341, 68.0487823, 0.100206
-1.2749023, 0.2441406, -0.8603516, 22.0731716, 169.0853729, 69.6341476, 0.1059129
-1.2827148, 0.2666016, -0.8320312, 20.9756107, 168.1097565, 69.7560959, 0.1008774
-1.2856445, 0.2739258, -0.8100586, 18.4756107, 167.8048859, 68.6585388, 0.1153124
-1.2670898, 0.2749023, -0.7978516, 17.560976, 168.9024506, 67.8658524, 0.1287404
-1.2617188, 0.2661133, -0.8100586, 16.280489, 172.7439117, 66.5243912, 0.1008774
-1.2636719, 0.2363281, -0.8452148, 16.0975609, 173.8414612, 66.2804871, 0.0622721
-1.2739258, 0.2207031, -0.8461914, 14.8170738, 173.0487823, 66.6463394, 0.0365911
-1.2822266, 0.1899414, -0.7983398, 14.1463413, 172.4390259, 67.0121994, 0.0146029
-1.277832, 0.1826172, -0.7719727, 13.4756098, 173.4756165, 67.0121994, 0.0025177
-1.2641602, 0.1855469, -0.762207, 13.7195129, 178.0487823, 67.68293, -0.0078889
-1.262207, 0.1899414, -0.777832, 13.9634151, 180.0609741, 68.6585388, -0.0058747
-1.2602539, 0.2036133, -0.8022461, 14.1463413, 181.5853729, 70.1219559, -0.0626078
-1.246582, 0.2192383, -0.7832031, 13.6585369, 181.7682953, 70.5487823, -0.090135
-1.2387695, 0.2207031, -0.7675781, 12.6219511, 183.5975647, 69.7560959, -0.1169909
-1.2197266, 0.234375, -0.7744141, 12.3780489, 185.4878082, 69.2073212, -0.149218
-1.2148438, 0.2285156, -0.7924805, 11.7073174, 189.3902435, 68.9024429, -0.1599603
-1.2070312, 0.2075195, -0.8022461, 11.219512, 190.1219482, 69.0243912, -0.1619745
-1.2060547, 0.1977539, -0.7905273, 9.3292685, 189.6951294, 69.0853653, -0.178088
-1.1943359, 0.1992188, -0.7490234, 8.5975609, 190.1829376, 68.9024429, -0.2109865
-1.1816406, 0.2026367, -0.7387695, 8.2926826, 193.9634247, 69.0243912, -0.2230716
-1.1606445, 0.2133789, -0.765625, 8.2317076, 198.4756165, 69.4512177, -0.2344854
-1.1503906, 0.2138672, -0.7856445, 7.5609756, 199.512207, 69.8170776, -0.2391852
-1.1533203, 0.2119141, -0.824707, 5.4878049, 199.6951294, 69.3902435, -0.2385138
-1.1845703, 0.2119141, -0.8613281, 4.5731707, 199.9390259, 69.4512177, -0.2368353
-1.2124023, 0.2119141, -0.8774414, 3.7804878, 200.1219635, 70.1219559, -0.2475776
-1.2451172, 0.2148438, -0.8813477, 3.5975611, 199.6951294, 70.7317123, -0.2271
-1.2436523, 0.2231445, -0.8710938, 1.7073171, 198.2926941, 71.2804871, -0.2076295
-1.2114258, 0.2275391, -0.8466797, 0.1219512, 198.5975647, 71.3414688, -0.1989014
-1.1904297, 0.2192383, -0.8515625, -1.5853659, 201.8902435, 71.2804871, -0.178088
-1.1655273, 0.1875, -0.8945312, -1.2804878, 203.5975647, 71.0975647, -0.1542535
-1.1674805, 0.1713867, -0.8935547, -0.3048781, 203.4146423, 71.9512177, -0.1378042
-1.1591797, 0.1557617, -0.8447266, 1.5853659, 200.8536682, 72.7439041, -0.1304189
-1.1489258, 0.15625, -0.8208008, 2.2560976, 201.5243988, 72.9878082, -0.0897993
-1.1308594, 0.1967773, -0.8354492, 2.6829269, 205.7926941, 74.6341476, -0.0757
-1.1206055, 0.2138672, -0.8901367, 2.6829269, 207.5609741, 76.0365906, -0.0703288
-1.1152344, 0.2211914, -0.890625, 2.0731707, 207.012207, 77.9878082, -0.0303807
-1.0961914, 0.2124023, -0.8535156, 1.8902439, 205.9756165, 77.68293, -0.0048676
-1.0810547, 0.2050781, -0.8276367, 2.0121951, 205.7926941, 75.4878082, 0.0105745
-1.0483398, 0.1904297, -0.8017578, 2.1341465, 207.5609741, 74.7560959, 0.0313878
-1.0380859, 0.1967773, -0.8120117, 2.6829269, 211.8902435, 74.6951218, 0.0629435
-1.0048828, 0.2099609, -0.871582, 2.195122, 213.5975647, 75.9756088, 0.0488441
-0.9936523, 0.2143555, -0.8964844, 1.2195122, 215.1219635, 78.0487823, 0.0515297
-1.0029297, 0.2436523, -0.9150391, -0.7926829, 213.2317047, 79.146347, 0.0663005
-1.0078125, 0.2592773, -0.9042969, -1.8902439, 212.5609741, 79.2073212, 0.0699931
-1.0004883, 0.2827148, -0.8730469, -4.0853658, 213.2317047, 77.5, 0.0696574
-0.9658203, 0.2773438, -0.894043, -5, 214.6341553, 76.646347, 0.0921492
-0.9550781, 0.2719727, -0.9086914, -7.3780489, 216.7682953, 74.9390259, 0.0740215
-0.9516602, 0.2524414, -0.9121094, -8.5365858, 216.7682953, 74.8170776, 0.0441444
-0.9448242, 0.2607422, -0.9013672, -9.8170738, 216.5243988, 75.9146347, 0.0303807
-0.9160156, 0.2792969, -0.8867188, -10.2439022, 216.8902435, 76.646347, 0.008896
-0.894043, 0.2900391, -0.8955078, -11.7073174, 219.2073212, 76.5853653, 0.0025177
-0.8642578, 0.2900391, -0.9350586, -14.2682934, 220.9146423, 75.6707306, -0.0109102
-0.8510742, 0.2841797, -0.9560547, -15.9146347, 220.3048859, 75, -0.0297093
-0.8544922, 0.2666016, -0.9995117, -18.1707325, 219.146347, 75.4268341, -0.0471656
-0.8686523, 0.2597656, -1.0224609, -18.5365849, 218.4756165, 76.0975647, -0.0787213
-0.9067383, 0.2373047, -1.0268555, -18.1097565, 215.0609741, 77.68293, -0.1022202
-0.9194336, 0.2075195, -0.9589844, -17.9878044, 212.9878082, 78.1707306, -0.1347829
-0.9018555, 0.1850586, -0.9257812, -15.6707325, 212.6829376, 77.7439041, -0.1505608
-0.8701172, 0.1499023, -0.902832, -14.1463413, 214.7561035, 77.68293, -0.1607996
-0.8491211, 0.1450195, -0.9189453, -11.4024391, 218.8414612, 79.6951218, -0.1646601
-0.8168945, 0.1640625, -0.9584961, -9.8170738, 219.6951294, 81.8292694, -0.1824521
-0.8061523, 0.1967773, -0.9819336, -8.3536587, 218.4756165, 85.8536606, -0.1807736
-0.7880859, 0.2851562, -1.0288086, -8.5365858, 217.5, 88.7804871, -0.1978943
-0.7915039, 0.3173828, -1.0439453, -9.0243902, 216.7682953, 88.9024429, -0.2297856
-0.8017578, 0.3544922, -1.0444336, -10.2439022, 213.2926941, 86.5853653, -0.2281071
-0.8041992, 0.3579102, -1.034668, -11.0975609, 211.646347, 84.6341476, -0.212665
-0.8007812, 0.3383789, -0.9897461, -13.9024391, 210.4268341, 80.2439041, -0.2099794
-0.7709961, 0.2983398, -0.9335938, -14.9390249, 210.9146423, 78.6585388, -0.2113222
-0.7426758, 0.2885742, -0.9262695, -16.4634151, 213.1097565, 77.0731735, -0.1935302
-0.6943359, 0.2753906, -0.9404297, -16.4634151, 214.7561035, 76.646347, -0.1989014
-0.6767578, 0.2739258, -0.965332, -15.6707325, 216.5243988, 77.1341476, -0.1769131
-0.6738281, 0.2939453, -1.003418, -15, 216.2804871, 77.2560959, -0.1371328
-0.684082, 0.3144531, -1.0180664, -14.7560978, 214.512207, 76.7073212, -0.1196765
-0.7128906, 0.3383789, -1.0195312, -17.1951218, 212.8048859, 75.3658524, -0.1075914
-0.722168, 0.3422852, -1.0102539, -18.5365849, 212.8048859, 74.5121994, -0.0733501
-0.7260742, 0.3178711, -1.0083008, -20.9756107, 213.2317047, 72.2560959, -0.0421302
-0.7231445, 0.2958984, -1.0087891, -21.7073174, 213.0487823, 71.5853653, -0.023331
-0.7138672, 0.2661133, -0.9912109, -22.3780499, 212.5609741, 70.9146347, 0.0030213
-0.684082, 0.2475586, -0.9692383, -22.1951218, 212.3780518, 70.8536606, 0.0307164
-0.6669922, 0.2553711, -0.9736328, -21.0975609, 213.2926941, 71.3414688, 0.0609293
-0.6445312, 0.2592773, -1.0029297, -20.7926826, 214.0853729, 71.6463394, 0.0710002
-0.6293945, 0.2495117, -1.0292969, -20.060976, 214.8170776, 72.4390259, 0.0837568
-0.6367188, 0.222168, -1.0493164, -20.060976, 214.0243988, 72.2560959, 0.0951705
-0.6513672, 0.2133789, -1.0322266, -21.2195129, 210.3048859, 72.0731735, 0.1171588
-0.65625, 0.2148438, -0.9936523, -22.3170738, 209.2073212, 73.7195129, 0.1465324
-0.6503906, 0.2231445, -0.9912109, -21.9512196, 210.6097565, 74.8780518, 0.139147
-0.6274414, 0.2397461, -1.0161133, -21.0365868, 211.2804871, 77.0731735, 0.1468681
-0.612793, 0.2490234, -1.0307617, -21.2195129, 210.5487823, 77.4390259, 0.1488823
-0.5913086, 0.2573242, -1.0097656, -22.5, 208.4146423, 77.9268341, 0.1529107
-0.5639648, 0.2646484, -0.9628906, -23.1097565, 207.5609741, 77.7439041, 0.1613031
-0.543457, 0.269043, -0.953125, -24.6951218, 208.7804871, 77.6219559, 0.152575
-0.5014648, 0.2543945, -0.9541016, -25.1219521, 209.9390259, 77.3780518, 0.1220264
-0.4853516, 0.2407227, -0.9550781, -25.6707325, 211.0365906, 77.1951218, 0.0904707
-0.4633789, 0.2080078, -0.9487305, -25.4878063, 211.0365906, 77.0121994, 0.0716716
-0.4619141, 0.1992188, -0.9384766, -24.8170738, 210.7317047, 76.8902435, 0.0513619
-0.4746094, 0.2260742, -0.9394531, -23.6585369, 211.8292694, 78.7195129, 0.0280308
-0.4711914, 0.2451172, -0.9389648, -23.2926826, 212.6219635, 79.5731735, 0.0151064
-0.4365234, 0.2490234, -0.9438477, -23.2317085, 213.8414612, 80.1219559, -0.0068818
-0.4155273, 0.2436523, -0.9501953, -23.9024391, 214.4512177, 79.2682953, -0.0532082
-0.4057617, 0.2290039, -0.9375, -25, 214.2682953, 77.9878082, -0.0793927
-0.3852539, 0.2124023, -0.9091797, -25.060976, 214.146347, 78.1097565, -0.1022202
-0.3745117, 0.206543, -0.8989258, -24.5121956, 216.2195129, 77.9878082, -0.1173266
-0.3671875, 0.2119141, -0.9194336, -23.780489, 217.5, 78.0487823, -0.1277333
-0.3618164, 0.2177734, -0.9418945, -23.9024391, 218.9634247, 78.9634171, -0.1331044
-0.3583984, 0.2333984, -0.9580078, -24.3292694, 218.9634247, 79.4512177, -0.1616388
-0.359375, 0.2304688, -0.9462891, -24.2073174, 218.2926941, 79.3292694, -0.1965515
-0.3442383, 0.2231445, -0.9331055, -23.8414631, 218.4146423, 77.9268341, -0.19823
-0.3432617, 0.2163086, -0.9311523, -24.1463413, 219.146347, 77.3170776, -0.2072938
-0.3466797, 0.2060547, -0.953125, -24.6341476, 220.1219635, 77.68293, -0.2066224
-0.3374023, 0.206543, -0.9570312, -24.7560978, 220.1219635, 78.1097565, -0.2136721
-0.324707, 0.2197266, -0.9443359, -24.0853672, 219.2073212, 79.5731735, -0.2171969
-0.3046875, 0.2329102, -0.9404297, -23.9024391, 219.6341553, 79.6341476, -0.2002441
-0.2963867, 0.2353516, -0.9433594, -23.0487804, 220.4878082, 78.9024429, -0.178088
-0.2919922, 0.2265625, -0.9785156, -22.7439022, 220.73172, 78.2926865, -0.1505608
-0.3022461, 0.2270508, -0.9995117, -22.6829281, 220.2439117, 77.5609741, -0.1572747
-0.3374023, 0.2382812, -0.9760742, -22.8658543, 219.4512177, 77.8048782, -0.1456931
-0.3383789, 0.2421875, -0.9399414, -22.7439022, 217.3170776, 78.2317123, -0.1223621
-0.3061523, 0.2397461, -0.9038086, -21.9512196, 218.7195129, 77.0121994, -0.1092699
-0.2880859, 0.2353516, -0.9082031, -21.9512196, 220.2439117, 76.3414688, -0.0715038
-0.2607422, 0.2104492, -0.9179688, -21.4024391, 220.5487823, 76.0365906, -0.0240024
-0.2495117, 0.1977539, -0.90625, -21.6463413, 219.5731812, 75.7926865, -0.012253
-0.2250977, 0.1943359, -0.8837891, -21.6463413, 218.3536682, 75.18293, 0.0011749
-0.222168, 0.2138672, -0.8637695, -21.7682934, 218.9634247, 75.4268341, 0.0209812
-0.2143555, 0.2285156, -0.8613281, -21.4024391, 219.9390259, 75.5487823, 0.0292058
-0.1826172, 0.2299805, -0.8515625, -21.9512196, 220.0609741, 75.6097565, 0.0360876
-0.1611328, 0.222168, -0.8413086, -23.8414631, 219.6951294, 73.7804871, 0.0572366
-0.1313477, 0.2045898, -0.8364258, -24.5731716, 219.6341553, 72.8658524, 0.0840925
-0.1328125, 0.2001953, -0.8486328, -24.8780499, 220.5487823, 72.0121994, 0.0696574
-0.1503906, 0.2080078, -0.8544922, -24.0243912, 219.8780518, 72.8658524, 0.079057
-0.1518555, 0.2124023, -0.8510742, -23.4756107, 219.2073212, 73.1097565, 0.0850996
-0.1416016, 0.2133789, -0.8476562, -23.6585369, 219.2073212, 71.5243912, 0.085771
-0.1430664, 0.203125, -0.8481445, -24.0853672, 219.0853729, 71.1585388, 0.0884565
-0.1425781, 0.1723633, -0.8388672, -25.060976, 218.23172, 70.7317123, 0.0970169
-0.121582, 0.1469727, -0.8457031, -25.2439022, 217.6219635, 71.4024429, 0.0809033
-0.1162109, 0.1455078, -0.862793, -24.3902435, 216.646347, 73.2926865, 0.030045
-0.1293945, 0.1772461, -0.8925781, -23.4756107, 215.9756165, 74.5731735, 0.0117494
-0.128418, 0.1884766, -0.8979492, -22.2560978, 212.86586, 76.5853653, -0.0035248
-0.1269531, 0.2138672, -0.887207, -22.439024, 211.2804871, 76.7073212, -0.0095674
-0.1333008, 0.2075195, -0.8681641, -22.439024, 209.3902435, 75.0609741, -0.0310521
-0.1455078, 0.1860352, -0.8623047, -21.280489, 208.5975647, 73.9634171, -0.0548867
-0.1430664, 0.171875, -0.8710938, -20.8536587, 207.8048859, 74.4512177, -0.0918135
-0.140625, 0.1635742, -0.875, -20.5487804, 204.512207, 76.7073212, -0.1149767
-0.1113281, 0.1782227, -0.8227539, -21.0365868, 202.3780518, 77.3170776, -0.128069
-0.0839844, 0.1860352, -0.7890625, -22.2560978, 199.3902435, 77.8658524, -0.1656672
-0.0302734, 0.1762695, -0.7592773, -22.2560978, 199.2682953, 77.5, -0.1834592
-0.0097656, 0.1679688, -0.7661133, -20.1829281, 198.9024506, 76.7682953, -0.1908446
0.0087891, 0.1606445, -0.7670898, -18.8414631, 197.9268341, 76.3414688, -0.2029297
0.012207, 0.1674805, -0.7431641, -17.560976, 193.9634247, 76.0975647, -0.2124971
0.0317383, 0.1835938, -0.6845703, -17.6829281, 192.8048859, 76.0365906, -0.202594
0.0512695, 0.1845703, -0.6660156, -17.6829281, 193.7804871, 75.18293, -0.2264286
0.0820312, 0.1679688, -0.6425781, -16.9512196, 195.7926941, 73.5365906, -0.2531167
0.1064453, 0.1547852, -0.6201172, -16.3414631, 196.0975647, 72.6219559, -0.2408637
0.1464844, 0.1450195, -0.5771484, -16.1585369, 196.2195129, 71.1585388, -0.2375067
0.1733398, 0.1577148, -0.5961914, -16.3414631, 197.2561035, 70.8536606, -0.2324712
0.1806641, 0.1699219, -0.6381836, -17.0731716, 199.146347, 72.0121994, -0.2271
0.1567383, 0.1865234, -0.6943359, -17.8658543, 198.7195129, 72.6219559, -0.1926909
0.1396484, 0.1850586, -0.675293, -20.1829281, 194.146347, 71.2804871, -0.1804379
0.1220703, 0.1577148, -0.6191406, -20.9146347, 191.5243988, 69.3292694, -0.1707027
0.1220703, 0.1391602, -0.6074219, -20, 190.5487823, 64.9390259, -0.1505608
0.1020508, 0.112793, -0.6401367, -19.0853672, 191.1585388, 63.7804909, -0.1404898
0.0957031, 0.109375, -0.6801758, -18.6585369, 190.6097565, 66.3414612, -0.1216907
0.0986328, 0.1137695, -0.7348633, -21.5243912, 186.7682953, 71.3414688, -0.0720073
0.1049805, 0.1206055, -0.7246094, -23.2926826, 183.9024506, 72.9878082, -0.0501869
0.1176758, 0.1289062, -0.6665039, -25, 179.0243988, 72.0731735, -0.0357519
0.121582, 0.1367188, -0.637207, -24.8780499, 177.5, 70.4268341, -0.0005035
0.1225586, 0.1401367, -0.6342773, -24.6951218, 176.3414612, 68.2926865, 0.0209812
0.1357422, 0.1225586, -0.6362305, -25.060976, 175.6707306, 68.2926865, 0.0360876
0.1499023, 0.1142578, -0.6430664, -25.6707325, 173.1707306, 69.5731735, 0.0451514
0.1748047, 0.1069336, -0.6474609, -26.0365868, 171.2804871, 70.0609741, 0.0538796
0.1733398, 0.1108398, -0.6376953, -27.6219521, 166.5853729, 70.4878082, 0.0575723
0.1733398, 0.1289062, -0.6020508, -28.0487804, 164.3292694, 70.3048782, 0.0803998
0.1728516, 0.1347656, -0.5893555, -28.2317085, 160.1219482, 68.9024429, 0.0995346
0.1777344, 0.1279297, -0.5844727, -27.560976, 156.5853729, 66.8292694, 0.0827497
0.175293, 0.1293945, -0.5703125, -27.7439022, 153.9634247, 65.9756088, 0.0803998
0.1845703, 0.1323242, -0.4985352, -28.1707325, 148.6585388, 64.9390259, 0.0864424
0.2495117, 0.1196289, -0.4072266, -27.8048782, 146.8902435, 64.2073212, 0.0904707
0.2827148, 0.1118164, -0.3789062, -25.6707325, 146.3414612, 62.9268303, 0.0763714
0.3535156, 0.1044922, -0.3637695, -24.8780499, 146.2804871, 62.1341476, 0.0652934
0.3818359, 0.1030273, -0.3583984, -24.2682934, 145.4878082, 61.4634171, 0.0280308
0.4316406, 0.1005859, -0.3383789, -23.7195129, 144.3902435, 61.0975609, -0.0068818
0.4492188, 0.0986328, -0.3354492, -22.8658543, 141.9512177, 60.4878044, -0.0204776
0.4580078, 0.090332, -0.3647461, -22.439024, 140.9756165, 59.7560997, -0.0293736
0.4462891, 0.0869141, -0.3959961, -21.280489, 137.86586, 57.8048782, -0.0471656
0.3862305, 0.0961914, -0.4550781, -21.6463413, 131.646347, 56.5853653, -0.0726787
0.3486328, 0.1142578, -0.4575195, -22.8658543, 128.7804871, 56.4634171, -0.0887922
0.2998047, 0.1313477, -0.4296875, -23.4756107, 123.1707382, 56.4024391, -0.1332723
0.3168945, 0.1259766, -0.3969727, -22.8048782, 121.2804871, 56.0365868, -0.1559319
0.3276367, 0.1108398, -0.3774414, -22.1951218, 118.2317123, 54.2073174, -0.1653315
0.378418, 0.0595703, -0.331543, -22.439024, 117.0121994, 52.8658562, -0.1743954
0.4052734, 0.0161133, -0.3164062, -21.1585369, 115.36586, 51.2804909, -0.1871519
0.4472656, -0.0253906, -0.3061523, -19.5731716, 114.2073212, 51.2804909, -0.1898375
0.4638672, -0.0297852, -0.3105469, -17.9268303, 110.6097565, 53.1097565, -0.2111543
0.4755859, -0.015625, -0.3071289, -17.3780499, 106.9512253, 55.6707344, -0.2344854
0.4746094, 0.0019531, -0.3134766, -16.4634151, 104.7561035, 56.5853653, -0.2284428
0.456543, 0.0380859, -0.3417969, -15.1219511, 100.4268341, 56.8902435, -0.2210575
0.440918, 0.0556641, -0.3535156, -14.6341467, 97.7439041, 56.4634171, -0.2109865
0.4150391, 0.0664062, -0.3666992, -13.1097565, 92.0121994, 55.3048782, -0.2072938
0.4052734, 0.0498047, -0.387207, -12.9878054, 88.7804871, 54.3292694, -0.2029297
0.3994141, 0.0371094, -0.4008789, -12.0121956, 82.5609741, 52.7439041, -0.1797665
0.3852539, 0.0234375, -0.40625, -11.4024391, 79.0243912, 52.4390259, -0.1505608
0.3857422, 0.0214844, -0.3847656, -10.7926836, 71.4634171, 51.341465, -0.1143053
0.3857422, 0.0078125, -0.293457, -10.6707315, 67.7439041, 50.7926826, -0.1119554
0.4038086, 0.0019531, -0.2412109, -8.4756098, 61.7073174, 49.2682953, -0.096849
0.4628906, -0.0097656, -0.190918, -5.0609756, 59.0853691, 47.8658562, -0.0721752
0.4902344, -0.0068359, -0.1894531, -3.7195122, 58.2926826, 47.8658562, -0.0421302
0.543457, 0.0107422, -0.1894531, -1.8902439, 54.4512215, 48.1097565, -0.0129244
0.5786133, 0.0288086, -0.1743164, -1.5243902, 52.3170738, 47.9878044, 0.0246738
0.6518555, 0.0727539, -0.1098633, -2.195122, 49.4512215, 47.3170738, 0.0454871
0.7158203, 0.0878906, -0.0810547, -2.5, 49.0243912, 45.9756126, 0.04448
0.7299805, 0.0834961, -0.1005859, -2.2560976, 48.9634171, 42.3170738, 0.0683146
0.7202148, 0.0620117, -0.1645508, -2.3170731, 47.8658562, 40.3658562, 0.0874495
0.7011719, 0.0541992, -0.1889648, -3.8414636, 42.8658562, 36.5853653, 0.1052415
0.6538086, 0.0273438, -0.1914062, -5.3048782, 39.8170738, 35, 0.1253834
0.621582, 0.0136719, -0.175293, -7.1951222, 34.9390259, 32.5, 0.1559319
0.5727539, 0.0029297, -0.1679688, -6.7073174, 29.6951218, 30.7317085, 0.1371328
0.5517578, 0.0083008, -0.1767578, -6.4024391, 27.1341476, 30.1219521, 0.1388113
0.5375977, 0.0361328, -0.2138672, -6.9512196, 21.9512196, 30.060976, 0.1482109
0.5424805, 0.0454102, -0.2285156, -8.1707315, 19.0853672, 30.060976, 0.1576104
0.5683594, 0.0551758, -0.234375, -10.5487804, 12.4390249, 29.3292694, 0.1535821
0.6054688, 0.0493164, -0.2021484, -12.3780489, 8.9024391, 28.0487804, 0.1510643
0.621582, 0.0317383, -0.171875, -15.1829271, 2.6829269, 24.3292694, 0.1240406
0.6538086, -0.0146484, -0.1132812, -15.4268293, 0.1219512, 22.3170738, 0.0850996
0.6572266, -0.0351562, -0.1064453, -13.2926836, -3.7195122, 18.5975609, 0.0763714
0.6586914, -0.0483398, -0.1479492, -11.8902445, -6.4634147, 17.1951218, 0.0627756
0.6518555, -0.0429688, -0.1679688, -11.5853662, -13.1097565, 16.2195129, 0.0602579
0.6420898, -0.015625, -0.1708984, -14.2073174, -19.939024, 16.7073174, 0.0394446
0.6469727, -0.0024414, -0.1582031, -15.1219511, -22.9878063, 16.8902435, 0.0011749
0.6655273, 0.0029297, -0.1420898, -16.7073174, -28.4756107, 16.0975609, -0.0182956
0.6767578, 0.0087891, -0.1396484, -17.0121956, -31.0975609, 15, -0.0386053
0.6958008, 0.0224609, -0.1411133, -16.9512196, -36.1585388, 12.1341467, -0.0431373
0.7026367, 0.0229492, -0.1206055, -16.5243912, -37.8048782, 11.4024391, -0.0760357
0.699707, 0.0102539, -0.0966797, -14.3902445, -42.2560997, 8.719512, -0.0856031
0.7177734, -0.0170898, -0.0317383, -13.2926836, -44.3292694, 7.1341467, -0.0975204
0.7231445, -0.0332031, -0.0078125, -9.6341467, -47.3170738, 3.5365853, -0.1017166
0.7250977, -0.0268555, 0.0029297, -7.5609756, -48.3536606, 2.1341465, -0.1173266
0.7285156, -0.0112305, -0.012207, -4.390244, -51.0365868, 1.9512196, -0.1084306
0.7431641, 0.0151367, -0.0385742, -3.3536587, -53.7804909, 2.1341465, -0.1042344
0.7524414, 0.0268555, -0.0371094, -3.3536587, -55.1219521, 2.0731707, -0.1151446
0.777832, 0.0537109, -0.0283203, -3.7804878, -58.2926826, -1.402439, -0.1129625
0.7885742, 0.0576172, -0.0273438, -4.1463413, -59.6951218, -3.7804878, -0.1059129
0.7763672, 0.0678711, -0.0390625, -5.1829271, -62.0731735, -8.1097565, -0.0921492
0.7514648, 0.0805664, -0.0595703, -5.7926831, -63.7804909, -9.5121956, -0.0575723
0.7421875, 0.0952148, -0.0576172, -7.2560978, -67.4390259, -11.8292685, -0.021149
0.7402344, 0.1210938, -0.0473633, -8.3536587, -69.0243912, -12.8048782, -0.0231632
0.7431641, 0.1274414, -0.0527344, -10.3658543, -71.4634171, -15, -0.0129244
0.7539062, 0.1240234, -0.0761719, -11.7073174, -72.2560959, -16.6463413, 0.0105745
0.7529297, 0.1181641, -0.0932617, -14.1463413, -75, -20.7926826, 0.033402
0.7329102, 0.0888672, -0.1191406, -17.5, -79.3902435, -24.3292694, 0.061265
0.7192383, 0.0756836, -0.1254883, -19.2073174, -81.646347, -26.0365868, 0.1122911
0.6923828, 0.0644531, -0.1318359, -22.439024, -86.8902435, -27.2560978, 0.1324331
0.6801758, 0.0620117, -0.1274414, -24.2073174, -89.5121994, -27.8658543, 0.1287404
0.6611328, 0.0761719, -0.1323242, -27.6219521, -93.5365906, -28.3536587, 0.145861
0.644043, 0.0854492, -0.1669922, -29.6341476, -95.18293, -29.1463413, 0.156939
0.640625, 0.0874023, -0.1855469, -33.7195129, -98.2317123, -30.6097565, 0.1730526
0.6357422, 0.0820312, -0.2080078, -35.4268303, -100.3048782, -31.5243912, 0.1743954
0.6298828, 0.0771484, -0.2167969, -38.5365868, -106.4634171, -32.8658562, 0.1707027
0.6230469, 0.0654297, -0.237793, -39.8780479, -109.0243912, -33.4756088, 0.199237
0.6142578, 0.0615234, -0.2470703, -42.0121956, -114.0853653, -35.1829262, 0.2234073
0.6030273, 0.0473633, -0.2568359, -42.6829262, -118.4146347, -36.341465, 0.2395209
0.597168, 0.034668, -0.2543945, -42.3170738, -120.8536606, -36.9512215, 0.2307927
0.581543, 0.0024414, -0.2583008, -40.3658562, -125.9146347, -38.841465, 0.2301213
0.5722656, -0.0092773, -0.2641602, -39.2682953, -128.5975647, -39.8780479, 0.2203861
0.546875, -0.0029297, -0.2480469, -37.4390259, -133.9634247, -40.6097565, 0.212665
0.5317383, 0.0307617, -0.2094727, -36.4634171, -135.5487823, -40.5487823, 0.1911803
0.5141602, 0.0546875, -0.1796875, -32.4390259, -136.7682953, -40.1829262, 0.1811093
0.453125, 0.1416016, -0.1464844, -30.060976, -138.7195129, -40.2439041, 0.1623102
0.4545898, 0.2021484, -0.2011719, -30.6097565, -143.2317047, -38.841465, 0.1334401
0.5810547, 0.2675781, -0.3061523, -35.5487823, -141.4634247, -37.3780479, 0.1139696
0.6567383, 0.2548828, -0.2504883, -48.2926826, -133.0487823, -36.7682953, 0.090135
0.7910156, 0.0820312, -0.03125, -53.3536606, -133.5365906, -45.8536606, 0.0652934
0.8334961, -0.0405273, 0.0366211, -49.1463432, -135.2439117, -53.2317085, 0.0560616
0.7973633, -0.1674805, -0.0029297, -33.4756088, -131.4024353, -65.3048782, 0.0407874
0.6918945, -0.1264648, -0.050293, -27.8658543, -128.4756165, -65.5487823, -0.0077211
0.5219727, 0.0292969, -0.1621094, -24.6951218, -127.9268341, -56.5243912, -0.0176242
0.4951172, 0.0947266, -0.168457, -23.1707325, -128.9024353, -51.7073174, -0.0372625
0.5195312, 0.1020508, -0.2226562, -16.8902435, -132.5, -48.2926826, -0.0525368
0.5458984, 0.1342773, -0.3813477, -15.060976, -133.0487823, -48.9634171, -0.0797284
0.534668, 0.1523438, -0.4301758, -20.5487804, -135.3048859, -51.5853653, -0.0793927
0.5019531, 0.1206055, -0.434082, -25.6097565, -138.6585388, -53.0487823, -0.0998703
0.4868164, 0.0766602, -0.3964844, -28.9634151, -146.5243988, -57.4390259, -0.1257191
0.4326172, 0.0107422, -0.340332, -18.5365849, -152.4390259, -64.0243912, -0.1265583
0.3876953, 0.0048828, -0.3652344, -12.0731707, -155.1219482, -66.7073212, -0.1352865
0.3081055, 0.0776367, -0.5668945, -7.9878049, -155.9756165, -68.2926865, -0.1367971
0.1806641, 0.2021484, -0.6870117, -10.6097565, -156.2195129, -66.4024429, -0.1378042
0.128418, 0.2368164, -0.6806641, -13.9024391, -164.2073212, -58.2317085, -0.1129625
0.1533203, 0.1962891, -0.5263672, -12.5, -172.6219482, -53.7804909, -0.0740215
0.2529297, 0.1357422, -0.4985352, -6.280488, -189.8780518, -53.1707344, -0.040116
0.4047852, 0.0102539, -0.4462891, -4.2682929, -191.7682953, -57.0121956, -0.0119173
0.4208984, -0.0424805, -0.3813477, -3.5975611, -191.4634247, -66.7073212, -0.012253
0.4169922, -0.0981445, -0.3076172, -2.195122, -192.1951294, -69.5731735, 0.0031891
0.409668, -0.0917969, -0.3115234, 7.9878049, -193.2926941, -69.6951218, 0.0293736
0.3798828, -0.0014648, -0.3959961, 24.5121956, -194.8170776, -64.9390259, 0.064622
0.3486328, 0.0795898, -0.4770508, 30.6097565, -196.4634247, -62.4390259, 0.0874495
0.2910156, 0.2392578, -0.5361328, 34.5121956, -200.9756165, -59.7560997, 0.1126268
0.230957, 0.3183594, -0.4477539, 33.0487823, -204.512207, -60.7317085, 0.1139696
0.2207031, 0.3115234, -0.4384766, 30.1829281, -210.3048859, -67.5609741, 0.1045701
0.2070312, 0.2373047, -0.4648438, 32.1951218, -208.5975647, -72.0121994, 0.1327687
0.1992188, 0.190918, -0.4663086, 42.2560997, -204.0853729, -80.4878082, 0.1448539
0.1943359, 0.105957, -0.4990234, 47.8658562, -204.9390259, -83.7195129, 0.1448539
0.2011719, 0.0756836, -0.5048828, 50, -209.0243988, -86.3414688, 0.156939
0.2163086, 0.0268555, -0.4960938, 47.1951218, -209.6951294, -86.2195129, 0.1817807
0.2216797, 0.0097656, -0.4985352, 43.2317085, -207.5609741, -84.2073212, 0.1708705
0.2299805, -0.0058594, -0.5097656, 46.7073174, -206.8902435, -80.8536606, 0.1743954
0.2280273, -0.0019531, -0.5273438, 50.3048782, -209.2682953, -79.0853653, 0.1723812
0.2333984, 0.0556641, -0.6347656, 53.2926826, -214.512207, -75.8536606, 0.1606317
0.2182617, 0.121582, -0.6962891, 51.5243912, -215.5487823, -74.8170776, 0.1367971
0.1933594, 0.1518555, -0.6699219, 44.3902435, -217.8048859, -73.9024429, 0.1169909
0.1621094, 0.1860352, -0.6347656, 41.4024391, -219.146347, -73.3536606, 0.0871138
0.1621094, 0.1845703, -0.6538086, 36.4024391, -218.9634247, -73.2317123, 0.0458228
0.159668, 0.1494141, -0.7553711, 35.1829262, -217.3170776, -73.4756088, 0.0439765
0.1469727, 0.1450195, -0.8056641, 34.0853653, -216.7682953, -72.1341476, 0.0260166
0.1069336, 0.1982422, -0.8173828, 33.1097565, -218.9024506, -70.3048782, 0.0072175
0.0947266, 0.2412109, -0.7910156, 26.0975609, -224.0243988, -64.5731735, -0.0263523
0.1176758, 0.3071289, -0.699707, 14.8780489, -223.0487823, -60.0609779, -0.0585794
0.1279297, 0.3120117, -0.6582031, 10.7317076, -220.5487823, -59.9390259, -0.0948348
0.1586914, 0.2792969, -0.6376953, 6.4024391, -214.6341553, -63.5365868, -0.1122911
0.1367188, 0.2646484, -0.6757812, 4.8780489, -211.0975647, -65.9756088, -0.1216907
0.1118164, 0.2666016, -0.6635742, 0.4268293, -206.7073212, -66.5853653, -0.1601282
0.0996094, 0.269043, -0.581543, -1.8902439, -205.1219635, -65.4878082, -0.1767453
0.1186523, 0.2539062, -0.5698242, -7.6219516, -201.2195129, -63.4756126, -0.1715419
0.1635742, 0.1855469, -0.7016602, -10.6707315, -198.1097565, -63.5975609, -0.1794308
0.1547852, 0.1337891, -0.8417969, -13.3536587, -193.3536682, -63.9634171, -0.1801022
0.0522461, 0.0571289, -1.1040039, -7.9878049, -198.3536682, -60.4878044, -0.1722133
-0.0322266, 0.050293, -1.1606445, -4.7560978, -205.6097565, -57.9268303, -0.1827878
-0.2055664, 0.1254883, -1.1040039, -3.2926829, -221.4634247, -53.2926826, -0.1983978
-0.2739258, 0.1782227, -1.0068359, -6.5243902, -226.9512177, -51.9512215, -0.1841306
-0.3007812, 0.2553711, -0.7714844, -18.8414631, -224.8170776, -53.1097565, -0.1727169
-0.2094727, 0.2314453, -0.5620117, -25.1829281, -218.1707306, -54.8780518, -0.1263905
-0.1323242, 0.1791992, -0.5458984, -31.6463413, -202.5, -60.3048782, -0.1042344
0.0136719, 0.0180664, -0.8115234, -31.0365868, -195.5487823, -62.1951218, -0.0760357
0.0458984, -0.0458984, -1.0224609, -20.9146347, -190.9756165, -60.0609779, -0.0767071
-0.034668, -0.0395508, -1.3710938, -12.8048782, -195.36586, -56.1585388, -0.068986
-0.1469727, 0.0463867, -1.4384766, -1.3414634, -215.1219635, -45.1829262, -0.0394446
-0.4023438, 0.3256836, -1.3720703, -5.4878049, -238.1097565, -36.7073174, -0.0135958
-0.4931641, 0.4599609, -1.2641602, -14.0853662, -244.3292694, -35.3048782, 0.0166171
-0.559082, 0.6074219, -1.0571289, -36.1585388, -242.1341553, -40.0609779, 0.064622
-0.5209961, 0.6000977, -0.9868164, -46.8292694, -236.2195129, -46.1585388, 0.0802319
-0.3920898, 0.4516602, -0.909668, -63.841465, -223.4756165, -60.7317085, 0.072343
-0.2143555, 0.21875, -0.847168, -71.1585388, -218.5975647, -67.5, 0.093492
-0.1694336, 0.1181641, -0.7143555, -82.1341476, -209.5731812, -74.3292694, 0.1065843
-0.0649414, -0.0385742, -0.628418, -82.9878082, -207.9268341, -73.2317123, 0.1361257
-0.0126953, -0.09375, -0.7246094, -75, -199.6951294, -64.7560959, 0.1428397
-0.0444336, -0.1503906, -1.050293, -65.6707306, -195.5487823, -59.8780518, 0.1485466
-0.128418, -0.1289062, -1.1967773, -40.3048782, -201.3414612, -53.7804909, 0.1576104
-0.3935547, 0.0581055, -1.2871094, -21.9512196, -221.9512177, -53.1707344, 0.163653
-0.5317383, 0.1899414, -1.2211914, -20, -231.7682953, -54.3292694, 0.1878233
-0.6772461, 0.4257812, -0.9707031, -28.9024391, -237.1951294, -57.1951218, 0.1663386
-0.6733398, 0.4882812, -0.8505859, -36.4634171, -231.7073212, -59.4512215, 0.1502251
-0.5375977, 0.4663086, -0.7758789, -49.8170738, -212.8048859, -65.0609741, 0.1426719
-0.34375, 0.300293, -0.9233398, -53.6585388, -204.9390259, -68.3536606, 0.1216907
-0.2719727, 0.1987305, -1.0273438, -54.3902435, -200.6707306, -71.4024429, 0.100206
-0.2177734, 0.0756836, -1.1445312, -51.5853653, -204.0853729, -71.0365906, 0.0924849
-0.2382812, 0.0712891, -1.1333008, -44.8780479, -216.7073212, -67.4390259, 0.072343
-0.3222656, 0.1484375, -1.0224609, -43.4756126, -222.3780518, -65.9756088, 0.0377661
-0.3588867, 0.2099609, -0.934082, -46.2195129, -226.0975647, -65.3048782, 0.0078889
-0.394043, 0.2797852, -0.7426758, -52.4390259, -220.9146423, -68.7195129, -0.0270237
-0.3857422, 0.2666016, -0.7119141, -54.2682953, -216.3414612, -71.6463394, -0.0493477
-0.3466797, 0.1435547, -0.8999023, -52.5609779, -208.8414612, -77.4390259, -0.0681468
-0.3637695, 0.0541992, -1.0615234, -47.9268303, -207.86586, -78.6585388, -0.0802319
