ID,rep_num,rep_length,up_length,down_length,up_down_ratio,acc_x_avg_up,acc_x_std_up,acc_x_max_up,acc_x_min_up,jerk_x_avg_up,jerk_x_std_up,acc_x_avg_down,acc_x_std_down,acc_x_max_down,acc_x_min_down,jerk_x_avg_down,jerk_x_std_down,acc_x_p2p,acc_x_r2,acc_y_avg_up,acc_y_std_up,acc_y_max_up,acc_y_min_up,jerk_y_avg_up,jerk_y_std_up,acc_y_avg_down,acc_y_std_down,acc_y_max_down,acc_y_min_down,jerk_y_avg_down,jerk_y_std_down,acc_y_p2p,acc_y_r2,acc_z_avg_up,acc_z_std_up,acc_z_max_up,acc_z_min_up,jerk_z_avg_up,jerk_z_std_up,acc_z_avg_down,acc_z_std_down,acc_z_max_down,acc_z_min_down,jerk_z_avg_down,jerk_z_std_down,acc_z_p2p,acc_z_r2,gyro_x_avg,gyro_x_std,gyro_x_r2,gyro_y_avg,gyro_y_std,gyro_y_r2,gyro_z_avg,gyro_z_std,gyro_z_r2,emg_mav,emg_rms,emg_iemg,emg_var,emg_zc,emg_wl,emg_ssc,emg_mean_amp,emg_peak_amp,emg_pca_1,emg_pca_2,emg_umap_1,emg_umap_2,emg_tsne_1,emg_tsne_2,emg_umap_km_class,emg_tsne_km_class,emg_umap_db_class,emg_tsne_db_class,RPE
A321_15_11,0,3.2399997408000205,1.736099861112011,1.5038998796880096,1.1543985637342908,0.1945619121273291,0.6921450281564918,0.988437502,-0.845654302,-1.0501774320932151,0.9795547924451536,0.2690963994193547,0.6785697955748774,1.05664063,-0.8502539139999998,1.2179856855763551,1.6744717260118955,1.906894544,0.8242200238957117,-0.1747159900838509,0.095628524877769,0.042822266,-0.277822264,0.1055931839557774,0.5520097583973486,-0.1902971689641577,0.0858059366111942,0.039179684,-0.2910644559999999,-0.1772475000498692,0.7462900374753397,0.3338867219999999,0.2236990973379374,-0.6709523012826087,0.2986902557104695,-0.1762597639999999,-1.089355474,-0.0827836619420863,1.248003497052506,-0.680106074577061,0.2715879834126328,-0.2954296859999999,-1.069042966,-0.001564940613259,1.7846672269317716,0.91309571,0.2147997160978514,-16.022577092253126,13.295383532384134,0.4727998786468624,-7.3705238029558755,96.9356420885606,0.588481961991149,4.350709866099918,21.15274664428277,0.4482798317428738,0.2425244634761595,0.2854570175152779,291.27188063486767,0.0226675934643186,0,5.353931125716073,451,0.2425244634761595,0.6799538260155948,-72.77980767815203,99.71746551496972,0.469552606344223,-2.352370262145996,4.254066467285156,23.64807510375977,1,1,0,-1,6
A321_15_11,1,2.7593997792480174,1.3202998943760085,1.4390998848720091,0.9174484052532834,0.2281125046979591,0.6851079155082789,1.036425782,-0.7859472719999999,-1.3423574988905236,1.2165839108230758,0.241698870318352,0.6656334510511298,1.013232426,-0.787001958,1.2356356585756716,1.3952317209147576,1.82342774,0.8383370893776059,-0.1773739053020408,0.0696452660285581,-0.03589844,-0.272089844,0.1457188422263157,0.5164017892544664,-0.1987858438014981,0.0769878663094904,-0.029414064,-0.291992186,-0.1157068190682324,0.8364165348137321,0.2625781219999999,0.3473934274190202,-0.7101506092000001,0.2508163004221905,-0.3223339819999999,-1.077578128,-0.0502815430666798,1.41133805072316,-0.7086687634531834,0.2448628674483003,-0.331337896,-1.0310449140000002,0.0398740925513322,1.589908437945776,0.7552441460000001,0.1505681532781762,-14.320430434662756,19.94361037211508,0.6331919055761108,-9.70624690674682,109.50035949250078,0.6462819423187451,-2.2485433178885628,17.14787347682027,0.5264134776539162,0.2862676811916661,0.3481024670855948,292.85183785907446,0.0392261422962241,0,5.5408878939261506,385,0.2862676811916661,0.7689916947855862,-71.21233219988777,33.71695953181971,6.2594099044799805,-0.389651209115982,-4.60687780380249,10.47268772125244,0,0,0,-1,6
A321_15_11,2,3.023999758080019,1.6037998716960102,1.420199886384009,1.129277566539924,0.1644634006487395,0.6792481112841173,1.009853522,-0.8481640640000001,-1.1476102140185602,1.0049931250812305,0.2742953755597722,0.6756654473859878,0.999365234,-0.853720704,1.2805195729386785,1.4122326539598813,1.863574226,0.83722251723145,-0.1688753131294117,0.0853477596884631,0.0149414059999999,-0.275097656,0.1319254588642984,0.5912683044850167,-0.1873997880151802,0.0851057580898842,0.010810548,-0.299375,-0.1492142535932491,0.8605266964409415,0.3143164059999999,0.3425763633994061,-0.7151958213142857,0.2637030329057743,-0.3114062519999999,-1.086123048,0.00376912862177,1.2913651705573816,-0.6782732659924098,0.27181455611328,-0.313535154,-1.1045996140000005,-0.0013683721697377,1.5315029230054902,0.7931933620000007,0.1513736058802579,-15.638865930142732,15.582167399413406,0.7361079094874328,-9.457306454595908,102.04591678906674,0.5835974719678358,1.8770022725495104,17.655060557357025,0.5600251985441269,0.3828983984343825,0.4787863330961044,429.2291046449429,0.0826251692359987,0,8.663322517754192,417,0.3828983984343825,1.4849095291877563,65.20747719969185,65.68303452096126,0.6491189002990723,1.431483507156372,16.543237686157227,9.251837730407717,1,1,0,-1,7
A321_15_11,3,3.10499975160002,1.6145998708320102,1.4903998807680094,1.0833333333333333,0.1611204395125209,0.6811948123114421,1.010361328,-0.867597662,-1.1383794729606018,1.050421911802717,0.2501377431211573,0.6989678289976912,1.054296874,-0.868232428,1.253713974424864,1.4722222226259367,1.922529302,0.8564007231316256,-0.1701181177095158,0.0953137181609312,0.0398535139999999,-0.285146482,0.1502524931300693,0.5168222408550313,-0.1368244757793851,0.1003908022092533,0.055830078,-0.257402344,-0.1285702571992021,0.813137833442327,0.34097656,0.4977370582801819,-0.7266449816761269,0.2355708723300672,-0.32723633,-1.043779304,-0.0408443411840644,1.1897993943908018,-0.6654723690307414,0.2747063183717453,-0.2619336,-1.019189442,0.0839815002773017,1.5334661402988965,0.7818457040000001,0.2347359123124389,-12.985749720392702,14.47532547432213,0.6176044172789363,-6.819764567520423,98.74225049847703,0.6247575601511767,1.5995317292980027,17.930333827929157,0.4394635488024755,0.2957655035938367,0.3553811392811846,340.42609463650604,0.0388185210406768,0,6.1237691829404906,433,0.2957655035938367,0.7676831160821547,-23.623810437163716,81.7059860965286,0.9523149728775024,-0.7313353419303894,7.065685272216797,16.212059020996094,1,1,0,-1,7
A321_15_11,4,2.7620997790320176,1.3283998937280084,1.433699885304009,0.9265536723163842,0.3077387124787018,0.6401245126006121,1.025097652,-0.7035058580000001,-1.2754345389513466,1.116819933797636,0.3945252116954887,0.5961582911647839,1.0066504,-0.6933496100000002,1.1770382067389042,1.2973166938577227,1.72860351,0.7761094616739712,-0.1231848228032454,0.120661170144188,0.089033208,-0.304394538,0.1747358962432487,0.588505055616406,-0.1033615412406015,0.067681332318741,0.0803515639999999,-0.18865234,-0.1401803599624232,0.7262599508807708,0.3934277459999999,0.499727934322312,-0.7036929128559838,0.2723478901777702,-0.26786133,-1.063876952,-0.1111975773992674,1.3940492618618523,-0.7216261630338345,0.2631669022237082,-0.32359375,-1.101757816,0.0642663649097414,1.4874495128278455,0.8338964859999999,0.3634628113857479,-17.105922906423828,22.24030869528273,0.6276418361595223,-10.211412916841802,104.57074626179846,0.5420457242255929,-1.0910716195820314,14.960031933986688,0.6282597848966136,0.2907070236946074,0.3723259106566705,297.683992263278,0.0541160101209419,0,5.537959239068239,417,0.2907070236946074,0.8556932462253896,-66.3729223727207,65.71548234769249,5.906090259552002,-1.3667199611663818,-3.5683047771453857,15.467118263244627,0,0,0,-1,8
A321_15_11,5,3.1778997457680203,1.7387998608960111,1.4390998848720091,1.2082551594746718,0.1889038107038759,0.6434735485101751,1.012011722,-0.7959082099999999,-1.0292715822266978,0.9960658685208896,0.3662721842808988,0.6578345038261479,1.014843752,-0.7955273519999999,1.2519897422966182,1.3417608371871792,1.810751962,0.8242261597347927,-0.1905569268868217,0.0970882129319571,0.029326176,-0.309218752,0.0853228616682511,0.722837232534747,-0.1632027406741572,0.0836459051418231,0.030185548,-0.299863276,-0.1337573840589297,0.872090481480941,0.3394043,0.0911306228470316,-0.7480851515937985,0.2348774097842285,-0.323203126,-1.036406254,-0.0334001522004208,1.1811296454325713,-0.6484070680636703,0.2812577395462167,-0.226601566,-1.0497167900000002,0.1056975833289955,1.5189265167443116,0.8231152240000001,0.4069405003195723,-12.43017543312394,14.775408069785463,0.2810513143796669,-6.854089453427842,93.4902791048623,0.5640552457614354,4.428125494988116,19.37732228036471,0.4770399064855349,0.3067490845319152,0.4009131804447969,361.3504215785962,0.0666363773931941,0,6.716133079802952,453,0.3067490845319152,1.0117620447961355,-2.686946364090672,101.70025434653157,0.5692992210388184,-0.4248893558979034,10.136429786682127,16.969247817993164,1,1,0,-1,9
A321_15_11,6,4.139099668872026,1.9709998423200128,2.1680998265520137,0.9090909090909092,0.1391132113816689,0.6901667649977423,1.017373044,-0.869941408,-0.9510708797386336,0.839674827121099,0.5386178462263681,0.6616499470276561,1.0939941379999998,-0.8683496119999998,0.8298146920943243,1.409720489588867,1.9639355459999996,0.6233225013844501,-0.1934614264049247,0.1031102051026606,0.038115232,-0.316826168,0.1005844575647667,0.5038930534334121,-0.154987938243781,0.0791566680504269,0.03923828,-0.30642578,-0.1467929244319667,0.5844404764907671,0.356064448,0.3781346451164644,-0.6944660133433653,0.2669980158869824,-0.2196484359999999,-1.0103320320000002,-0.0721348256591693,1.004338692727678,-0.4380597255074626,0.3398275293500384,-0.103271486,-1.07336914,0.1131147851203986,1.3013016852951638,0.970097654,0.5783021151396708,-20.130624991126467,13.89616475758464,0.1572894639429504,-7.342603627044324,87.7996496794281,0.4132289630680679,6.162458401009127,16.795103090659516,0.3441273540958861,0.2559140663935996,0.3504609817065198,392.57217784778186,0.0573308903205899,0,7.492285499757397,547,0.2559140663935996,0.8988787588093141,28.565279135125383,195.6928939407705,-1.0338510274887085,-0.3335489630699157,16.953502655029297,22.277721405029297,1,1,0,-1,9
A321_10_3,0,2.648699788104017,1.417499886600009,1.2311999015040078,1.1513157894736843,0.314580803730038,0.6176097173110102,1.004570308,-0.668222654,-1.1588749258669528,0.9947923251180244,0.3708749339649891,0.6282118520993746,1.0362792980000002,-0.6698046860000002,1.345153083570654,1.579394067898722,1.7060839840000004,0.7886769877333897,-0.1026751863992395,0.0872017743397291,0.088984366,-0.208085944,0.1675691774266973,0.4399104697402055,-0.1104371895711159,0.1125412527457046,0.098867176,-0.256533198,-0.2130955937208113,0.8346988770226115,0.355400374,0.5190771942491507,-0.7473126327756654,0.2525652250768056,-0.20541016,-1.0457324260000005,-0.2351535144031083,1.1609997424163971,-0.7153788749803064,0.227324868143873,-0.388203126,-1.0973632839999998,0.1217609860241805,1.7146537183066075,0.8919531239999998,0.4150866039143561,-16.267901846503058,26.27070435119081,0.5773670426940178,-9.53300388205906,103.75430955806064,0.5858250910195859,0.4547849148085535,15.28691310997402,0.5519034885988388,0.3096940513015795,0.4840408517047982,304.1195583781511,0.138385140707521,0,6.4289998400344,363,0.3096940513015795,1.8214587465948904,-59.93299748293381,11.711206293094795,5.820406913757324,0.4053399860858917,-2.101624011993408,5.919965744018555,0,0,0,-1,5
A321_10_3,1,2.573099794152016,1.1771999058240077,1.395899888328009,0.8433268858800773,0.2991892087368421,0.6205519129213458,1.011054684,-0.6785546899999999,-1.4156341431521833,1.1402429191104209,0.3614930841274131,0.5965852663662005,0.998925778,-0.6785546899999999,1.1941851302794126,1.3595347216045175,1.689609374,0.7931279445413679,-0.1399515509565217,0.0972567955832632,0.069873042,-0.2513183559999999,0.2059889988100748,0.5443806511358282,-0.1331139912277992,0.0953732177890939,0.069238278,-0.2599804639999999,-0.1544632489785934,0.8322669763981699,0.3298535059999999,0.2732741526869582,-0.7649472844576659,0.211888298300061,-0.3888281259999999,-1.057001956,-0.1217053138478756,1.2534244680925446,-0.7334678121698842,0.2421823697940642,-0.342910164,-1.128291014,0.1215613622573269,1.409544524188286,0.7853808499999999,0.358886408651088,-15.49272929536478,23.27998132528796,0.3296891259088566,-8.345712754939205,104.6191863153454,0.6314073007735277,3.302467225951782,15.666588936838366,0.6860280378731487,0.3304888673694495,0.541397664928664,315.28637947045485,0.1838885401350684,0,7.300085123585999,315,0.3304888673694495,2.1023677183515055,-48.76366126476686,-36.29238239174672,5.443394660949707,2.3276946544647217,0.5739608407020569,-3.2514333724975586,0,0,0,-1,5
A321_10_3,2,2.4488998040880157,1.2176999025840078,1.2311999015040078,0.9890350877192984,0.2994998576902655,0.6362666020803037,1.0153613259999998,-0.68427735,-1.3722320224007098,1.1669640122271128,0.3679075916761489,0.6242326827987942,1.034501956,-0.6825585999999999,1.362753744497872,1.8515089177294628,1.718779306,0.7926672731489643,-0.1421096329469026,0.0800375086654712,0.04588867,-0.24640625,0.1515408267738363,0.6354755517965512,-0.1542639876849015,0.098938149791854,0.043164064,-0.297343752,-0.1784812472219682,0.9397143597669212,0.343232422,0.2899055769137927,-0.7420271698318585,0.2292728533032478,-0.362412118,-1.08711915,-0.1122521581137829,1.3482452484960603,-0.7281092078336979,0.2135494244489325,-0.420888676,-1.0771093660000002,0.0462582249482203,1.8342130648405788,0.724707032,0.2674838252523593,-11.699424112389869,19.30539767220488,0.3224972486783188,-9.360703171231286,112.73299946442307,0.5845986190727321,-0.9100985757973572,20.45737615551896,0.4712603397705051,0.3625690055660396,0.5654328379296857,329.21265705396394,0.1882580104120713,0,7.6081266374961505,323,0.3625690055660396,2.131151918304681,-34.83215714787827,-28.295817712551205,4.944074630737305,2.2822864055633545,3.0542988777160645,-2.0988571643829346,0,0,0,-1,6
A321_10_3,3,2.397599808192015,1.1852999051760076,1.2122999030160078,0.977728285077951,0.2300424155681819,0.6600963659322271,1.0357519539999998,-0.770976566,-1.4901209679399448,1.282077819500704,0.3230616327288888,0.6846287963276962,1.08328125,-0.77125977,1.4843300106873305,1.9254306979335287,1.85454102,0.8290733993474163,-0.1512998936545454,0.0867650190723009,0.020224606,-0.26080078,0.1673495198420233,0.7811388527335136,-0.1301834861244444,0.0726550632893011,0.023769526,-0.24604492,-0.1272439300013409,0.9055882235828048,0.284570306,0.3049449833465988,-0.7441580033727273,0.2164495988593476,-0.442148438,-1.072724608,-0.0550773772231964,1.40598992078347,-0.6940737402533332,0.2189676921099894,-0.329267574,-1.03239258,0.1432098555547811,1.6057307172845,0.743457034,0.210767793974841,-13.646710780821149,15.393496234564653,0.6480798796434832,-6.150713426175483,120.68665099266472,0.6653135826566612,2.310340560346457,24.365164550742367,0.5068962642397998,0.352982475921155,0.5337688642547301,313.80142109390687,0.1603125721403557,0,7.1724177976952,303,0.352982475921155,1.9555466288890044,-50.2538824767774,-48.29156858239724,5.638471603393555,2.4919447898864746,0.2491960376501083,-4.639446258544922,0,0,0,-1,6
A321_10_3,4,2.516399798688016,1.252799899776008,1.263599898912008,0.9914529914529914,0.2840389770193547,0.6726618551806354,1.0585156139999998,-0.7401757840000001,-1.4111516326877782,1.1946729090379111,0.3454766207547975,0.6455824055855977,1.024931642,-0.7398632819999998,1.3938583688685873,1.4179199992013514,1.798691398,0.8112992815541095,-0.1280166319010752,0.0688410938970418,0.024648436,-0.2246581959999999,0.129522379455023,0.5666630821446716,-0.1685238096631129,0.0949591107959231,0.0404003879999999,-0.3032812459999999,-0.1423496805870901,0.9731083630783064,0.3436816339999998,0.1547631098573323,-0.7117613578623656,0.2437787025638058,-0.33333984,-1.03574218,-0.0812399059244794,1.3944857808258768,-0.7076484226609809,0.2233058840975518,-0.368681644,-1.039062504,0.0485730903055991,1.41409589616324,0.705722664,0.2603068514833339,-11.353236608128617,17.387901280253697,0.4966644579557241,-11.744626787393363,115.3409482197954,0.6023762209697039,-2.652437792010719,23.470203090027137,0.5639745536978156,0.3517639293509828,0.5540310219471674,328.1957460844669,0.1832125112873794,0,7.365069485894882,319,0.3517639293509828,2.0992443682423376,-35.85411883861091,-32.295289075437715,4.958391189575195,2.271894693374634,2.7954084873199463,-2.6882543563842773,0,0,0,-1,6
A321_10_3,5,2.4623998030080156,1.255499899560008,1.2068999034480077,1.0402684563758389,0.2603809641330472,0.6640762229850617,1.021953122,-0.755830072,-1.4077746486633804,1.1541677989281962,0.2652870189464286,0.6836962185154188,1.0816503839999998,-0.7586230440000001,1.4652808032776348,1.5280852823902369,1.840273428,0.8427753086321492,-0.1561728794291845,0.0947593676436858,0.046689456,-0.278886712,0.1604580582368837,0.6411557639295185,-0.1247125454285714,0.0852027390843201,0.047031252,-0.237802732,-0.1488592347109536,0.9236646397625272,0.325917964,0.240315201400956,-0.7250790894034335,0.2223467481786806,-0.36208007,-1.0330175860000002,-0.0363089921520329,1.30755072739102,-0.7069859316607143,0.2304729613698801,-0.331103522,-1.050224608,0.0734950444080641,1.5740193818559978,0.7191210859999999,0.1743591721342127,-14.898783498501642,17.879200026839545,0.5096519629530962,-6.464058605947429,119.09341695024628,0.6611517464829999,2.6268093375575057,26.627266648585007,0.59599388347698,0.3569541258079468,0.5257013326935229,325.89911686265543,0.1489456432644306,0,7.459139855624948,313,0.3569541258079468,1.860515331570531,-38.15107417924334,-38.29419806902443,5.232656955718994,2.3853423595428467,2.2281758785247803,-3.483356475830078,0,0,0,-1,7
A321_10_3,6,2.402999807760015,1.1717999062560074,1.2311999015040078,0.9517543859649122,0.3154191138850574,0.6588766208848059,1.07354492,-0.7182910140000001,-1.4782697274098904,1.274590948832091,0.3415470710547046,0.6627679875755638,1.051279298,-0.7150683619999999,1.406672084593536,1.5777723165816806,1.791835934,0.7977672849938787,-0.1262239998666666,0.1208617238132809,0.0844531219999999,-0.31398437,0.1847618290837324,0.7161498610129546,-0.144515139452954,0.1106415011823485,0.085468746,-0.2708984439999999,-0.2185050824576639,0.8067062015559084,0.399453116,0.3911435993769542,-0.7151424209563219,0.2562516910352634,-0.318564456,-1.049570306,-0.0819219198495421,1.4880445300376166,-0.6866080161969366,0.2344587271182404,-0.321748048,-1.0504199200000002,0.0855682102242728,1.5306252233963211,0.7318554640000001,0.2373478515507666,-13.44832366936476,27.377109438696017,0.579975451987581,-8.943127909952862,123.40765682740783,0.5919529007591708,3.3384673819730653,18.793846818632527,0.7964134100993323,0.3869179022772626,0.5668131855484814,344.74385092904095,0.1715717242089799,0,7.113216980063853,299,0.3869179022772626,1.7137870459452262,-19.31866243058424,-52.297739256411994,4.192191123962402,3.154120922088623,5.519104480743408,-5.416563987731934,0,3,0,-1,7
A321_10_3,7,2.4380998049520155,1.1555999075520074,1.282499897400008,0.9010526315789474,0.4255949972820512,0.5891141339598244,1.065488278,-0.5439843739999999,-1.3555679000688137,1.2771793910069535,0.4255415213571428,0.5701403846224241,1.036572264,-0.5485546860000001,1.2255803288456384,1.4920705805258632,1.614042964,0.7765316600737544,-0.1223015213146853,0.0732899844909775,0.003505862,-0.229482422,0.148968897344988,0.5704121382925554,-0.1613817340504201,0.0656184532677099,-0.013769528,-0.244707036,-0.1282285747807026,0.6520352440185284,0.248212898,0.4752565832343111,-0.7266451284289045,0.2280672753872152,-0.320683596,-1.036513662,-0.2320983986301723,1.3197849881997306,-0.7109268104537815,0.2599987733610256,-0.261894528,-1.05711914,0.2528326221759245,1.3587215908975607,0.7952246119999999,0.5886170609406182,-14.694482811590708,21.372749698731607,0.6477049176819893,-8.789929827287617,107.55793825246464,0.5866906453736711,-2.150121480022124,14.353044070641031,0.5495340918504263,0.218412365663745,0.3099063935259609,197.44477856002553,0.0483380112734343,0,3.617118631629088,347,0.218412365663745,0.7153353869896845,-166.6470075106498,-4.260572248056216,10.492987632751465,1.235959529876709,-23.36267471313477,1.982922911643982,2,0,1,-1,7
A321_10_3,8,2.8646997708240183,1.58219987342401,1.282499897400008,1.233684210526316,0.2839818657240204,0.6255743403403109,1.0297949299999998,-0.6984765540000001,-1.091075062636771,1.0417988640747136,0.2919982821302521,0.6463636628549346,1.02598632,-0.7089453059999999,1.320860846409604,1.2885788851053277,1.7387402359999995,0.8248731414458815,-0.1918065091822827,0.0546976281924416,-0.052529294,-0.2659082040000001,0.0794606712538343,0.7906278341509666,-0.1786617198487394,0.0531508583909245,-0.046845702,-0.244335942,-0.089188905380728,0.6651262340676606,0.2190625020000001,0.0780856497659995,-0.7346340144258944,0.2434678710790467,-0.265703124,-1.00773438,-0.1626184695889216,1.2005375192946028,-0.7221327042899159,0.2241035576599787,-0.3647265599999999,-1.072177736,0.1219313594621102,1.336338728858402,0.8064746119999999,0.4513519795130057,-15.341788756723163,14.018933651781886,0.5457600750433611,-10.33009997616384,97.44725099258542,0.6442361266651496,-0.7083207187024458,19.88913359732662,0.5394614860627328,0.2242310483383398,0.2892180538888153,238.1333733353169,0.0333675196563228,0,4.706501245223139,407,0.2242310483383398,0.6926984510190461,-125.93182607589392,55.72963021499778,7.897541522979736,-1.2343122959136963,-14.274741172790527,14.448209762573242,0,0,0,-1,7
A321_10_3,9,2.5622997950160165,1.3526998917840083,1.2095999032320075,1.1183035714285714,0.2771146284741035,0.6200871740648223,0.999003906,-0.6860253940000002,-1.2418595537732386,0.9630113671344648,0.2886375982405345,0.6469854996610892,1.04203125,-0.6897851559999999,1.4100979087734302,1.4000006480516378,1.731816406,0.8333433025953326,-0.1809375193585657,0.0685542914725883,-0.011552732,-0.277187496,0.1148527658970259,0.5912677223859301,-0.1523580186191536,0.0720874427826362,-0.008652346,-0.252158204,-0.0999733380243205,0.6749389954302231,0.26853515,0.167841348660908,-0.7557495602430279,0.2294299395398441,-0.36166992,-1.0464160119999997,-0.0871665361372153,1.167981563950729,-0.7279252059331848,0.2206466931368473,-0.393095708,-1.0712402299999997,0.0755915619335684,1.3460238296905205,0.7095703099999997,0.2737543726848118,-14.522810331157894,16.415452604378217,0.5471018343627625,-8.156807543618948,108.19092229181858,0.6497935733163198,2.7864326543705276,22.14576702170639,0.6176077450779011,0.2254670902550188,0.2910166402372627,214.19373574226785,0.0338552761069196,0,3.97719864893173,387,0.2254670902550188,0.6301105686479347,-149.88516470767587,35.735565400402926,9.712332725524902,-0.0829646438360214,-20.0696964263916,10.264738082885742,0,0,1,-1,8
A321_10_3,10,4.130999669520026,1.746899860248011,2.384099809272015,0.7327293318233296,0.1483592406419752,0.6857511854407928,1.062626956,-0.844511718,-1.067348404123911,0.9639777535057668,0.5910672594140272,0.6444771819984829,1.041318356,-0.8439257800000001,0.7601958630051706,1.359749607018691,1.907138674,0.5164889109218201,-0.2034121070216049,0.0551995474287445,-0.0720898419999999,-0.275517572,0.0345701727810684,0.6231428071209162,-0.1466370569140271,0.0800629562824209,-0.021611332,-0.311455078,-0.0644242138700142,0.7735821957499366,0.289843746,0.1978288543934142,-0.7218955120987655,0.2327326205414873,-0.309609384,-1.0187890700000002,0.0477911332525615,1.1437912335709677,-0.4051982617511312,0.3188253992208545,-0.0951953119999999,-1.065351562,0.0845117235513405,1.19280254822164,0.9701562500000002,0.5781556997574235,-21.227764105566298,15.535540117757543,0.23305627600651,-7.328673492811237,90.19046182450958,0.4147200504238435,2.2000398634030054,23.51682884063647,0.3854376719920448,0.1949596360967475,0.2828383514720215,298.4832028641205,0.0419882733564345,0,5.51271935517071,521,0.1949596360967475,0.6451902382742918,-65.55024067322701,169.71557407747895,-0.3323458135128021,-1.5707931518554688,10.438931465148926,26.09686279296875,1,1,0,-1,8
A321_5_1,0,2.3894998088400152,1.2041999036640076,1.1852999051760076,1.0159453302961274,0.4638594758836689,0.5258114589572911,0.914599614,-0.6063085880000001,-1.2594105209488142,1.168175342374587,0.3206833295454545,0.5398593860734712,0.976318362,-0.6094042920000001,1.3352122472033725,0.992847444116349,1.585722654,0.7198002911093646,-0.259935724067114,0.1125114043901318,-0.021015624,-0.38755859,0.2284566035613633,0.6120514163562395,-0.2703532894181818,0.1314559475518064,-0.003798822,-0.4018847579999999,-0.2633250375175321,0.8321467385230118,0.3980859359999999,0.4017323056181768,-0.7173806721029083,0.2847229623613228,-0.344560552,-1.11154297,-0.0051658432965091,1.6020233766450993,-0.7565656288454546,0.2298411098004584,-0.339541016,-1.1088769560000002,-0.0773307646442341,1.6289465261892415,0.7720019539999999,0.2841903585787242,-12.849267966284424,28.81369759198537,0.4134641302053643,-8.967918417492097,104.51436816424996,0.4382046278524507,-2.016621726918735,24.320662933406837,0.5660019799128323,0.1284417203969837,0.2179477939758984,113.79936427172755,0.0310039653604237,0,2.453329985755305,321,0.1284417203969837,0.7517988430479088,-250.3059867833533,-30.241316631738343,13.163952827453612,2.2360305786132812,-36.32128143310547,-4.186400413513184,2,2,1,-1,3
A321_5_1,1,1.9385998449120123,0.9935999205120064,0.944999924400006,1.0514285714285714,0.4592306036260163,0.5814317452140804,1.0167480460000002,-0.62318359,-1.6090775200305394,1.632228595370395,0.4387137748717949,0.5459977480692547,0.981308598,-0.6224609339999999,1.6602700481655084,1.6865251721448484,1.6399316360000002,0.6928269512651275,-0.2720384246233062,0.1223883772674443,-0.0845019539999999,-0.4145507880000001,0.2502343316129482,0.6819206168366259,-0.3433966556296296,0.1393283617248621,-0.07841797,-0.519687494,-0.314370478059689,0.9816970950820822,0.441269524,0.4416285431260374,-0.7201862893224933,0.1968353362525483,-0.413164068,-1.0780175739999998,0.0316675105849301,1.6353185601859652,-0.7009683294415955,0.2230994325216905,-0.36259766,-1.062060546,-0.1207320668014243,2.150846093068284,0.7154199139999997,0.1226525550204246,-15.342973373215578,41.06871181422657,0.3392451618849563,-6.938088191460376,127.16594627268071,0.4623086104427217,-5.133254309721836,29.23710646249133,0.6394273477421512,0.12527245790586,0.1881888844186638,90.0708972343134,0.0197218675089657,0,1.7713648149060093,247,0.12527245790586,0.4803065488415001,-274.061093585063,-104.23461001741704,15.946362495422363,4.0850605964660645,-46.775390625,-16.764892578125,2,2,1,-1,3
A321_5_1,2,1.8170998546320116,0.934199925264006,0.8828999293680057,1.0581039755351682,0.3783108291412103,0.601711429331787,1.012695312,-0.647871092,-1.7055034997457723,1.5796109356652053,0.3852581620487805,0.5919309685010766,0.96779297,-0.6481640600000002,1.8210585894495412,1.818326384504436,1.660859372,0.736264721988992,-0.280448796074928,0.128441473200428,-0.075820308,-0.4144531179999999,0.3272979538224551,0.6961996856646927,-0.3373218373841463,0.1458232715013418,-0.075810542,-0.505839846,-0.3775289961101215,1.0449125723019046,0.430029304,0.574488788570507,-0.7570861578040345,0.2338725308182801,-0.338994138,-1.1074609380000002,0.2015218786779452,1.683461496848201,-0.7036926268902439,0.2215143839846499,-0.335253906,-1.0547363340000002,-0.2009646145594449,1.9920259692229307,0.7722070320000003,0.0219738267005642,-15.394950398735906,38.80610612839459,0.5965595446648356,-10.408522390367947,143.079925282187,0.5711610579548736,-4.553284108074183,28.93386895763469,0.7278136098852308,0.1170351543805547,0.1793612375032665,78.88169405249391,0.0184732261578228,0,1.8268379283001308,187,0.1170351543805547,0.4918882561314569,-285.2621136567483,-164.23190244500125,16.973377227783203,4.346706867218018,-50.728668212890625,-21.25156593322754,2,2,1,-1,3
A321_5_1,3,2.1167998306560136,0.9935999205120064,1.123199910144007,0.8846153846153846,0.3841354370298103,0.6034527493710614,1.003457032,-0.69113281,-1.6588688464776138,1.554450020599072,0.3525693883021583,0.5569681062049529,0.916894524,-0.6872265600000002,1.4030262055469302,1.2384982056956388,1.694589842,0.723500771733645,-0.3030040821951219,0.1430734457069326,-0.048769532,-0.44574219,0.3626923599332614,0.7128363249283156,-0.3460378749256595,0.1530062188304441,-0.032949222,-0.490019536,-0.3434140694959167,0.8678761610390064,0.457070314,0.50541464801076,-0.7398133933983742,0.2150438475233846,-0.3908496099999999,-1.0598632859999997,0.120084959284736,1.5934246307202289,-0.7541175115923261,0.1815742104256541,-0.395664066,-1.036025388,-0.2468880948934985,1.4536942691880734,0.6690136759999998,0.0357283277929613,-18.290436861347775,44.273702895165826,0.4674106406609887,-11.1544356415414,121.65679843165354,0.4644488505115866,-3.812263554374524,29.791572038522258,0.5343158781547517,0.1330533467104982,0.2114812144690384,104.44687716774112,0.0270211110024353,0,2.2869374326759155,265,0.1330533467104982,0.6061007205332335,-259.6738015776631,-86.23852554551314,15.21080493927002,3.8339340686798096,-43.33937454223633,-14.685449600219728,2,2,1,-1,3
A321_5_1,4,1.749599860032011,0.788399936928005,0.961199923104006,0.8202247191011236,0.3243412360068259,0.5923705770946944,0.987744138,-0.6669140659999999,-1.9681997033717376,1.781130971162362,0.3219026013893558,0.5772154712557882,0.94629883,-0.663076174,1.614924839972173,1.462332258058405,1.654658204,0.7696283714221993,-0.3036140474539249,0.1748393386886015,-0.0053320279999999,-0.5134277380000001,0.5443432145266494,0.9513389773894362,-0.2915978688627451,0.1633084165339666,0.013916014,-0.442998046,-0.4103147831372923,0.7459846949411435,0.527343752,0.5980161724273059,-0.7671421713515358,0.28912017279883,-0.239667976,-1.1438964840000003,0.5372704336462709,2.1606179741455107,-0.7514283818487394,0.2378137850956578,-0.250830086,-1.1089550779999997,-0.4178533605193947,1.8509078682775988,0.9042285080000004,0.0522552641431099,-13.538470422144837,45.510909609152925,0.6109187920575259,-10.016998157731887,143.06312360137477,0.6247009465703937,0.0372599491587052,37.18909637563634,0.8206356815457626,0.1136268157839623,0.1741745109547855,73.74380344379155,0.0174257070011361,0,1.6355108749249203,223,0.1136268157839623,0.4819434173751397,-290.39384578166255,-128.23081701058337,16.836441040039062,4.1872968673706055,-50.11209487915039,-19.007719039916992,2,2,1,-1,4
A321_5_1,5,2.1005998319520134,1.0097999192160063,1.0907999127360068,0.9257425742574256,0.2978043215199999,0.5934164162343627,0.8948925740000001,-0.7425683599999999,-1.6139877425078,1.407291365147598,0.2795505404148148,0.6119214368367547,0.929677738,-0.7406152340000001,1.5132691217949292,1.3699198658943454,1.672246098,0.7645663060406015,-0.2862493246933333,0.1417965914711091,-0.008554698,-0.45520509,0.3873756182350413,0.6923844914202182,-0.2462003525876543,0.1547205092178287,0.027128898,-0.3956933599999999,-0.3489859318425983,0.6341598349054766,0.482333988,0.6065246751310626,-0.7843477887573334,0.2486740162887333,-0.292519532,-1.13246094,0.3425512335835366,1.6950035489158823,-0.755067420360494,0.2390586537278003,-0.3065624959999999,-1.099277344,-0.3265683337895601,1.5779695038017802,0.8399414080000001,0.0094563559162861,-14.874090002629012,32.71204687931576,0.6224702786320319,-7.250106619715026,129.6472064950817,0.4912657955426772,3.9489872230885754,29.002679071640937,0.6247158501045773,0.1127127229285309,0.1743807247662482,87.80321116132559,0.0177044792600382,0,1.9004467414609725,283,0.1127127229285309,0.4721537351705692,-276.31767938039206,-68.23434322565633,14.923931121826172,2.8463358879089355,-43.60060501098633,-8.65748119354248,2,2,1,-1,4
A321_5_1,6,2.046599836272013,0.9071999274240058,1.1393999088480071,0.7962085308056871,0.2723210900178042,0.6022689381283478,0.941679692,-0.7272363240000002,-1.8047784909431124,1.417780617049258,0.2751090127754136,0.5968346388013905,0.94816405,-0.7283007780000003,1.4529560983323184,1.1987053072280147,1.6764648280000003,0.7951171567206576,-0.2650176489376855,0.1312400122341056,-0.081572264,-0.4241308620000001,0.3139489470735832,0.7273544583059943,-0.2920924080851064,0.1251568861775485,-0.076416018,-0.42907227,-0.2115199976131901,0.6835216418703188,0.3526562519999999,0.5739507726888056,-0.8059090149376856,0.1588070276931531,-0.453457028,-1.0441796880000005,0.230738750822415,1.4050728112889028,-0.7456632308085107,0.2004149324805,-0.4335546799999999,-1.063935542,-0.1211061041241567,1.4141415323551356,0.6303808620000002,0.0264549033674486,-12.95067029988406,29.500752249548064,0.6338809462247689,-8.104830086400526,122.25794786500066,0.6556874177880208,0.0861820645085631,26.496157481159493,0.7526552744032602,0.0954643049668144,0.1364146832890568,72.45740746981218,0.0094955322940567,0,1.489956875126187,283,0.0954643049668144,0.3558843144548316,-291.66856200860514,-68.23037455732555,15.362737655639648,2.34869647026062,-46.56070327758789,-7.757526397705078,2,2,1,-1,4
A321_5_1,7,2.1356998291440137,1.0097999192160063,1.1258999099280071,0.896882494004796,0.2164303895893332,0.6318882346413038,0.94417969,-0.7544433560000001,-1.666374740162808,1.278513750587453,0.2526852903923446,0.620360876689719,0.919726554,-0.7580175760000002,1.485166144215185,1.4360353662148804,1.7021972660000002,0.8088215185511833,-0.2365257799199999,0.1318086024812169,0.006542968,-0.370136722,0.3485471599891334,0.5774657439111969,-0.2684640660095693,0.1545717234922901,0.011171878,-0.4432031299999999,-0.3196921865132887,0.7794055374860759,0.4543750079999999,0.5486111598769807,-0.7740824983573332,0.2553162421650052,-0.298447266,-1.1025488340000005,0.2815958533852634,1.5506609058873124,-0.7387728713971292,0.2435245495340569,-0.305449216,-1.1083593799999998,-0.2842431153764422,1.61504921801893,0.8099121139999998,0.0239610814360302,-14.219115214058082,30.87609145010123,0.5778221127732721,-9.613213325020205,129.30658771901253,0.6047328212536964,-0.9728874299090888,25.40669956754437,0.6669153839150643,0.1483651818700179,0.2366403024728552,117.50522404105423,0.0339864055631209,0,2.5791876004698047,273,0.1483651818700179,0.7117789552734494,-246.61015780709735,-78.24191488953737,14.373479843139648,3.287785530090332,-39.45268249511719,-11.118324279785156,2,2,1,-1,5
A321_5_1,8,2.227499821800014,1.0124999190000064,1.2149999028000078,0.8333333333333333,0.2362674237765956,0.6379438886552575,0.93273437,-0.7884863340000001,-1.6765240551095677,1.425590482844825,0.2372554051175166,0.6220085910746297,0.928896486,-0.7797753980000001,1.4063144203240705,1.409158380132964,1.7212207040000005,0.7933223199410087,-0.2581436745,0.1345426663962595,-0.033056638,-0.440751954,0.3163869862986126,0.6563175815909263,-0.2733308356496673,0.1408332740000068,-0.015859368,-0.403212892,-0.2616303600250775,0.6110614893980052,0.424892586,0.5308844345366702,-0.7705558893510639,0.218619037133447,-0.2758593759999999,-1.0380566399999998,0.3395930049452185,1.431125789262593,-0.7287931781773836,0.2388000402784245,-0.2814550759999999,-1.083496108,-0.236569266662162,1.5779118258904894,0.8076367320000002,0.0118721197309547,-14.904112068661018,35.43739566083492,0.497621519223976,-8.69932978197578,122.60324093095588,0.5818808845164164,-1.7622675030508494,24.842381910582045,0.7435997141674944,0.1241499154881133,0.1897319266471019,102.54783019318164,0.0205850024735155,0,2.0846734590588114,283,0.1241499154881133,0.4876224469474368,-261.5720675291358,-68.23773955720192,14.49710464477539,3.129603385925293,-41.04816436767578,-9.794968605041504,2,2,1,-1,5
A321_5_1,9,2.0924998326000135,1.0259999179200066,1.0664999146800067,0.9620253164556964,0.29710704367979,0.6020642095304053,0.942080082,-0.7258007800000001,-1.61276549549296,1.3038885503266502,0.326937564989899,0.6006821749434558,0.9819726560000002,-0.730410152,1.5884868518796909,1.2544264339605586,1.712382808,0.792513380340139,-0.2298077627191601,0.1396174577268741,0.005312494,-0.384863284,0.346165727498318,0.683707525661487,-0.2639282238333333,0.1403204520459805,0.011523428,-0.413105476,-0.3204205675933264,0.6510336492945044,0.424628904,0.6006479678201522,-0.7688345563097113,0.2295627677273112,-0.350468756,-1.0982519460000002,0.2146629119098805,1.5727641076589378,-0.740092060520202,0.2247145837776703,-0.341806648,-1.098564454,-0.1413428917575009,1.7188775956074758,0.756757806,0.0299456203602407,-15.05597057359794,33.07630252024333,0.5443641247961339,-5.003655404590203,124.50267683773728,0.6117445907623169,0.1903256420051552,20.167788126420344,0.718330807697799,0.1178766045429636,0.189420315782692,91.47224512533975,0.0219851621326365,0,1.947804790327472,271,0.1178766045429636,0.5775729229225213,-272.6509198004515,-80.23538687377768,15.2156343460083,3.4594929218292236,-44.28469467163086,-12.68153476715088,2,2,1,-1,5
A321_5_1,10,2.022299838216013,0.9692999224560062,1.0529999157600067,0.9205128205128204,0.3408138279777778,0.6386610643794616,1.018330072,-0.6953906240000002,-1.7164046931774162,1.5804168107915837,0.3582567235294118,0.5873467476443641,0.97058594,-0.6953906240000002,1.5710879395521704,1.350126959497728,1.7137206960000002,0.7590411476334787,-0.2549057898333333,0.1255980401590201,-0.0454003879999999,-0.433535164,0.2998600260521473,0.8643992004216492,-0.3118180301892583,0.1331938653551407,-0.03259765,-0.46011718,-0.3294623549419795,0.9681460540808356,0.42751953,0.4705900461824888,-0.7088376209055555,0.288721024809589,-0.250537108,-1.167275392,0.2532534154939465,2.06488201059497,-0.722371099595908,0.2453995192500839,-0.255732422,-1.1454394579999996,-0.2580054223498331,1.955724791052634,0.916738284,0.021876240609139,-14.885328815504002,33.17105718570248,0.6015540158880235,-10.245255497469334,141.11474485878406,0.5247787863594725,-5.093564348071999,25.697096699105785,0.6539205302692856,0.0886746932397518,0.1204486270155159,66.5060199298139,0.0066446705287587,0,1.3310208255976717,265,0.0886746932397518,0.3207643107318215,-297.6262153648644,-86.22875963086068,16.043058395385742,3.172508955001831,-49.91987228393555,-11.796075820922852,2,2,1,-1,6
A321_5_1,11,2.003399839728013,0.920699926344006,1.082699913384007,0.8503740648379052,0.3625575073508772,0.6005312211047782,0.98951172,-0.713925788,-1.8138162372091164,1.538776814716626,0.3976426209402985,0.6228568445539164,1.019990238,-0.7110156320000002,1.570753156047236,1.5976983961165636,1.7339160260000002,0.7339561452743706,-0.2475437150467836,0.1450360297421063,-0.004785162,-0.420458984,0.422360394384027,0.6459733267131083,-0.227650322920398,0.1229269529949003,0.01660156,-0.342900394,-0.3066426291310195,0.6649543718262791,0.437060544,0.6290680896022862,-0.7657458720175438,0.2254165826822916,-0.330654296,-1.07773437,0.2137046049099913,1.6756649857209784,-0.6941414530447761,0.2383548214339707,-0.317597658,-1.085410158,-0.1749550652571416,1.7902608022517916,0.7678125,0.0515517528171448,-16.274228161663526,35.50771646787195,0.7021762603302062,-7.262398744277257,135.23364952816797,0.5741302482711288,-0.3023553406567968,20.78772234353554,0.6151182417683407,0.1533883381068319,0.2281995906570223,113.96753521337612,0.0285470709088567,0,2.3187767920365228,243,0.1533883381068319,0.6584155947221562,-250.15909451494676,-108.24067180526296,15.90648365020752,4.282071113586426,-44.79811477661133,-18.598785400390625,2,2,1,-1,6
A321_5_1,12,1.881899849448012,0.8585999313120054,1.0232999181360063,0.8390501319261213,0.425208812369906,0.6090162689311593,1.0824218740000002,-0.6131445320000001,-1.864101684185196,1.7318689200442778,0.4124856091473684,0.5338230957055211,0.948496092,-0.610878904,1.5237162813813134,1.2477490751289486,1.6955664060000002,0.7306208814076446,-0.2650529592539185,0.1207478831161596,-0.038603512,-0.406679684,0.347426983303126,0.6616056780010292,-0.2960525552210526,0.1301987443349691,-0.027783202,-0.420263674,-0.3095263513525458,0.7409990196002036,0.3924804719999999,0.427034732136431,-0.7286233835172414,0.1688276793132175,-0.4521093760000001,-0.97802734,0.0744307676595627,1.4443811202839405,-0.7392305211736843,0.1949378166230444,-0.456171878,-1.060625002,-0.0646460894089648,1.4259616342740584,0.608515626,0.086496790737966,-14.447143749166193,33.351022930388744,0.750578691907489,-11.722250448223496,127.54796977729384,0.6031517961697934,-0.2970910241060183,30.14940394794042,0.6472075838120646,0.1072080857629221,0.1591873762268565,74.83124386251963,0.0138470470970407,0,1.724881439934732,245,0.1072080857629221,0.5069220532343639,-289.29973280144674,-106.2312585968149,16.276390075683594,3.87859559059143,-49.36749267578125,-16.382282257080078,2,2,1,-1,6
A321_5_1,13,2.0249998380000127,1.0016999198640064,1.0232999181360063,0.978891820580475,0.3172112848010752,0.6174804309920717,0.966933594,-0.7207910140000001,-1.6616967327161012,1.4331880324516424,0.3086067766157895,0.6490006677890093,1.041425782,-0.716992192,1.649133905017771,1.611039659492834,1.762216796,0.7909521707124376,-0.2626018298709677,0.1310715329618117,0.010537104,-0.41088867,0.3652579966759697,0.756977863029456,-0.2181480511947368,0.1661217972289261,0.05487305,-0.4273144419999999,-0.3586169054605787,0.7406277365121762,0.4821874919999999,0.6667448423242133,-0.7585584429301074,0.2340009016923026,-0.294599616,-1.0891601599999998,0.2273381433742362,1.6558180608565998,-0.7105620643,0.241310327313234,-0.281201176,-1.073574218,-0.26780316419763,1.816281070548001,0.8079589839999999,0.0081604269102112,-14.50481999598402,36.287919630146355,0.6579981206219281,-5.979520136972034,138.35661358082973,0.5745868138012408,2.6293787894833556,21.778010737913984,0.6746152854845454,0.1412177023541714,0.2135441471424668,106.05449446798278,0.0256586633206121,0,2.180775795398459,237,0.1412177023541714,0.5366039146141739,-258.0751456128864,-114.23849852807504,15.972930908203123,4.27031135559082,-45.877716064453125,-18.69175720214844,2,2,1,-1,6
A321_5_1,14,1.900799847936012,0.9233999261280058,0.9773999218080062,0.9447513812154696,0.3369202969037901,0.6350875144765462,1.0154101560000002,-0.6946289059999999,-1.8042083466325192,1.5645138647230226,0.3231109552506886,0.6128614355695221,0.983242186,-0.6946289059999999,1.6424215862740112,1.597413851694974,1.710039062,0.7760178208305697,-0.2451311654985422,0.1554948157459207,0.04063477,-0.4364062499999999,0.4300090402486686,0.7499941237988565,-0.2467616611294766,0.1578410790638593,0.060175778,-0.4169140659999999,-0.4299013644514503,0.8880241489757933,0.4965820279999999,0.55811207182292,-0.7206054395860059,0.2965572274040718,-0.19194336,-1.1113085900000002,0.3948341619744346,2.1058171722757417,-0.7449203417355372,0.253156192214368,-0.204052736,-1.1180468740000002,-0.3905750670552817,1.8394991109217929,0.9261035140000002,0.0039016812697878,-16.098301677912055,38.62557365285431,0.6831786625686904,-11.003037841812768,150.54261830141712,0.5713042787758802,-2.6681560499234047,27.436989499044618,0.6441456497103942,0.1514119180639247,0.2205916708202344,106.74540223506696,0.025735116303466,0,2.0439849894571394,281,0.1514119180639247,0.5154687748993222,-257.37609595518813,-70.23877141029888,14.52245044708252,3.28570556640625,-40.58193588256836,-10.377188682556152,2,2,1,-1,6
A321_5_1,15,2.033099837352013,0.931499925480006,1.101599911872007,0.8455882352941176,0.3594526465028901,0.5745740785612633,0.96813477,-0.6421874960000001,-1.6640982694670936,1.446830144292432,0.4034534460440097,0.5888733426479984,0.988466788,-0.63943359,1.4671310178788053,1.3267011853788846,1.6306542840000002,0.740216442849795,-0.2631324801040462,0.1698814051632862,0.0471386799999999,-0.4611914039999999,0.4570501750503232,0.7096370724914123,-0.1837182690268948,0.1137388693965995,0.0461914139999999,-0.311181642,-0.3244127492645501,0.4533118930592306,0.5083300839999998,0.6286104072433689,-0.7735928460173411,0.2377155846473637,-0.382304694,-1.132499998,0.2004390648810682,1.7396424358850229,-0.7521104261320294,0.2037865087181463,-0.399091802,-1.073515622,-0.1403764364298428,1.3886916181885571,0.7501953039999999,0.0509774385524167,-19.47122066089124,35.92131523917982,0.6441376598560826,-5.528367658400519,127.62013399187646,0.5566719003977361,8.99279473595756,22.60407158692996,0.6263843912254055,0.1180266842193852,0.1722914925305105,88.99211990141649,0.0157540602105684,0,1.8818515151894848,267,0.1180266842193852,0.5018333738932947,-275.1330131790124,-84.23457604757355,15.32575511932373,3.5827341079711914,-45.26461410522461,-13.281582832336426,2,2,1,-1,6
A321_5_1,16,1.8197998544160117,0.8639999308800055,0.955799923536006,0.903954802259887,0.3870392523551402,0.5968775573893603,1.007216802,-0.6137988360000001,-1.840922191255218,1.649708544645248,0.4336114935943662,0.5677873923232857,0.99649415,-0.613984382,1.6628333115159086,1.42473182868893,1.6212011840000002,0.7465794913935349,-0.2145691253956386,0.1422174681260136,0.0118164119999999,-0.374218746,0.3663466033817847,0.720549342977356,-0.287025116112676,0.1226992219181721,0.0053417979999999,-0.4057421920000001,-0.3902265618730834,0.6875710557041581,0.417558604,0.5739389108267339,-0.7394924640809969,0.2669062198122894,-0.316279302,-1.095527348,0.2267682287896117,2.0401152016820254,-0.7284594802929578,0.2053049335969213,-0.357802738,-1.04018554,-0.1540451200867079,1.5990749579857946,0.7792480460000001,0.0350848741524322,-14.46523794126815,33.413731173451716,0.7743277123129556,-8.068338059099268,139.50555601185044,0.6182771002596694,-3.343013576385185,25.808606152202245,0.5972606524941269,0.0985695086870637,0.1332624316742696,66.534418363768,0.0080429276529302,0,1.377629165199742,253,0.0985695086870637,0.3433683066365318,-297.59981103891306,-98.22882357897156,16.269634246826172,3.5102691650390625,-50.15607833862305,-14.677115440368652,2,2,1,-1,6
A321_5_1,17,1.9601998431840124,0.9179999265600058,1.0421999166240066,0.8808290155440415,0.3935646260938417,0.5945270534248801,0.994589842,-0.64240234,-1.7624614220426662,1.522500995614705,0.4354008699173127,0.5806180204199207,1.0036914019999998,-0.643349606,1.5743721658653318,1.3649890708551398,1.647041008,0.7304110432339569,-0.2766714698357771,0.1538224920013269,0.00364258,-0.434511722,0.4004544917313408,0.7791856948045334,-0.2847803350077519,0.1273694331945951,0.003779304,-0.4299707039999999,-0.3378707869605828,0.6821894174688145,0.438291026,0.4957193467960346,-0.7286923531085044,0.2667202098550626,-0.3155175779999999,-1.1548046879999998,0.2016101664556181,1.977328386261632,-0.6897216670645995,0.2419909512117957,-0.319960934,-1.0786718839999998,-0.1133700915873737,1.7428503214239892,0.8392871099999999,0.110199517799439,-16.013668243680883,36.084876792834265,0.5120858187630462,-6.659182539312248,141.9315084305475,0.5113547659277404,1.2310967655268223,26.714184993261703,0.5648709921702919,0.1033093287087739,0.1434388264434742,75.10588197127868,0.0099018795332236,0,1.526840291409841,261,0.1033093287087739,0.3748634949630771,-289.0250687501342,-90.23092231098664,15.974255561828612,3.403627395629883,-48.678680419921875,-13.236621856689451,2,2,1,-1,6
A321_5_1,18,3.212999742960021,0.8990999280720057,2.3138998148880146,0.3885647607934656,0.4155647965269461,0.6214963487064877,1.052197264,-0.6078417939999999,-1.784988248682735,1.7736136726990666,0.7198636110885782,0.470810860879764,1.16861328,-0.6064746059999999,0.67894290318529,1.619252544624879,1.7764550739999998,0.2623684262710845,-0.2663818966107784,0.1935523050097673,0.078310544,-0.483427742,0.4787665559300829,0.8950357245802607,-0.3418432924592074,0.1616024661965411,0.078662106,-0.587548832,-0.1296048221579947,0.8404441635945165,0.666210938,0.0445942119310024,-0.7031721044311376,0.2437291176223844,-0.342197268,-1.08667969,0.10055629099409,1.9061464189231592,-0.2850079676200466,0.3304261034127732,0.0824902359999999,-1.005019528,0.092705706020541,1.2202686796631113,1.169169926,0.60063567074484,15.992784695276235,55.97842735374983,0.7687496994410322,-19.79432979921915,111.19558729013453,0.3453527891931185,0.2950083018337537,22.00155601513539,0.4183238436219259,0.0776485702920981,0.1442668001990603,92.47944721788888,0.0147836091712686,0,1.8575411621612872,401,0.0776485702920981,0.5366457298941342,-271.6144059393555,49.76399021378391,12.775851249694824,1.0984630584716797,-36.24806594848633,2.7422540187835693,2,2,1,-1,7
T417_10_3,0,4.951799603856031,3.1211997503040196,1.8305998535520116,1.7050147492625367,-0.3897168634122731,0.7935081226609207,0.963886726,-1.052929684,0.5732846613952567,1.2563436956601337,0.2403335141266568,0.6636550436239165,0.9618066440000002,-0.8062499940000001,-0.8858947228982303,1.007567257902073,2.01681641,0.5733558462988081,0.2521148458392394,0.2656315489831897,0.8156836020000001,-0.233974608,-0.1288848571645616,0.981357261550234,0.3871168837466863,0.3777031636206909,0.8651660219999999,-0.254746098,0.4655823173733168,1.3075919194995436,1.11991212,0.1823975629724736,0.2434512413448574,0.1454639031870332,0.570410156,0.073193366,-0.007424658417886,0.7365790053714913,0.3888821735375552,0.1346786827637291,0.604453126,0.203847654,0.1128280359026754,1.0670306179094,0.53125976,0.3647090104071664,-17.187674355267575,13.527378227561371,0.1368482317076162,-9.848846493974932,46.29441462960954,0.5135778591011089,4.794854881971666,80.56059774415374,0.457500145307685,0.242494655477818,0.3612695039901485,444.977692801796,0.0717119965779823,0,8.683857383321254,671,0.242494655477818,1.0319171086390433,81.01326464202874,319.679742771191,-2.1672980785369873,-0.1685195863246917,21.972631454467773,25.091632843017575,1,1,0,-1,6
T417_10_3,1,3.029399757648019,1.428299885736009,1.6010998719120102,0.8920741989881955,0.1667322742641509,0.6709258294232594,0.901240228,-0.792626952,1.1271595608721905,1.270398302822649,0.3885563501245792,0.4926063973908799,0.929628912,-0.596240228,-0.9168197073471932,0.7623405365623142,1.722255864,0.956236291660322,0.3950775547358491,0.4345971095970968,0.856083986,-0.3884277300000001,-0.6887080562168527,1.207053854608508,0.4912661454781146,0.4556441570697078,0.9266015580000002,-0.364521478,0.7972729824002808,1.045495691369131,1.3150292880000003,0.6121246249249164,0.3765495631735849,0.1643753050891577,0.6232226499999999,0.122705076,-0.1243625108241667,1.010054257440176,-0.2699256571818182,0.2870877533920757,0.27665039,-0.561806638,-0.4556011194535196,1.0032288119960988,1.185029288,0.8903258177039136,-7.05128266328228,19.482739293131942,0.1873696551705147,-49.23346547660018,29.450753896981755,0.0301025741520277,7.987440123168293,98.78464333069276,0.6368980822011596,0.3726949963235579,0.4557273553702189,418.53648087135554,0.068785862148117,0,8.186318795302789,475,0.3726949963235579,1.0963272427172293,54.521094552442584,123.68634681297117,-0.0451840087771415,0.9659419655799866,16.954833984375,13.50788116455078,1,1,0,-1,6
T417_10_3,2,2.853899771688018,1.398599888112009,1.4552998835760091,0.9610389610389612,0.3183087964354527,0.5457749787409389,0.9233984380000002,-0.5998535079999999,1.050122463532169,0.9269422399428462,0.3804492725814815,0.4959749545277971,0.91097656,-0.5297460900000001,-0.960336856872296,0.8770290995215674,1.5232519460000002,0.9760191467686414,0.4928811781464354,0.5273072272708246,1.081865234,-0.325888676,-0.859285695798477,1.2705129569184077,0.4502456044925926,0.4400588276812994,0.930634768,-0.2972265639999999,0.8386171590978896,1.1486417257690495,1.4077539099999998,0.746504128367149,-0.249599363973025,0.3114011865510588,0.2470214839999999,-0.5683007839999998,0.4843292422355383,1.2783181882063317,-0.3683875495740741,0.3094993963183507,0.231015632,-0.6799218740000001,-0.5211219230887771,1.0855101451339424,0.926943358,0.5904357853592084,-18.339863906024576,12.230657501179088,0.3675611324373434,-10.172312244153128,61.721717425457165,0.5951665788065725,3.913780080894148,92.55510269852998,0.6220559246159775,0.4365282580303716,0.5515965024374878,461.8468969961332,0.1137017814422388,0,8.529444807204946,463,0.4365282580303716,1.5780240081095989,97.82973770194953,111.67537751448172,-0.2959205210208893,1.324044942855835,19.93389320373535,12.175737380981444,1,1,0,-1,6
T417_10_3,3,3.14279974857602,1.4795998816320095,1.663199866944011,0.8896103896103896,0.350279448287796,0.509874505948495,0.8933984319999999,-0.5251171840000001,0.9396081678964152,0.9678423300904232,0.4190935217504052,0.5114797026382775,0.937841798,-0.6266406240000002,-0.8962744764638589,0.908007153180144,1.5644824220000002,0.9743091285262278,0.4016900221821494,0.5824700895938578,1.075712888,-0.424003906,-0.9044952142898632,1.3141937274787971,0.399411911286872,0.4907967776828482,0.913671874,-0.421787114,0.7944493889527725,1.0540810673764864,1.499716794,0.7531573123891666,-0.213461494276867,0.367244782497264,0.327001958,-0.6148632759999999,0.5450494353314432,1.0692043043354629,-0.2967532700421394,0.2820708394052035,0.2723339919999999,-0.5924707060000001,-0.4402282170364371,1.0257534787346825,0.941865234,0.6198200368373477,-18.924709914575107,11.294062975394878,0.2458341965226371,-6.153280770367386,58.430478013950626,0.6327011781786513,-0.5728765957115809,90.68506420125088,0.6841067050879227,0.4100386595451091,0.5225971909017257,477.6950383700521,0.1049761216168249,0,9.344644527575449,455,0.4100386595451091,1.20162227351668,113.68604408558154,103.67241659850689,-0.4451842308044433,1.536529779434204,21.29718589782715,11.686782836914062,1,1,0,-1,7
T417_10_3,4,3.4451997243840218,1.746899860248011,1.6982998641360108,1.028616852146264,0.409353782308642,0.5266716417723654,0.9008886700000002,-0.6257421900000001,0.8738024111944719,1.0289014981780806,0.5064154110317461,0.4772432130671393,0.918164066,-0.59063476,-0.8775952642251627,0.934816684685113,1.543906256,0.9546053373377876,0.246500257919753,0.6401979494639151,1.0913378879999998,-0.5232421880000001,-0.7444381945370203,1.297164078819553,0.2956486075428572,0.5210183460853636,0.960917968,-0.4134081919999999,0.7935613141473284,1.0917811935744592,1.6145800759999998,0.8556756203909306,-0.138234637574074,0.3570598282647394,0.333037104,-0.6161425739999998,0.3644514367924946,0.9970100420191323,-0.2283438102190476,0.3085904650821379,0.2420312519999999,-0.614707036,-0.3763874445842919,1.1122973219158765,0.9491796779999998,0.7706510623604639,-17.94394296966484,15.727970262800817,0.1769206529267348,-7.492333599691464,54.642840053953435,0.7066307112935439,3.1450733878903683,92.43943984440564,0.7355514658165189,0.4154895293933602,0.6019272832687457,530.580129035321,0.1896849053077769,0,10.375373489554237,509,0.4154895293933602,1.7009784153355232,166.59534842871915,157.65858857186487,-1.0002137422561646,1.3791228532791138,23.821657180786133,14.244659423828123,1,1,0,-1,6
T417_10_3,5,3.288599736912021,1.55519987558401,1.733399861328011,0.897196261682243,0.3371321733795494,0.5442339821672417,0.9458984379999998,-0.589531248,0.911514918600197,1.200156922062083,0.3788393184479004,0.5678204208527978,0.911425772,-0.623056646,-0.798934555665077,1.0900924148829971,1.5689550839999995,0.9574996079703332,0.41346092257539,0.5840783528601414,1.05603516,-0.46527344,-0.9032324732359542,1.1745097620056504,0.3246820632783825,0.5468608935700797,0.937128902,-0.443789062,0.7882247071101233,1.0614861947065688,1.5213086,0.7940657092976222,-0.2213266333275563,0.3257703704925006,0.259912118,-0.5826562439999999,0.4335694161155849,1.4387708783125053,-0.2452659218662519,0.3047747524735875,0.2118749999999999,-0.6082812479999999,-0.3918870049288973,0.9756065904052016,0.868193366,0.651508160558554,-18.74249126917966,17.982679952615065,0.3030264935074023,-8.243667558935192,56.65524211538578,0.5906911236839163,-0.3638176850303572,92.88419549827766,0.6292167247947418,0.5229744429338812,0.6949880183280692,637.5058459364012,0.2095060776575732,0,12.91551435331602,491,0.5229744429338812,1.7942884303837323,273.54419617267985,139.63323274864106,-2.286837339401245,2.167548894882202,30.081148147583008,15.099886894226074,1,1,0,-1,6
T417_10_3,6,3.2021997438240204,1.5254998779600095,1.6766998658640109,0.9098228663446056,0.3605023771130742,0.5427147001844808,0.8985839839999997,-0.55698242,0.9275071918669114,1.0957116712334705,0.3956146528874598,0.5454696470041376,0.968164066,-0.617783204,-0.8052229379193506,1.062053550486929,1.58594727,0.9687468914207265,0.3596426229575972,0.5985939932815901,1.051874998,-0.511591796,-0.8600024260601049,1.3615397951787285,0.4167935791672026,0.5176401780019212,1.062333982,-0.38941406,0.8658365587999314,1.1280706278979789,1.573925778,0.761978675058051,-0.1923545341448763,0.2968249452399925,0.238017578,-0.575097654,0.4227930275959687,1.0863612035327712,-0.2553323434630224,0.2404563586610447,0.177548832,-0.5381250019999999,-0.3750216975630138,1.0143388310828856,0.813115232,0.6833879977056919,-17.570610885122157,14.113025857538284,0.1447029139954434,-5.915863003619209,49.985318687645034,0.6823799162599586,2.5222368894035343,96.0873344549574,0.6997762283452067,0.4417824713482771,0.6145111728273752,524.3957934904049,0.1824522295390849,0,9.801136195161495,497,0.4417824713482771,1.4589629471214691,160.3986927654692,145.66090533637976,-0.8535370826721191,1.6022409200668335,23.58774185180664,13.749748229980469,1,1,0,-1,6
T417_10_3,7,2.986199761104019,1.3337998932960085,1.6523998678080103,0.8071895424836601,0.353250536420202,0.503280785143483,0.882763676,-0.492021492,1.0156163010723591,1.0318850799418475,0.4278227272822186,0.4872171808707338,0.919638674,-0.56029297,-0.8595866434461799,0.8300074745513699,1.479931644,0.9777620291433572,0.4383489977696969,0.6025289843795345,1.1129199240000005,-0.41900391,-1.0762542561408184,1.4017207219485104,0.4572383692985318,0.5101855520207214,0.988759766,-0.396005858,0.8242155077188845,1.1225347341639125,1.5319238340000003,0.7142397950907355,-0.1287280621656565,0.301719897767447,0.314179686,-0.513867182,0.5700349069013363,0.990185456491432,-0.1565901109429037,0.2534520188990884,0.322099598,-0.4114257800000001,-0.3829893528371599,0.7873016682992398,0.83596678,0.6680176079574854,-18.83122301458717,11.913468914923367,0.0266442028087366,-6.930998023299008,46.11802933614083,0.7260796597856516,2.363223032034326,102.37281816336996,0.6999925427653451,0.5403478137356555,0.700135832480662,598.1650298053706,0.1982144241144871,0,11.469003495282688,433,0.5403478137356555,1.6918905871016512,234.1706607656973,81.64327589160919,-1.8134498596191408,2.3669681549072266,28.89905166625977,12.099725723266602,1,1,0,-1,6
T417_10_3,8,3.0482997561360192,1.56599987472001,1.482299881416009,1.0564663023679417,0.3241052427022376,0.5677581488646807,0.91920899,-0.560292964,0.8946647676140463,1.1659920364191438,0.3777446025418182,0.5205723030468827,0.91453125,-0.541054692,-0.9104240652780948,0.931742901987864,1.4795019539999998,0.9600420480047404,0.4664906767745267,0.5712126703014079,1.113291012,-0.368505862,-0.8241165486879403,1.376820352540665,0.5120139725418182,0.4951063660358573,1.0309375000000005,-0.336406254,0.8991056146660804,1.0762062363530691,1.481796874,0.7507723073525947,-0.1431724493149742,0.2706133829717422,0.308886722,-0.438183592,0.356570059176945,1.0055671940123694,-0.1667198691454545,0.2191966813693242,0.284599602,-0.363906248,-0.3905130353562657,0.8633020997351086,0.747070314,0.6105255376059755,-17.234609654100886,13.944301905188096,0.2716202069546851,-4.89551918554513,47.42142933398357,0.5337176270463759,0.3009789316601787,97.68510362379268,0.6167532799731368,0.4894777064979376,0.6793219466450058,553.1098083426696,0.2218898820350789,0,10.858490858196513,417,0.4894777064979376,1.8100242702574736,189.1083120592005,65.6533469250527,-1.3243879079818726,2.23762845993042,26.711545944213867,10.709024429321287,1,1,0,-1,6
T417_10_3,9,3.005099759592019,1.482299881416009,1.5227998781760097,0.9734042553191488,0.36425126168,0.5313900617135818,0.984111326,-0.506621098,0.9447351926266376,1.02882720970211,0.3318481586938053,0.5335434279624888,0.927207024,-0.521044916,-0.927990963390823,0.7865345196894786,1.505156242,0.9663654095302276,0.46860512972,0.5553952913362006,1.120351558,-0.318583984,-0.8063970610711579,1.508113999594124,0.5931622134336283,0.4552517559963227,1.10376953,-0.164384768,0.8327780400921704,1.3207622305655005,1.438935542,0.7340109370032231,-0.0761118797090908,0.3086744525912387,0.384238278,-0.4552441419999999,0.4449575651115556,1.4851392111825934,-0.0899262651008849,0.1998479552867774,0.315302732,-0.286796866,-0.3866041181360895,0.8145610251981215,0.83948242,0.6895986048787195,-15.43014332563196,14.837897161829504,0.0816440667356579,-5.340069873267504,43.96350425571558,0.5706061739321677,0.4262086803662462,98.8982162639954,0.6367141366366817,0.5149671224126776,0.655835718553944,573.6733743677229,0.1649293525651742,0,11.274469092655568,429,0.5149671224126776,1.5597247894452773,209.6778651648803,77.64918105646247,-1.5931363105773926,2.296168804168701,27.581806182861328,11.422368049621582,1,1,0,-1,6
T417_10_3,10,3.5693997144480227,1.663199866944011,1.906199847504012,0.8725212464589236,0.4507414922852512,0.5055753209178259,0.919931638,-0.5244140580000002,0.830853241071433,0.9929947985577458,0.4578488830721357,0.4988976744912703,0.8960449200000001,-0.5278418019999999,-0.6960377799511966,0.8191278299036844,1.4477734399999995,0.9566363369168446,0.3886906935008104,0.5908626141219095,1.132080072,-0.412011716,-0.8842670765133768,1.1857687142219824,0.3591653892644978,0.5917377168283136,1.1190624960000002,-0.367119136,0.7795645624176034,1.097098098536605,1.5440917879999998,0.8414375035434003,-0.0204013733873581,0.2308943681095192,0.3016503899999999,-0.389335942,0.3403172626751164,1.2552907703612493,0.0746894068429985,0.1698618242049341,0.294228522,-0.1298925819999999,-0.1977664726464106,0.4740875112852534,0.6909863319999998,0.8637115434259477,-16.562671143800454,13.317532610348112,0.0390811767997713,-2.4376952531065763,26.43299974521547,0.7150745662409419,1.043044305230535,92.91293627788698,0.7595263490922893,0.3940305144495544,0.5765055746076938,521.3023706167605,0.1770986312363667,0,10.447759939034649,493,0.3940305144495544,1.7746359314231526,157.31648036486348,141.66054361934022,-0.8639729022979736,1.555696964263916,23.477113723754883,13.435968399047852,1,1,0,-1,6
T417_10_3,11,5.070599594352032,1.4741998820640094,3.5963997122880227,0.4099099099099099,0.398379888595978,0.5228294551649392,0.905322262,-0.5135937499999998,0.8835168675881391,1.1731281723178992,-0.209593074576144,0.6529334027033062,0.8823535140000001,-0.781357422,-0.4398930532094615,0.9108632887427788,1.686679684,0.6243268306096592,0.4978981046727605,0.5672984849513854,1.1850097619999995,-0.426621094,-0.9925073986245804,1.272488453280641,0.575845163303826,0.410478664506138,1.072382806,-0.35226563,0.2815071179493306,1.180799820207131,1.6116308559999994,0.1060799255141241,0.0246959264351005,0.1406478792123165,0.28946289,-0.195615234,0.2362974046045216,1.2151206211960888,0.0932896451612903,0.1063187288269447,0.297587898,-0.127089846,-0.0545168701159879,0.6907874337272424,0.493203132,0.1160802243668136,-20.16246685605748,16.753815111255946,0.0567475663118608,-2.649001863871208,16.072704698831412,0.3088531881336898,-1.067329600460885,81.18241820686916,0.561594623774029,0.2953714852411755,0.4775938231251794,555.0030207681689,0.1408515455937471,0,10.795670707472285,643,0.2953714852411755,1.4413555012089765,191.05259256889812,291.65334951452974,-2.5958943367004395,0.9779422879219056,26.832324981689453,20.765972137451172,1,1,0,-1,6
T417_10_3,12,6.677099465832042,4.471199642304028,2.205899823528014,2.0269277845777234,-0.1111755099891369,0.7319758934611508,0.929052736,-0.80663086,0.3574744980916097,0.8812727686332236,0.5837377773936431,0.4533806491729338,0.92214844,-0.5795898380000001,-0.6502802650873751,0.9466412129249152,1.735683596,0.7172788012303872,0.3709293965890163,0.5213879559629663,1.100986332,-0.5319238299999999,-0.2515404365662499,0.9684224619598096,0.1099757770880195,0.5822397973523982,1.031230464,-0.4701367199999999,0.6743722603054528,1.042020405794804,1.632910162,0.3338551913144516,0.0792339836101388,0.177085399356726,0.373867188,-0.28667969,0.0413802895870249,0.7295774057960925,-0.0508956198166259,0.2863171956497417,0.266152346,-0.48300781,-0.3001051729272023,0.7215076256532593,0.856874998,0.2028283509104707,-10.933436272440582,18.870308587609596,0.1275894289820118,-13.138450428839128,26.95559194415046,0.6002994181399821,4.982121955944223,71.04189039408584,0.6810937929000043,0.269501977447915,0.4653315396924306,666.7478922061418,0.1439021259841916,0,12.091384846548468,955,0.269501977447915,1.5214057577708553,302.8777798184319,603.6264697443208,-2.752845525741577,0.4817032516002655,27.433347702026367,24.601892471313477,1,1,0,-1,6
T417_10_3,13,3.5018997198480224,1.58489987320801,1.916999846640012,0.8267605633802816,0.373941707452381,0.5570198460513186,0.9778710920000002,-0.5809667920000001,0.931342103657463,1.0891291175165974,0.3768776094964838,0.5690522940335913,0.929892576,-0.5983105500000001,-0.7304504736681642,0.9121210968920694,1.5761816420000003,0.9613838786769284,0.4327864256904761,0.5801412506851032,1.10535156,-0.345771482,-0.8255894155329174,1.2252114179759517,0.4128438853136427,0.5481484589648492,1.001757812,-0.3775586019999999,0.6671904070528636,1.0320126879109828,1.4829101619999998,0.7749776096170988,-0.1244131000442177,0.281986202388513,0.261962886,-0.486777344,0.3645796682603248,1.2121559818656136,-0.1358491713980309,0.2474665215944653,0.256035156,-0.42393555,-0.3091684086667062,0.6840142390469943,0.74874023,0.7474746633535614,-18.555056960187983,6.239418189411493,0.2008254612380956,-7.070567467963018,40.844530912954625,0.6470683389515786,-0.4566566232958277,92.71094917541012,0.6306461836375001,0.4889672568705676,0.6402744738689278,634.6794994179968,0.1708624235966047,0,12.887677184082364,505,0.4889672568705676,1.4666928560104968,270.71995671228933,153.63474103311347,-2.341684579849243,2.171642303466797,29.69843482971191,15.703690528869627,1,1,0,-1,7
T417_10_3,14,13.529698917624088,1.841399852688012,11.688299064936077,0.1575421575421575,0.4598987554055637,0.5132736707468301,0.939462892,-0.503779302,0.6973454440791448,1.051935635098469,-0.5733780398771363,0.5629100061898137,0.9592675740000002,-1.037666008,-0.1446349974968978,1.1069831350189332,1.996933582,0.7156052142101286,0.4557440449106881,0.5074092021531735,1.055410152,-0.5038378859999999,-0.8087692490178238,1.046134630006566,0.2852352389381062,0.4447974704110465,1.05894531,-0.5114257799999998,0.0579739774141094,0.9848599814561264,1.5703710899999996,0.1856887075334347,-0.0814356612855051,0.2372100848773752,0.2396093739999999,-0.472626952,0.3578342949458535,0.8707103927282104,0.0975713972157043,0.2722546081402667,0.7754003920000001,-0.296337888,0.010298427113415,0.8369905700434839,1.248027344,0.2790208845154988,-29.093088910778533,36.02535482206533,0.1507794019077437,1.307213206333599,31.173909956888004,0.0493894153145019,2.640111108606145,49.539475275362456,0.1342267201212446,0.2215109657168456,0.4204538594442908,1110.2129601728304,0.1277143399887899,0,22.12590658908886,1681,0.2215109657168456,1.5671959391251602,746.620076343174,1329.5197277855348,-2.670201301574707,0.3796020448207855,29.85903549194336,24.96466064453125,1,1,0,-1,8
P714_10_9,0,2.7377997809760175,1.6739998660800106,1.063799914896007,1.5736040609137056,-0.506829081236715,0.6604963328287012,1.069667966,-1.171865236,1.2212982625784057,1.5701969651499348,-0.3348491636911392,0.7537568227546255,1.0674902300000002,-1.227304686,-1.9989147134006624,1.84973138818023,2.296972652,0.5614387390279247,0.1963844566183574,0.1790158303285947,0.529707028,-0.00230468,0.0664984258694556,0.8128076688097403,0.2909594279949367,0.1168439932801908,0.486689446,0.1274706999999999,0.0063249770053403,1.1107076189768974,0.532011708,0.4397155976737382,-0.4914362543703704,0.3226706876022183,0.083310548,-1.033964844,0.1808974254634298,1.5583063470974052,-0.576761594658228,0.3114937688539884,0.0568359399999999,-0.993222654,-0.4793492092447193,2.037324593900737,1.117275392,0.0866622374864649,-12.43798417333596,15.737691056014166,0.1787435521190927,-11.891306226451231,124.26979113072056,0.4915327121927302,1.0599099132256131,70.89875399465005,0.5158922974661168,0.4931064054976339,0.6248370564097399,500.5030015800984,0.1472674199199915,0,9.83081322657186,393,0.4931064054976339,2.0900037467111767,136.4869950318113,41.66504273637421,-0.4390917718410492,2.1403510570526123,23.135765075683594,8.99107551574707,1,1,0,-1,2
P714_10_9,1,1.9196998464240125,0.9935999205120064,0.926099925912006,1.072886297376093,-0.3914898539403793,0.7140486438095408,0.8331640559999999,-1.2511425799999998,1.8869693216499657,1.8302792146617208,-0.398460239116279,0.7327694454504783,0.8159374959999999,-1.213779298,-2.00151566816573,2.31221755328869,2.0843066359999995,0.7709588418771346,0.2674081919403794,0.1004578791427486,0.404677736,0.060097652,-0.0738122462431436,0.8001866772044046,0.3362932382674419,0.1364306919008653,0.5392675819999999,0.065781246,0.1047213430067956,1.2516776010010606,0.4791699299999999,0.0893334738513611,-0.5743540919620597,0.3241936413700845,0.1183496099999999,-0.98511718,0.5571891105976708,1.9563345065591224,-0.5322131910174419,0.3323690201573442,0.100527348,-0.953906244,-0.5506332478083505,2.499642847028125,1.10346679,0.0452090147900067,-14.354606041412923,27.066011813139948,0.1163213113539827,-7.142635192896072,162.4980532233214,0.6049195259585558,0.1958979497275261,85.98962764761019,0.5929034430850941,0.6411914236598248,0.85521482483761,456.52829364579526,0.320265954847111,0,10.143215022295744,217,0.6411914236598248,2.9286620922090076,92.48527578265686,-134.3274736988891,2.068833351135254,5.903102874755859,18.462547302246097,-15.001753807067873,3,3,2,-1,3
P714_10_9,2,2.0060998395120127,1.0880999129520068,0.9179999265600058,1.1852941176470586,-0.4481972738019802,0.6765529220466561,0.7539550780000003,-1.194423826,1.646559357898802,1.614073585669463,-0.5192153144164223,0.6700411988179154,0.7539550780000003,-1.15862305,-2.0041127812440416,2.1500190284218483,1.948378904,0.7101333384933464,0.2619363266386138,0.0903620103608672,0.389130866,0.10308594,-0.0400371836091866,0.7348665381904054,0.3615217508680352,0.113216619038163,0.493779304,0.1195214839999999,0.0941138223439193,1.063997952654468,0.390693364,0.1747774017888831,-0.5708854568465347,0.2469361485973175,-0.123652342,-0.936230472,0.2517738295344252,1.719114967173846,-0.5516327201700879,0.2377873097871106,-0.13545898,-0.8863085879999999,-0.1996527981073039,2.1530066987265304,0.81257813,0.0937046295401052,-14.226972224163976,21.905841802381087,0.6926068792056003,-9.176031117580656,148.4065868009685,0.4972871142603592,0.2994197462446248,67.07127238034003,0.5837068137068624,0.6143600929504056,0.736707863109673,457.08390915510176,0.1653001517575896,0,9.46537939323228,231,0.6143600929504056,1.7298248640451703,93.028614345213,-120.3239837845937,1.870838642120361,5.749148368835449,18.40342140197754,-14.100971221923828,3,3,2,-1,4
P714_10_9,3,1.916999846640012,1.0502999159760067,0.8666999306640055,1.2118380062305296,-0.3905645277538462,0.7124412104636211,0.7885839820000001,-1.1718359359999997,1.7846371893290909,1.5561231688048602,-0.48542999010559,0.6890691838774354,0.7897949180000002,-1.13738281,-2.209778459925221,2.22434911462817,1.961630854,0.7493859920181491,0.2607914926564102,0.0984468176437727,0.36213867,0.056396484,-0.1225747313141195,0.8050133984731275,0.3193380311552795,0.1162343541213517,0.486923828,0.077177736,0.1119322992511131,1.2195352307727083,0.430527344,0.0817455228231018,-0.5618470308102564,0.2567100366115786,-0.0814160219999999,-0.912431638,0.2169302220578367,1.7384370175402957,-0.6053469852857143,0.2615278766339076,-0.09089844,-0.973964838,-0.3151433943126537,2.416549109850982,0.8925488160000001,0.0143798099987797,-13.031510335552744,19.678188251400822,0.7255625479099341,-3.410599794911387,157.4801595256666,0.5979668921395782,-6.185688524781994,65.10481355007961,0.6200837495484219,1.25874392425508,1.6742824801600962,894.9669301453619,1.2187855565219643,0,16.688501225912454,167,1.25874392425508,4.0914429191515005,530.9637629941213,-184.43251446086697,-1.086490511894226,7.898964881896973,33.92013931274414,-14.918462753295898,3,3,3,-1,4
P714_10_9,4,1.992599840592013,1.0907999127360068,0.9017999278560056,1.2095808383233533,-0.3808605808098765,0.7102207428073257,0.8951855440000002,-1.180898428,1.8531411860217295,1.4167662006317856,-0.4302920358268657,0.7692878678187669,0.8947753880000001,-1.34363281,-2.12980089781808,2.808925776860931,2.238818354,0.7528415378901345,0.2639355952592592,0.09836552121544,0.391601558,0.076650398,-0.0845494768776339,0.7328116365984247,0.257487287719403,0.1009299720431732,0.438261712,0.080693358,0.1281291719269823,1.0902499571275768,0.361611314,0.0552143870479662,-0.5708594722666667,0.2815331493668019,-0.01896484,-0.9570312520000004,0.3083943059330051,1.7354467046116686,-0.5734573247701493,0.2578880046827391,-0.027636716,-0.914218754,-0.445290013445329,2.3140913673001027,0.9380664120000004,0.0001438225759622,-11.56582257197564,14.853663770366008,0.55468825050205,-8.914086365897171,160.4427031602689,0.56098713412517,4.142135056703656,65.8810380141303,0.6212804839966024,1.689808578634438,2.151599034180094,1248.7685396108495,1.7739253714581742,0,21.657184137038413,151,1.689808578634438,4.518176007770998,884.7958980784784,-200.5154303362556,-2.305593967437744,9.55229949951172,42.21327590942383,-15.891935348510742,3,3,3,-1,5
P714_10_9,5,2.035799837136013,1.2095999032320075,0.8261999339040053,1.4640522875816997,-0.3527682390512249,0.7303407205909175,0.900009766,-1.156083982,1.592169996751895,1.585170353300702,-0.4733172925081433,0.7313404098549938,0.9003710940000001,-1.2840918079999997,-2.294425622914959,3.253641036584882,2.184462902,0.7104366746372983,0.2584420692338529,0.0963055224446161,0.4153808619999999,0.06318359,-0.0945802803838833,0.8112018814225767,0.3166063036286645,0.1423987380556846,0.546777344,0.08310547,0.1616493544957336,1.4304030654538895,0.483593754,0.1259992007590203,-0.574365080400891,0.2197492407909236,-0.1249902259999999,-0.904755862,0.2514955492201731,1.4242210141120446,-0.5914768983843648,0.2769906365759179,-0.115996086,-1.0281445240000002,-0.455220958712529,2.8424312665852,0.9121484380000002,0.0029327038990411,-11.436692222219866,17.373683482487802,0.4045185961066939,-6.133183972569531,149.1092250947798,0.6086740431207243,-2.6107205589615954,72.1515990808546,0.6177643746857324,1.4394991386668614,1.9654660578379028,1086.8218496934803,1.7908990542902314,0,24.823951488517928,179,1.4394991386668614,4.905286355232524,722.9339988008323,-172.4830143997008,-1.7722848653793335,9.0065336227417,38.7229118347168,-14.950193405151367,3,3,3,-1,6
P714_10_9,6,2.2247998220160143,1.2878998969680082,0.936899925048006,1.3746397694524497,-0.2613577082259414,0.7519688057057119,0.919550782,-1.2080468760000005,1.487068458122231,1.6197659409610388,-0.3703828211781609,0.7696117026045335,0.925488282,-1.249531246,-2.006753237709638,2.6420854602140325,2.175019528,0.7979468605963305,0.1849637135606694,0.0877843874738179,0.297490234,-0.00795899,-0.1608420363163874,0.7154576813687865,0.3924541746896551,0.231123213268559,0.717158204,0.009511714,0.3562592877600042,1.6203085289455357,0.725117194,0.4048889893014646,-0.6041869411757322,0.2746149143452662,0.120908198,-0.95484375,0.4829583040299374,1.6774825315296575,-0.4553606240574712,0.3157642944631205,0.132480464,-0.906972654,-0.4010170990041973,2.500354231438385,1.087324214,0.0596530747506396,-19.287713667558787,34.880451434652606,0.7986099636045434,-0.9432331172969708,151.19463396915208,0.5847457433996897,-19.12674692775515,71.05681671018365,0.6632328331084268,1.8528968263298824,2.3558380451162244,1528.6398817221527,2.1167462457936836,0,25.05700782483635,189,1.8528968263298824,4.824685679801525,1164.693776210808,-162.5801738466959,-2.522117853164673,9.808847427368164,45.1816291809082,-15.490938186645508,3,3,3,-1,6
P714_10_9,7,2.3759998099200152,1.1960999043120075,1.1798999056080075,1.0137299771167048,-0.3518247221801801,0.6677915720941381,0.61520508,-1.177275392,1.317432808345875,1.6360898537562558,-0.1381149685936073,0.8475652896222658,1.041279296,-1.27890625,-1.4289562987389075,2.5622446625461244,2.320185546,0.7951405581344919,0.3502173510720719,0.1152002673912055,0.4878515559999999,0.0517871119999999,-0.2437120017726863,0.7958627013725077,0.2159476443333333,0.1575535015093838,0.4449316400000001,-0.023271486,0.0527967853068793,0.993698814176927,0.5111230419999999,0.223643010304411,-0.6178341868603605,0.2301042397722598,-0.254804692,-0.915810554,-0.0146472079270599,1.4558316535396558,-0.4625507236529681,0.327635692121915,0.06170898,-0.999052736,-0.072528331931596,2.100553768128564,1.060761716,0.0011001074365833,4.228619201328037,25.150792060641677,0.6590558616565341,-11.05251135114188,145.5131328741608,0.6410022251103951,6.686841592819526,62.08862812607529,0.6777090799939579,1.472752515433776,1.8551553143887245,1297.4949660971563,1.2726012687882124,0,24.0064437616397,191,1.472752515433776,4.222467279701498,933.5617624683008,-160.52576130441497,-2.3638811111450195,9.515830993652344,43.243133544921875,-15.270133972167969,3,3,3,-1,7
P714_10_9,8,2.5919997926400167,1.3715998902720088,1.2203999023680077,1.1238938053097347,-0.2108615048447938,0.7513351198366414,0.713701172,-1.2204785139999998,1.1932774547506069,1.6832957747097856,-0.1244690767240617,0.7998558435328194,1.02257813,-1.0604199199999995,-1.3275777659898822,2.446156368692088,2.243056644,0.8586805882631081,0.2297350810137524,0.107688471239177,0.3826464839999999,-0.022070316,-0.0992653549811785,0.7687837589986367,0.2117442727947019,0.2070304639165765,0.5190234300000001,-0.106708982,0.0901744024941778,1.277411676186188,0.6257324120000001,0.0506835921668219,-0.6653274089076621,0.1892956720015857,-0.266865234,-0.9018164080000002,0.0663715086634618,1.198146693630893,-0.5208344739381898,0.3490726277642316,0.09083985,-1.021425782,-0.1501573030646959,1.9992072913492027,1.112265632,0.0084320925364117,-10.538008087306972,33.22096468964583,0.0175357707699855,-3.735536016728405,135.22672705098938,0.6342256021417669,-4.414217992745056,56.856790668637395,0.6442491981486552,1.339250065551152,1.945291986660763,1287.019312994657,1.9905701752878135,0,22.11470107955284,261,1.339250065551152,4.916534208766837,923.0755797661844,-90.52484265961364,-2.28340220451355,9.380760192871094,42.747684478759766,-14.118572235107422,3,3,3,-1,8
P714_10_9,9,4.827599613792031,2.0681998345440133,2.7593997792480174,0.7495107632093935,0.0216833410221643,0.7161513840471687,0.84982422,-1.0680859359999997,0.9206659144810414,1.0674705604535917,-0.3709731271847508,0.7999798164019291,0.965537104,-1.107617184,-0.6569908440356639,2.4656058422520744,2.073154288,0.6514376629440439,0.11657966158279,0.0613831545937453,0.198427734,-0.0482714839999999,-0.065108893130577,0.5663041232698441,0.2843225933998045,0.3035353723501676,0.9754003920000002,-0.220751952,0.3133040926152323,2.6542846913981855,1.196152344,0.1919215118951156,-0.7372512890899608,0.2206336513230186,-0.152656248,-0.973662112,0.1438260167280146,0.9917459534037346,-0.093107777259042,0.2723388848555548,0.41360352,-0.76552734,0.1069922445527179,1.7440763409272322,1.387265632,0.5350887478284949,-36.766688828873114,49.25431963081523,0.3462943661701484,5.124534065626603,82.08812459268502,0.3913809312376632,-8.373399267307992,67.97201635453315,0.224316716681045,1.5050783243130712,2.067072922972419,2692.5851221960843,2.0075297065686972,0,42.52411956713798,455,1.5050783243130712,5.14681273338818,2328.822605126225,103.15507705487572,-2.728858232498169,9.757702827453612,46.79250717163086,-13.066672325134276,3,3,3,-1,10
G998_10_2,0,3.3938997284880217,2.1194998304400134,1.274399898048008,1.663135593220339,-0.6408268599262087,0.5225158310371303,0.588574216,-1.004599608,0.747412477816112,1.069056016287086,-0.41082772589852,0.5708584834964933,0.5868164039999999,-0.9415722660000002,-1.1664957179273092,1.3855241491689116,1.593173824,0.4378502906497246,0.3754867417760814,0.1319681871521718,0.63286133,0.086083984,0.1271351335489651,0.6717636236126588,0.4384227802071881,0.0760667170525543,0.561191406,0.3415429719999999,-0.0019617091964846,0.6861883564577855,0.546777346,0.6230619178520126,-0.3318020582748091,0.3294435786763613,0.147128908,-0.88442383,-0.272188885186291,1.0775445606203689,-0.6014792750063425,0.1899517892228732,-0.3241796879999999,-0.923349614,0.147771755387339,1.2756658475794476,1.0704785220000002,0.7753456661117684,11.734087492198729,45.031788353741504,0.7979771503574404,-10.75646133700477,86.98702208361951,0.2918526665564076,4.56304924836884,41.83943460529519,0.2500524403981612,0.1846076375816529,0.2471026171813933,232.23640807771935,0.0269797235644153,0,4.152238445757231,513,0.1846076375816529,0.6443383430685634,-131.8120536900596,161.73096665198833,-1.059409499168396,-2.208200693130493,9.858723640441896,30.869075775146484,1,1,0,-1,3
G998_10_2,1,2.540699796744016,1.236599901072008,1.3040998956720082,0.94824016563147,-0.3165755407668845,0.5991753000934595,0.6582519560000001,-0.974677734,1.262289656215252,1.1215615590498351,-0.272376921144628,0.5874865059418448,0.6605859380000002,-0.939511716,-1.2249004721964627,1.0047943531330443,1.6352636720000002,0.7923637588306619,0.4428716901481481,0.0851705699896362,0.6098144520000001,0.332275394,-0.0112139633748779,0.6445562745846306,0.4499132597314049,0.0868497039295433,0.590625004,0.306425782,0.0104612982834192,0.6415902114552685,0.3033886700000001,0.01557926149079,-0.6283182679433551,0.2080612413053055,-0.313964842,-0.93252929,-0.1804579620348886,1.2257959425418945,-0.6422694379421487,0.1880699412058884,-0.2760546899999999,-0.916074224,0.2080203341019438,1.1851926308963998,0.6564746000000001,0.4098411225008842,-16.67448896582378,15.125227382880448,0.610355812101263,-7.97427908174735,94.29747747687506,0.4694940045493884,1.4165463297813132,45.69810243283531,0.4830994463015338,0.2796258753838878,0.3635224223791827,263.4075746116223,0.0539579213882233,0,5.030774719463142,365,0.2796258753838878,0.8189351501517274,-100.66540858303136,13.723647374773234,7.335518836975098,-0.0417261943221092,-10.44900131225586,8.111842155456543,0,0,0,-1,3
G998_10_2,2,2.600099791992017,1.3148998948080084,1.2851998971840082,1.023109243697479,-0.3424603175245902,0.6150898164285334,0.6600000020000001,-0.990927738,1.205801155099724,1.1600475834904018,-0.2093671999958071,0.5979655422908394,0.6550292980000002,-0.930273436,-1.2264781030980068,0.9872950880317894,1.6509277400000002,0.7962907322343518,0.4259988171762295,0.0808325611053487,0.600566408,0.3478906359999998,0.0004381915325088,0.6781856046337464,0.4370562873878406,0.0572220667556785,0.5210351579999999,0.334462896,0.0055165208272539,0.4851468002917288,0.266103512,0.0203744012722589,-0.6065018430860656,0.2408343209311151,-0.2466699219999999,-0.956464848,-0.1902993581397566,1.2674846964655146,-0.685823649740042,0.1603629623151273,-0.4241503900000001,-0.934980472,0.0782268254302625,1.0744326006246725,0.709794926,0.3515489117335855,-11.697503001029046,15.577364514026618,0.3736062625995587,-6.785759516744813,99.8133444620893,0.4461601712317912,0.5404375135643142,40.51215718650002,0.465258929531624,0.2619319327339667,0.3203609241263955,252.50238315554395,0.0340227843213669,0,4.3997200667958305,371,0.2619319327339667,0.7489207889099737,-111.5784992806915,19.726689019989312,7.636397838592529,-0.302700012922287,-12.228645324707031,9.045743942260742,0,0,0,-1,3
G998_10_2,3,2.3435998125120148,1.106999911440007,1.236599901072008,0.8951965065502183,-0.190791727002433,0.57329474750025,0.63110352,-0.960449214,1.4098758327539225,0.981084798151384,-0.3133402695424837,0.587271772925901,0.6356835959999999,-0.96085938,-1.258625374828788,1.0337414987293152,1.5965429759999998,0.8439453475758223,0.4503895807299269,0.0742893212103078,0.5993554759999999,0.3491699179999999,0.0393359760466052,0.7315834279094405,0.4248270910501089,0.0696403436980972,0.5409570339999998,0.291015624,-0.0563541190158511,0.6147524265998445,0.3083398519999999,0.1824866190878302,-0.7083908811046229,0.1551140379455946,-0.41511719,-0.936474602,-0.0931924771934252,1.304280802981289,-0.6521457366928106,0.1895694806496376,-0.340214848,-0.922304692,0.1426305693920072,1.1765064231469236,0.596259754,0.23363186965595,-11.727745940069044,13.375850370118709,0.5747032438491236,-12.668805247153054,96.72635630204913,0.6359282789811517,2.7691908754476415,43.99440611288187,0.6724240329233667,0.2995741174969574,0.3685114406101192,260.32990810485603,0.0460560299864646,0,4.726333012271525,295,0.2995741174969574,0.809172470602226,-103.76457297778008,-56.27510676359022,7.090455055236816,2.4368045330047607,-7.266037464141846,-5.316308498382568,0,0,0,-1,4
G998_10_2,4,2.1437998284960136,1.0205999183520065,1.123199910144007,0.908653846153846,-0.3183891602849604,0.603931614157528,0.6415820379999998,-1.0053808640000002,1.5358996584392794,1.3028075919949555,-0.269844100028777,0.5858991099634869,0.6419043019999998,-0.927861326,-1.3934622945254087,1.2224769675155496,1.647285166,0.8082330246283613,0.3882596052031661,0.0824738180945581,0.559550784,0.261015624,-0.071849974393893,0.7325851715272094,0.3725850332038368,0.0878813870542123,0.516445312,0.232441408,0.0732248010859048,0.7926675726008638,0.327109376,0.1063663579221254,-0.6944399606596307,0.1969224637680822,-0.352529304,-0.992441406,-0.1892652101245557,1.3451095506621609,-0.7050096246762589,0.1872414870762433,-0.410439448,-1.016904298,0.1204183803599652,1.3902862506264777,0.6643749940000001,0.1651210751776218,-13.634810853534592,17.727670221245603,0.7087562897143134,-5.500733455544645,117.86883409772994,0.5433931448827012,1.5190367087547156,41.419513435240376,0.5830962349379569,0.326723798271946,0.3838231631744008,259.7454196261971,0.0405717802319554,0,4.620099533290485,301,0.326723798271946,0.7463034582399525,-104.3494421921118,-50.274857229225795,7.159348011016846,2.562734365463257,-7.347719192504883,-4.545017242431641,0,0,0,-1,4
G998_10_2,5,2.4677998025760157,1.106999911440007,1.3607998911360086,0.8134920634920635,-0.2939005951386861,0.5987675012921505,0.6360449219999998,-0.992587896,1.4088525137922068,1.184996357644482,-0.4054836396633663,0.6098841107796621,0.6376269519999999,-1.011796872,-1.1604072283410916,1.2239474909514756,1.649423824,0.73464856784871,0.4078895768807786,0.1057892108650385,0.618583978,0.28942383,-0.0474254726287261,0.8383093329843343,0.3689067716554455,0.087082789242302,0.5258789039999999,0.25960938,-0.0083820171314677,0.6493616717953505,0.358974598,0.0737323521485737,-0.6774994310364963,0.195912247058023,-0.37212891,-0.991787108,-0.1492102991996921,1.2832084655741132,-0.5814563906851484,0.2644275069164747,-0.143955074,-0.959033198,0.3045442865622439,1.155010541020563,0.8478320340000001,0.5486974437336627,-16.044413280356284,17.787945760264577,0.6279519827186124,-13.689589870369408,105.80740377328296,0.4411180591679032,1.0675809524830588,44.3264550892622,0.4925997458444197,0.3161889796328502,0.400434546870976,289.31291636405797,0.0603723554865009,0,5.0252614190284985,347,0.3161889796328502,0.9445906240490876,-74.76784400718503,-4.282271191366707,6.318887710571289,0.93099445104599,-4.129870414733887,3.0948078632354736,0,0,0,-1,4
G998_10_2,6,2.6081997913440165,1.3391998928640083,1.2689998984800082,1.0553191489361702,-0.3953324836016097,0.6454206481649791,0.7543652359999999,-1.0231640599999998,1.2672124520340988,1.2828278481639592,-0.308909379133758,0.6668639826665852,0.7540136719999999,-1.02261719,-1.339075839198555,1.4124562346498375,1.7775292959999998,0.7151375930139383,0.3622581182092554,0.1049419202254776,0.567724614,0.214365228,-0.0485291586015665,0.7075475110758945,0.3701268695456475,0.1271972367369912,0.559208984,0.17480469,0.0667125427680524,0.868416423348622,0.392919924,0.018688242652557,-0.5433905959597585,0.3125025363172035,-0.113447262,-0.985322264,-0.1454343231640146,1.482257776856383,-0.5624694195753716,0.2722363463173584,-0.187988286,-1.0150293,0.1318474936053261,1.5873243062112978,0.901582038,0.3734544804157061,-18.086869524938987,22.49184333332849,0.4376583276501772,-7.482374482376418,119.07859594777,0.4090212609706584,-0.4767032133112693,47.97714548627043,0.3992201549123335,0.2955393182309646,0.3676181284924272,285.7865207293428,0.0477995997758513,0,5.282304474374034,347,0.2955393182309646,0.8820386851525045,-78.28968036844196,-4.281445347161884,6.387097358703613,0.9507938027381896,-4.733903884887695,3.214790105819702,0,0,0,-1,5
G998_10_2,7,2.2571998194240144,1.104299911656007,1.152899907768007,0.9578454332552694,-0.3562511658536585,0.6289265611519256,0.686191412,-1.047314454,1.476410867003564,1.3437058697627124,-0.2474148683925233,0.6289697801880211,0.6851269580000001,-0.937695316,-1.3987656058729634,1.2792721220184091,1.7335058659999998,0.7838246172733938,0.3949579575853658,0.1245289862938803,0.6304589820000002,0.220234366,-0.0713475308368418,0.9160220377325886,0.3584260466495327,0.1036213597336852,0.4905957019999999,0.172382814,0.0853147626582964,0.6999225636708876,0.4580761680000002,0.0894230015794612,-0.6109966176536585,0.2713108352936469,-0.188271484,-0.99611328,-0.1821802590731957,1.5846174824456494,-0.6763014973878505,0.2066359895358484,-0.378857428,-1.025029298,-0.0482478952641174,1.331462095789548,0.836757814,0.2013361056961969,-10.997778315600955,23.588628977268545,0.5833499508006067,-3.501097359204313,123.72886381098792,0.4919654192202773,2.4587901843918765,45.24509443164906,0.5594984411735279,0.3353166191807765,0.3830765919551778,280.66001025430995,0.0343104402051679,0,5.216839389484602,347,0.3353166191807765,0.8430670208108784,-83.41655627779878,-4.280283585208901,6.464628219604492,0.8713510036468506,-5.501993179321289,3.086937665939331,0,0,0,-1,5
G998_10_2,8,2.4218998062480153,1.106999911440007,1.3148998948080084,0.8418891170431212,-0.2262548481654501,0.5825373011527115,0.6814160120000001,-0.928935558,1.4530051514707516,0.9155506228760794,-0.3325107068893442,0.6201676791810738,0.6809667940000002,-0.970087888,-1.23104517415476,1.182280375228754,1.6515039000000002,0.7849462433235205,0.3968448456739659,0.0777110915547131,0.520058594,0.265576168,-0.0478930300283708,0.6056130969544635,0.3785272926885245,0.0888621818433415,0.5162304700000001,0.244316408,0.0500498526616813,0.6797907132786508,0.275742186,0.0184405195900999,-0.7292472847980536,0.2081357835393155,-0.367529298,-1.010332028,0.070388368774704,1.3471345305989288,-0.6156954593237705,0.2480252205509596,-0.2833691359999999,-1.0290722599999995,0.0640049956139707,1.308565326021898,0.7457031239999996,0.1961055885803883,-17.3712807271804,12.743717163161325,0.6028553350176842,-10.203744209305132,110.2079001000004,0.5326699752447317,-0.0493169048329618,42.33451008361201,0.5457695523138182,0.3719240071234502,0.45362312873508,333.98775839685834,0.0674464758486387,0,5.954987013612941,355,0.3719240071234502,0.9677576720664124,-30.081828557675987,3.707141778399743,5.113349914550781,0.1354990005493164,2.494194984436035,5.593775749206543,0,0,0,-1,6
G998_10_2,9,2.4434998045200156,1.2014999038800076,1.241999900640008,0.967391304347826,-0.3571691949327353,0.5995547913515432,0.6362988359999999,-1.065058596,1.30799240093568,1.1942540978674054,-0.4206990994924078,0.6392000645987316,0.6338183679999999,-1.0618652359999998,-1.292184153294205,1.3705283431572268,1.701357432,0.7320044684694689,0.4072772516367712,0.0871890704781866,0.5757910139999999,0.293447266,-0.0314385609836638,0.7065626368716494,0.3775472165683297,0.0950373600476644,0.5460351560000001,0.22583008,-0.0545758546076147,0.6418861027231587,0.3499609339999999,0.1146563189728161,-0.6320441001928251,0.2286777876754034,-0.272763668,-0.944804684,-0.1340853390664036,1.326798995659952,-0.5298480294490239,0.2585387802246801,-0.131845696,-0.918095708,0.2517125499276647,1.2697585835478065,0.8129589879999999,0.5119343872869965,-15.97610276789404,17.392839796197947,0.397687452196086,-10.391630531090506,109.8911091677752,0.4289099514405939,-0.2153313982141256,48.40434737334612,0.4082373244356231,0.3153237497965761,0.3960623440088019,285.683317315698,0.0574363131559727,0,5.284444672020024,331,0.3153237497965761,0.8885143293457674,-78.39656517911193,-20.28143788810461,6.441103458404541,1.52862286567688,-4.639869213104248,-0.2008164077997207,0,0,0,-1,6
G998_10_2,10,2.5811997935040165,1.241999900640008,1.3391998928640083,0.9274193548387096,-0.3603541686681128,0.6378001025189383,0.7153222680000001,-1.02985352,1.3569895320696208,1.1907006853532285,-0.3014021031348089,0.6348984737462693,0.714472658,-0.990859378,-1.2500832302336489,1.075983171642434,1.745175788,0.7782624595419124,0.3794826322386117,0.1214189930555059,0.575624996,0.208789068,0.0490404242130909,0.8153774513176041,0.3840533274527163,0.0869948200752939,0.51838867,0.2519043059999999,-0.0010500672883089,0.5431409868169834,0.3668359280000001,0.0788288869687043,-0.5820344709804772,0.2847282816706244,-0.124726558,-0.989013676,-0.2120839171277425,1.4815123555298422,-0.604528224112676,0.2586166630444662,-0.22171875,-1.0390918,0.1295812155636348,1.308199702822252,0.914365242,0.3558133593763809,-16.751971715379312,15.035063824155868,0.6313132744147809,-7.115564676135843,111.80788796359464,0.4542005051376648,2.2496151367314527,45.49551425429349,0.4614420355606531,0.3211389228621542,0.3988873838751037,307.3299491790816,0.0559809372376597,0,5.274052321368888,331,0.3211389228621542,0.8513645425903219,-56.753453035097024,-20.286033100676715,5.711362838745117,1.9144654273986816,-0.6737551689147949,-0.7877726554870605,0,0,0,-1,7
G998_10_2,11,2.6567997874560167,1.274399898048008,1.3823998894080087,0.921875,-0.3230399610909091,0.6475696377739301,0.734902344,-1.0566211,1.329792556163685,1.1935315054678777,-0.3696503991150097,0.6479148673296872,0.7348828120000002,-1.036865238,-1.2147551203285516,1.2767618437455628,1.791523444,0.7297608931232262,0.4506089584143762,0.1062789271162743,0.608730476,0.2758984359999999,0.0469123954667401,0.6328218082521726,0.3967607625107212,0.0854278599619372,0.5450292939999999,0.2788964819999999,-0.0446319624825941,0.6005570102776354,0.33283204,0.2056997139674808,-0.5404571687230444,0.2433484608973257,-0.213916018,-0.922041018,-0.0842231580247345,1.2735634965232527,-0.5517578496881093,0.2531825102668175,-0.153652346,-0.944003906,0.1268810778588174,1.2010481665844075,0.79035156,0.3266258153750836,-12.591024163807107,15.339823744510031,0.6337657535900574,-11.221285321368525,107.61999608794352,0.407086171494171,5.6444659322111645,49.949901270577094,0.4121463727783263,0.3293448944949257,0.4106342187920981,324.4047210775019,0.0601524021131229,0,5.701305195343561,305,0.3293448944949257,0.8728282164992955,-39.680187916746405,-46.28996582124382,5.331096649169922,2.564666509628296,1.7868441343307495,-4.641486167907715,0,0,0,-1,7
T456_10_1,0,4.976099601912032,3.580199713584023,1.395899888328009,2.5647969052224373,-0.776511928425019,0.4817460593126928,0.7464550759999999,-1.0393457060000002,0.4896123921101644,1.0150418950970708,-0.4060129468301158,0.6349282439827906,0.7515039020000001,-1.0560253860000002,-1.253013943639634,1.402935701199412,1.807529288,0.2508652557024031,0.2020444445486058,0.2210015122176534,0.7559179639999999,0.0035937499999999,0.0173452893603623,0.8130541293435555,0.4628306736370656,0.2324064436745966,0.8564062419999999,0.170205074,0.0235833087138011,1.47701759523139,0.852812492,0.3967475030518331,-0.2238113167942728,0.285778697470641,0.2736035180000001,-0.996679688,-0.0246363714474751,1.3151419420169208,-0.3335362877297297,0.3718935332149926,0.15182617,-0.890351562,0.2577652301634463,2.0340629804089816,1.270283206,0.0779126681063905,-9.728947769729936,67.3452335422792,0.4191408665025967,-5.112590137737525,77.62683605406377,0.0488990597065117,-4.084280719675709,49.85490487751589,0.4531847248114264,0.4535088890902474,0.7397670144048349,836.2703914824162,0.3415849231175729,0,19.065052781807733,553,0.4535088890902474,2.5826905155908464,472.400026164878,201.5837143734235,-3.094836473464966,1.7197304964065552,33.03380584716797,18.418872833251953,1,1,0,-1,5
T456_10_1,1,2.497499800200016,1.1852999051760076,1.3121998950240084,0.9032921810699588,-0.36311021775,0.6578536079468555,0.7411523500000002,-1.032060552,1.4711713806651,1.2542739639789888,-0.3985840867679671,0.6259233530536672,0.7455664120000002,-1.074863284,-1.319937231033168,1.4259486790238336,1.820429696,0.7455773552750211,0.4928771327136363,0.2444188263408667,0.8508593800000002,0.115029302,-0.065763297254652,1.3178322724939655,0.491410361597536,0.2485694289534364,0.895380862,0.125175782,0.0838956720065793,1.7720068407704164,0.7803515599999999,0.0146348619246223,-0.3508484319045454,0.3323890652937427,0.136279298,-0.8353222659999999,-0.3251830615330788,1.653683208077842,-0.3029169329609856,0.3690621669300436,0.1707812499999999,-0.8749316420000002,0.3351435979134511,1.8976870271266504,1.045712892,0.6643229644912454,-16.788559846293737,90.79033735891662,0.5954993232243087,-3.2820931539222475,87.87614976858245,0.117337617005352,4.881588886157669,90.2930532575719,0.7179719560748795,0.5573574434135261,0.7943560586360423,516.1129926009252,0.3203542281633255,0,11.642605288127216,293,0.5573574434135261,2.348480168882344,152.10253327756456,-58.34019440333287,1.2702611684799194,5.018259048461914,20.897655487060547,-10.678434371948242,3,3,2,-1,5
T456_10_1,2,2.4623998030080156,1.1501999079840073,1.3121998950240084,0.8765432098765432,-0.3963770235128807,0.6589431128426915,0.7319238260000002,-1.042216796,1.497489349498324,1.3954712850655608,-0.3664459142176591,0.6403468541201759,0.731542966,-1.044003906,-1.3212172753361435,1.539881997475539,1.775927732,0.7341302216037564,0.5264088111662764,0.2391591284320225,0.8633203079999999,0.1562988279999999,-0.0565543707215346,1.348551669722749,0.4961879580451745,0.23172273826301,0.850546878,0.161835936,0.0430678848659408,1.6316667989223257,0.7070214800000001,0.0161311281771376,-0.2901142136627634,0.3203977790867452,0.157480472,-0.7542285140000001,-0.2716409606984092,1.7111945916233475,-0.3221411569322381,0.3567251740676062,0.167783208,-0.85924805,0.2326573635295234,1.9882850070229336,1.027031258,0.6051213404713244,-16.817221740753556,87.05709453894981,0.7157802406921749,-7.9808673919299,94.1925854695862,0.1316697560755801,6.333903440282587,90.96622833411996,0.7085520379919238,0.5619489160940221,0.6554037152907611,513.0593603938422,0.1137674457176868,0,10.132921488999855,263,0.5619489160940221,1.544394681155294,149.01375317338923,-88.3360181227924,1.4338736534118652,5.387016773223877,20.768264770507812,-12.103178977966309,3,3,2,-1,5
T456_10_1,3,2.559599795232016,1.1771999058240077,1.3823998894080087,0.8515625,-0.3639371786590388,0.6647193349004613,0.7534667939999999,-1.048564454,1.4898552177273137,1.304040476831748,-0.3746861857037037,0.6426588553218372,0.7540917980000001,-1.0941210899999998,-1.2761223055041278,1.3259458218592943,1.848212888,0.7524567116103018,0.5083318671212814,0.2707923281619502,0.91044922,0.0853613279999999,-0.1095936801912123,1.4636713807288255,0.4597061165575048,0.2688903185775738,0.888525392,0.097714846,0.0380339411214224,1.6618163638296422,0.825087892,0.0457145561570511,-0.2876920472540046,0.3381062469335795,0.166845704,-0.8011816379999999,-0.2725532090281762,1.825466604540389,-0.3321196351150097,0.3543322855398914,0.12402343,-0.8752831980000001,0.1878667945432348,1.9103137519626583,1.0421289020000002,0.5801296377525231,-16.405705917260278,87.21172527281253,0.6332993778072122,-5.0163626547397255,91.07806187665356,0.1139615449249027,2.4752719013234965,93.36457198793734,0.7009366706608567,0.4314562986006472,0.5248158323761684,409.4520273720142,0.0892771203105195,0,8.23384287231863,315,0.4314562986006472,1.0510143386436572,45.40042828238832,-36.31096851393099,3.0477185249328613,3.0409719944000244,11.629446983337402,-3.805924415588379,3,3,0,-1,5
T456_10_1,4,2.419199806464015,1.2257999019360075,1.1933999045280077,1.0271493212669685,-0.3933244148043957,0.674705219340263,0.75095703,-1.071845698,1.4385456739023768,1.3264734129234597,-0.3545395593318285,0.6557978711079802,0.751298826,-1.0557910180000003,-1.4811199023005424,1.366918947417035,1.823144524,0.7515350278319125,0.4936219290681319,0.2749230902958248,0.9050195300000002,0.094716802,-0.0260830890502644,1.4716416237299104,0.4989182423837471,0.2451421608979943,0.869716796,0.1183203139999999,0.0672808567315529,1.663778195772613,0.8103027280000002,0.0131457711547412,-0.2725835552835165,0.3013278633923926,0.119824216,-0.737968748,-0.2039564251923476,1.5582786776028006,-0.3414773439051918,0.3280625731384288,0.127958992,-0.8174707040000003,0.2418903143068201,1.7891467696800871,0.9454296960000004,0.584219156439733,-16.489382351462645,85.81385914966623,0.6616238884999637,-11.209356734370123,93.71484343943284,0.1230867122449498,8.598786268127089,100.101333402139,0.7226735275814421,0.487128942021736,0.5695683439562667,436.95466099349727,0.0871134922818681,0,9.307101677583734,279,0.487128942021736,1.335338725216177,72.90942704442047,-72.31830359989793,2.062251329421997,4.608226299285889,16.13254737854004,-10.74563980102539,3,3,2,-1,5
T456_10_1,5,2.510999799120016,1.2176999025840078,1.2932998965360083,0.941544885177453,-0.4059883999159292,0.6689789500111899,0.7594140580000001,-1.082568358,1.456992539980596,1.361180425238212,-0.3592963894416667,0.6461650491603117,0.7601855399999999,-1.0842675739999998,-1.3777664660552176,1.224568591279255,1.844453114,0.7425408412257541,0.5015537290176991,0.2789847915659658,0.907167968,0.084492184,-0.0827315447642071,1.4893717837245717,0.5124045813,0.2788803979076985,0.9572167999999998,0.097871088,0.0658668188470203,1.6059274479525163,0.8727246159999997,0.0221946113888699,-0.244450878,0.3209831121992951,0.1546289059999999,-0.73701172,-0.2816769971584514,1.6304981306432895,-0.245689472825,0.3492999676799267,0.20704102,-0.7725000019999999,0.2772854764471176,1.6142464987144756,0.979541022,0.6639985995045141,-17.088182430818474,89.43452496432022,0.5239931741476622,-1.7628998866745424,86.67962134683489,0.0717361774848814,2.8968196673555293,98.63609552450856,0.6681962540007975,0.4855782067602871,0.5866786340737613,452.0733104938273,0.1084056247981182,0,9.68026452132642,309,0.4855782067602871,1.1867493553018669,88.03890541569004,-42.3216846307015,1.5792189836502075,4.648959159851074,17.739213943481445,-9.47628402709961,3,3,2,-1,5
T456_10_1,6,2.478599801712016,1.2257999019360075,1.252799899776008,0.978448275862069,-0.3737096712351649,0.6734755505137333,0.775537122,-1.0460644520000004,1.4678951361948576,1.3052677688964796,-0.3630422952946236,0.6487729974000156,0.77504884,-1.048730464,-1.42980517345209,1.3420563637771408,1.824267586,0.7481110083351716,0.4908059749010989,0.274452935632163,0.8777636740000001,0.045283202,-0.0960868081437847,1.423707549466407,0.4828578443182795,0.2559905399953612,0.879287108,0.065273438,0.1144623622859618,1.637722373677569,0.834003906,0.0038442501349528,-0.2804264480175824,0.3389820527314993,0.1998144599999999,-0.7931152359999999,-0.2636830444263452,1.7084311635320284,-0.3183855431913979,0.3600033238016088,0.166113284,-0.8270605479999998,0.2736838421373787,1.8662577573707777,1.0268750079999998,0.6295064972489972,-17.20761332962785,97.03324726121002,0.6436069784508751,-4.242008886119696,91.2876448802521,0.0893766503883611,4.3908836609727935,92.65711074889408,0.7240484380299561,0.4820538231309936,0.5929652100933233,443.0074634573831,0.1192318519858117,0,9.30556469829661,283,0.4820538231309936,1.3980129022115757,78.96251716484507,-68.31983475685769,1.9067387580871584,4.67258882522583,16.78304672241211,-10.615419387817385,3,3,2,-1,6
T456_10_1,7,2.629799789616017,1.279799897616008,1.3499998920000085,0.948,-0.3753270966778947,0.6638738112765586,0.805029296,-1.0553417940000005,1.422822220404923,1.185961525408542,-0.3213171898842315,0.6676985043554231,0.8047167940000001,-1.039189452,-1.321998074648718,1.3400754781790083,1.8603710900000008,0.755816857175794,0.4960283720042105,0.2758686594189704,0.906816398,0.076210944,-0.0952831409247275,1.3851621758326254,0.4632295191696606,0.2393611887595171,0.8561328099999999,0.0867285199999999,0.1137225246533487,1.4135118593251534,0.8306054540000001,0.0036084915344575,-0.2699355667831579,0.3423802955429728,0.164833988,-0.7917480479999998,-0.2929687732421561,1.5381047504647505,-0.3379070387465069,0.3710748945314229,0.210361322,-0.8948632820000002,0.3089337639739637,1.798739543434345,1.1052246040000002,0.6599465094835825,-15.627076170972304,92.28377434182312,0.6557072693393096,-13.685307361493336,87.5097153816234,0.1031684016888155,9.017960175987698,86.23696675438752,0.6722307296249886,0.4892440298669718,0.5978548017115823,477.0129291202975,0.1180706431691211,0,9.719563917311998,311,0.4892440298669718,1.39075579193135,112.97659676184992,-40.3276266146198,1.567987322807312,4.68446159362793,19.04412269592285,-9.52163314819336,3,3,2,-1,6
T456_10_1,8,2.6027997917760164,1.3094998952400083,1.2932998965360083,1.0125260960334028,-0.3824303753374485,0.64320727654274,0.7764843779999999,-1.022509768,1.33380027776167,1.19340071709703,-0.3572302247791666,0.6803856963693342,0.7666308599999999,-1.0601171899999997,-1.3709555229602852,1.4110450614632497,1.8366015679999996,0.7365255448840857,0.5429712223703704,0.2700051731955136,0.896269526,0.1032421859999999,-0.0974027126413946,1.380128241781229,0.4658491417999999,0.2394438811306207,0.8570800820000001,0.112705074,0.0474425353039474,1.440033678895863,0.7930273400000001,0.0453833160944809,-0.2441815758271605,0.3127227590439427,0.2047753919999999,-0.699052734,-0.2764429056587628,1.5571835647239218,-0.3158809394208333,0.3344143782026923,0.141718746,-0.8032519479999999,0.2290954053221414,1.6768513576347563,1.0080273399999995,0.6422723907166561,-13.206614734818658,83.55047314583659,0.69540389740481,-11.23113761630674,86.0017457216572,0.1252450032702358,6.216047163311919,92.52018548648154,0.6440689841398478,0.5317746241201666,0.7411271129299448,513.1625122759608,0.2664851466617309,0,10.667811930591988,305,0.5317746241201666,2.520383993636536,149.13928313631703,-46.3391705743752,1.219927191734314,4.997608184814453,20.74765968322754,-9.912551879882812,3,3,2,-1,7
T456_10_1,9,2.699999784000017,1.3283998937280084,1.3715998902720088,0.968503937007874,-0.4090735713711968,0.6586669933066542,0.814628904,-1.04336914,1.3695988659665757,1.217530077770452,-0.354437718777996,0.6851600694200425,0.8129492119999999,-1.056943362,-1.3223893285966182,1.3022348441006044,1.871572266,0.7217821824834803,0.4524950490344827,0.2650889082624662,0.854960946,0.019580068,-0.1122561848311411,1.3127625516729116,0.4308073817170924,0.267661115288839,0.86074219,0.0249413959999999,0.1111555556990926,1.464821041636387,0.841162122,0.0095020288755502,-0.2994124180892495,0.3636271056861789,0.1559472639999999,-0.8377148480000002,-0.2587405672213787,1.647780203011436,-0.2844960255599214,0.3726374913885009,0.1969628919999999,-0.8352734339999999,0.2830080658019159,1.7014724058582715,1.03467774,0.6402152536050467,-18.45617115128872,93.99472469593076,0.5791607184239345,-7.702416092757248,88.91363161043842,0.094337843214147,5.7118809361458585,86.24281429384044,0.6267175683815915,0.5652341980613711,0.7299398796978052,565.7994322594325,0.2133225293151648,0,12.034889341613727,289,0.5652341980613711,1.741368702119868,201.78508138311275,-62.34956192086638,1.120531678199768,5.415925025939941,22.76650619506836,-11.086841583251951,3,3,2,-1,7
T456_10_1,10,2.678399785728017,1.2905998967520085,1.3877998889760088,0.9299610894941636,-0.3906370288643006,0.6727319384571506,0.8061816439999998,-1.0437695340000002,1.3970535086339448,1.3455181074139524,-0.3549199792116504,0.677535846799584,0.8021972679999999,-1.066191406,-1.2933085931606532,1.2447086536115413,1.87237305,0.7288191131430524,0.4826400005970772,0.2532746370760134,0.8585253880000001,0.091601564,-0.0625617468304482,1.3277180549080527,0.4503993095650485,0.2460444716875961,0.850683592,0.096289068,0.074983793288013,1.3577835845867148,0.7669238240000001,0.0172479830362861,-0.2650786133110647,0.3486396420173641,0.230292968,-0.7682714860000002,-0.301140843865014,1.5760685977835045,-0.3043814650912621,0.3591331451741759,0.153486328,-0.8595703179999999,0.2495378424157301,1.611010353065532,1.089863286,0.650154863775805,-13.288435167947636,87.49011241319396,0.5988839888136622,-8.640854518996976,87.46064821407627,0.0993503070852319,5.2665316941148035,87.50014369813593,0.6615806026918554,0.5032411221929314,0.6871401075650811,499.7184343375809,0.2189099003585504,0,10.031605716958843,339,0.5032411221929314,2.037590166707102,135.69298312774575,-12.334685769487963,1.1518361568450928,4.831391334533691,20.459291458129883,-8.4955472946167,3,3,2,-1,8
T456_10_1,11,2.859299771256018,1.3445998924320086,1.5146998788240096,0.8877005347593584,-0.3406775267855711,0.6689375019089671,0.8358300839999999,-1.0488183600000005,1.3598739285132584,1.081254390436464,-0.2850737093879003,0.6815934319549948,0.8375097699999999,-1.031904302,-1.2033182543165362,1.0459635997753869,1.8863281300000003,0.7754552953614914,0.4823286209258517,0.2556180385576657,0.8563281280000002,0.044609378,-0.1143027043695745,1.2383770712019513,0.4393316630604982,0.2517699491827842,0.8328515700000001,0.041904302,0.1387509281133488,1.1516707870483032,0.8144238260000003,0.0044017435941077,-0.3336425392264529,0.3441552175177428,0.1539746119999999,-0.8187011700000001,-0.3055843379972309,1.3804688122611772,-0.3454495315302491,0.370777069705465,0.182373044,-0.876474612,0.2720088221832254,1.473994990974758,1.058847656,0.6814710851390351,-14.864200744852829,81.0891181679298,0.6193775297157691,-8.713327495664155,78.61440771084175,0.1375157469189696,6.167408004647175,81.30542819327725,0.7155281211395227,0.4853431670985428,0.6013696000578694,514.4637571244554,0.1260874060245178,0,10.812809017872189,359,0.4853431670985428,1.3749730611193745,150.45174011602523,7.663286403288095,1.0907509326934814,4.8352227210998535,21.17548942565918,-7.78042459487915,3,3,2,-1,8
T456_10_1,12,2.886299769096018,1.3688998904880088,1.5173998786080096,0.902135231316726,-0.3144282857755905,0.6756429639462617,0.8396386640000002,-1.064199222,1.3336938345061602,1.0948833146005643,-0.2672651228632327,0.690722967660718,0.8388574140000001,-1.0201855519999998,-1.2171699853398548,1.03468414492818,1.9038378860000005,0.7906870891110899,0.5006363047755906,0.2549789950109872,0.8850488300000001,0.062998048,-0.1384694288582584,1.1992719080770462,0.4552988661314388,0.2436191191553898,0.8534960859999999,0.066035152,0.1068400889478894,1.1262958397355909,0.8220507820000001,0.0054787478647434,-0.3254275334606299,0.3316677846345959,0.154238292,-0.7799218719999998,-0.2513994240128669,1.3783329017045267,-0.3278782392717584,0.3620712375713088,0.14924805,-0.8653124999999999,0.2221947007860042,1.4616778742969987,1.019550792,0.6389688995104355,-14.785033397727103,77.81687416219104,0.6508348134946155,-7.2247847528467375,78.25012246595863,0.1455869746759891,6.216703005573834,81.78617038886284,0.6848764878083539,0.4566907224807029,0.5999339948754788,488.6590730543521,0.1513543822073047,0,9.226324692079398,343,0.4566907224807029,1.7376176554702885,124.62142943037934,-8.330768028712951,1.238552451133728,4.747716903686523,19.9422607421875,-8.198099136352539,3,3,2,-1,9
T456_10_1,13,3.3668997306480213,1.58219987342401,1.7846998572240114,0.886535552193646,-0.2897510349403748,0.6718644559068665,0.8657421900000002,-1.025507816,1.1790656890667526,0.9407483370454092,-0.285386200223565,0.719798201341956,0.85744141,-1.0452832,-1.031445324853255,1.0254361764993611,1.9110253900000005,0.7809683216439273,0.4911996569710392,0.2314732900891399,0.8181445319999999,0.0894140579999999,-0.082589961100941,0.9828012746770592,0.4035893238670694,0.2606556868692961,0.853876956,0.088544918,0.001696275139884,1.0670377853216009,0.765332038,0.0519997886947354,-0.3417594909403747,0.3505794961452356,0.137333984,-0.830644522,-0.2485105520512517,1.3038754164215172,-0.3040143802779457,0.3473113564597543,0.145234372,-0.83488282,0.177654830147877,1.2615736824867845,0.980117192,0.6462170467143843,-17.126607903735582,73.75928292444199,0.5751111764278255,-6.307503817605773,66.73203578364857,0.1004607449459127,4.741797721233973,73.44577827857648,0.5871790706701556,0.4301700228704268,0.5431320799197452,536.8521885422927,0.1099462076616049,0,10.37602844558064,411,0.4301700228704268,1.289391587302401,172.84147580854662,59.658874167623225,-1.1522926092147827,2.1888906955718994,25.647506713867188,10.43078327178955,1,1,0,-1,9
T456_10_1,14,2.8970997682320183,1.5011998799040096,1.395899888328009,1.0754352030947776,-0.3815523301364452,0.6633422873271254,0.8445898540000001,-1.0657519439999998,1.2153169171027869,1.1212546866089916,-0.255545159092664,0.7025221299856457,0.841054696,-1.057109368,-1.343394440876537,1.0783783536953575,1.910341798,0.7622241539602832,0.4717983996840216,0.2465596186373775,0.8386816359999999,0.097802736,-0.0028753013224813,1.1373344816923487,0.4690520945444016,0.2510070052882109,0.855234376,0.090644528,0.0657268123360108,1.1898808032436057,0.764589848,0.0258490282952293,-0.2930613752567325,0.3418943777357328,0.162978512,-0.7987597700000001,-0.1612121884898271,1.4508424753386524,-0.3338810072393822,0.3193889200616719,0.10305664,-0.831552732,0.1986285881375986,1.4177457282626902,0.994531244,0.608737216884226,-10.87715650142458,80.03992840555797,0.6411287947262189,-8.377843426070761,77.69598114625074,0.0940386852514816,2.6155301797579114,82.61594774346082,0.6770746974185367,0.4332902745020368,0.5411492790746774,465.3537548151875,0.1051020802649926,0,8.272237700382895,339,0.4332902745020368,1.2308006756489596,101.3008012445925,-12.323671697731694,1.5040559768676758,4.473282337188721,18.94916343688965,-8.219654083251953,3,3,2,-1,9
T456_10_1,15,4.1255996699520265,1.889999848800012,2.235599821152014,0.8454106280193238,-0.1683573544964337,0.7367659402384433,0.8999023420000001,-1.063515624,1.0233290744589172,0.9123241456170396,-0.469335760509047,0.7250555790276663,0.900087888,-1.113457028,-0.8285929925712012,1.4200332195487024,2.013544916,0.6032312098679826,0.4479628134293866,0.2419304656077654,0.8266601520000001,0.05170898,-0.0729321783213402,0.9322724492238844,0.2184238699613993,0.2611028788146011,0.7350195279999999,-0.12743164,-0.0338363473123824,1.27291529611232,0.954091792,0.3481819967520934,-0.3578524670670471,0.316129184427337,0.1044043019999999,-0.7809082059999999,-0.1890759505758096,1.0522734894076118,-0.2711508113486127,0.2731782217269795,0.07308595,-0.81700195,0.0881990310315882,1.2097477349244852,0.921406252,0.4727762507700852,-29.781610696984956,75.85417775741958,0.6497891218648365,-15.094241019373444,70.46436266323848,0.1455246612801026,5.178909449425766,68.83604619392307,0.4473153052358972,0.4771385269156801,0.6237298093659027,729.5448076540749,0.16137770122436,0,14.394590200605023,433,0.4771385269156801,1.6421369194033109,365.5796035405715,81.61322158057895,-2.583213806152344,2.140237808227539,32.66536331176758,15.406697273254396,1,1,0,-1,10
G998_15_1,0,3.14549974836002,1.8170998546320116,1.3283998937280084,1.3678861788617886,-0.6837965963353115,0.4778133718567882,0.40404297,-1.044853522,0.7451939388736692,1.131604419612274,-0.5257954338093306,0.5167900675293108,0.4033593759999999,-1.0038769600000002,-1.0089455835762255,1.2724549412531874,1.4488964919999998,0.453388165001352,0.3731506154985163,0.1339080687117852,0.6110156239999999,0.217568358,0.0783894267763537,0.6370261966146119,0.4578521189655172,0.1153663741769826,0.66018555,0.2847460960000001,-0.1010526157325067,0.8176671726077765,0.442617192,0.6056931150992584,-0.334693613347181,0.3192062573494995,-0.0328124999999999,-0.8587207040000001,-0.2337494458090838,1.064822997885775,-0.5065774744503043,0.2188963271048278,-0.16758789,-0.8207519439999998,0.2186385631098739,1.1473398001488735,0.8259082040000002,0.6893391079751743,-9.505294523183531,10.95137076717617,0.038108881001694,-7.217484340032593,88.97287087115642,0.259567824288025,1.197315249432246,42.73497952781661,0.2448052611404083,0.1636865334465985,0.2187506540971715,190.85849799873392,0.0210585674361759,0,3.41700303295429,439,0.1636865334465985,0.5390913011786518,-173.21437140280662,87.74115814758433,9.91295051574707,-0.9932894706726074,-22.772390365600582,14.87765121459961,0,0,1,-1,4
G998_15_1,1,2.9267997658560185,1.4957998803360095,1.430999885520009,1.0452830188679243,-0.5113197488504505,0.5645909460686188,0.574492192,-1.016650388,1.0087229460541591,1.1114617173236725,-0.4233072724406779,0.566280201895057,0.5719238319999999,-0.981406252,-1.0714686307908592,1.0416670877253726,1.59114258,0.6609203453469452,0.4156482975387387,0.1326506553711212,0.635419922,0.2450878979999999,0.040745598927518,0.72765826345099,0.3426417569943502,0.09077021808398,0.507919926,0.2010253879999999,-0.0948446295302679,0.6419382346826856,0.434394534,0.5039198818372082,-0.4786336928360361,0.2823847424966766,-0.1267285199999999,-0.8696093779999999,-0.2678985773885635,1.055395485482901,-0.6430703046101695,0.2154109888170296,-0.297041018,-0.9458496080000002,0.1886519675729404,1.11914365242766,0.8191210880000003,0.7293711753051921,-9.35651475932166,7.675391256719876,0.0785117864514026,-9.34960676762765,92.26162347053304,0.3045387941981151,6.98187947876129,38.77837485148325,0.2735620485677815,0.227019164055142,0.2871642398046113,246.31579299982909,0.0309255997742648,0,4.439173008585184,385,0.227019164055142,0.6909672035174875,-117.76043535543884,33.72817329226962,7.73473596572876,-0.4701066613197326,-13.103012084960938,10.883591651916504,0,0,0,-1,4
G998_15_1,2,2.2949998164000145,1.1933999045280077,1.101599911872007,1.0833333333333333,-0.3975777516388262,0.5762436604157847,0.5971289059999999,-1.001445312,1.3027217130663962,1.0966490074751547,-0.269649465202934,0.6026727397254328,0.5953710940000001,-0.982499998,-1.387780880811862,1.357335794719854,1.598574218,0.7836056021842204,0.3426424042708804,0.0816682269671557,0.479511714,0.2099707039999999,0.055898261552471,0.5854092738017926,0.3344005467237164,0.0558146191644979,0.416074216,0.251503904,-0.0027924566504111,0.6116897607070222,0.2695410100000001,0.0649809807847268,-0.6739165238645598,0.2231301298290839,-0.2981933599999999,-0.97395508,-0.2014416065292686,1.1566645487491487,-0.7178378325819071,0.1658737190861221,-0.451416014,-0.9440136680000002,0.0767793071590481,1.3265077552251658,0.6757617200000001,0.3680447482852433,-13.513599811706229,10.031537368865804,0.3708030258569378,-5.8249782077931975,109.6638378955686,0.5004369220192966,1.4108896589330195,38.21534335368794,0.5035811670978783,0.3148998927919095,0.3740468690613957,267.97980876591504,0.0407491177742768,0,5.083033008563995,355,0.3148998927919095,0.9501766236895696,-96.0949051192954,3.722297343421842,6.764064311981201,0.5880057215690613,-7.144808292388916,4.689210414886475,0,0,0,-1,5
G998_15_1,3,2.4056998075440155,1.1609999071200074,1.2446999004240078,0.9327548806941433,-0.2751407990208817,0.5848347151912058,0.637519534,-0.9777441520000002,1.35298076973716,0.9670887458841224,-0.3895894225930736,0.6190881141791494,0.635351564,-1.003164064,-1.259269090859617,1.411022417908525,1.640683598,0.7712892953501296,0.343242052450116,0.0488713535380422,0.4138574319999999,0.245761724,0.0263697144265434,0.4798963887510156,0.3803151632380952,0.0863601081837268,0.52101563,0.2574804699999999,-0.0032638405439049,0.7020216358056595,0.275253906,0.1222589035075483,-0.7341811603526682,0.1889440760775742,-0.430283204,-1.004755862,-0.0181601943899397,1.1801204639226075,-0.5811940251038961,0.2557715049151652,-0.167128902,-0.914980464,0.2410141078165182,1.4234624062906618,0.8376269600000001,0.5026976675883718,-22.093559767188346,13.187332543815875,0.6787883365484119,-11.7366594721278,108.94760788084974,0.495366282925715,-3.3089864237892384,36.58684825025108,0.5533245732425804,0.3024409069294045,0.3598958772132992,269.77728898102885,0.0380545402508493,0,5.055360862449102,359,0.3024409069294045,0.7544248167424212,-94.29785414089488,7.722415664701254,6.730998992919922,0.4331180155277252,-7.138485431671143,5.394146919250488,0,0,0,-1,5
