Application:, Trigno Discover (1.6.5)
Date/Time:, 29/01/2025 10:22:21
Collection Length (seconds):, 41.1075
wrist (81457), , , , , , bicep (81139)
sensor mode: 609, , , , , , sensor mode: 40
ACC X (G), ACC Y (G), ACC Z (G), GYRO X (deg/s), GYRO Y (deg/s), GYRO Z (deg/s), EMG 1 (mV)
370.3704 Hz, 370.3704 Hz, 370.3704 Hz, 370.3704 Hz, 370.3704 Hz, 370.3704 Hz, 2148.1481 Hz
0.9863281, -0.0844727, -0.2402344, -9.5121956, -8.9024391, 2.5609756, -0.0433051
0.9873047, -0.0874023, -0.2412109, -9.8170738, -8.9634151, 2.804878, -0.0459907
0.9804688, -0.0888672, -0.2397461, -9.6341467, -8.719512, 2.804878, -0.0449836
0.9785156, -0.0898438, -0.2353516, -9.9390249, -8.6585369, 3.0487804, -0.0433051
0.9682617, -0.0878906, -0.2290039, -9.2682924, -8.3536587, 2.6829269, -0.0486763
0.9536133, -0.0976562, -0.2280273, -9.0243902, -8.1707315, 2.7439024, -0.0486763
0.9482422, -0.1005859, -0.2319336, -8.5365858, -8.2926826, 2.5609756, -0.0486763
0.9462891, -0.105957, -0.2416992, -7.9878049, -8.780488, 2.5, -0.0493477
0.9536133, -0.1103516, -0.2431641, -7.6219516, -8.9024391, 2.3780489, -0.0486763
0.9545898, -0.1108398, -0.2441406, -7.5, -8.2317076, 2.3170731, -0.0503548
0.9550781, -0.1147461, -0.2456055, -7.3170733, -7.7439027, 1.9512196, -0.0486763
0.9584961, -0.1054688, -0.246582, -6.280488, -6.4634147, 1.9512196, -0.0466621
0.9589844, -0.0976562, -0.2412109, -5.5487804, -6.1585369, 1.7682927, -0.0446479
0.9628906, -0.0830078, -0.2470703, -5, -5.7926831, 1.402439, -0.0453193
0.9663086, -0.0791016, -0.2495117, -5.1219511, -6.0975609, 1.5243902, -0.0433051
0.9702148, -0.0737305, -0.25, -5.1219511, -6.5853658, 1.5243902, -0.0446479
0.9755859, -0.0634766, -0.2392578, -4.9390244, -6.6463418, 1.7073171, -0.0412909
0.980957, -0.0585938, -0.2338867, -5.7926831, -6.4024391, 1.8292683, -0.0433051
0.9804688, -0.0605469, -0.2265625, -5.9756098, -6.3414636, 2.0121951, -0.0446479
0.9848633, -0.0620117, -0.2236328, -6.3414636, -6.280488, 2.2560976, -0.0433051
0.9838867, -0.0722656, -0.2172852, -7.1951222, -7.1951222, 2.8658538, -0.0433051
0.9829102, -0.0742188, -0.21875, -7.1951222, -7.4390244, 3.0487804, -0.0386053
0.9799805, -0.0786133, -0.2285156, -7.6829271, -7.4390244, 3.3536587, -0.0406195
0.9814453, -0.078125, -0.2270508, -8.2317076, -7.2560978, 3.3536587, -0.0433051
0.9770508, -0.0751953, -0.2270508, -8.780488, -7.0121951, 3.0487804, -0.0439765
0.9770508, -0.0766602, -0.2207031, -8.4146347, -6.9512196, 2.8658538, -0.0446479
0.9819336, -0.0874023, -0.2109375, -8.841464, -7.7439027, 2.5, -0.0436408
0.9799805, -0.0908203, -0.2172852, -8.9024391, -8.0487804, 2.5, -0.0416266
0.9814453, -0.0942383, -0.2216797, -9.0243902, -8.4756098, 2.3780489, -0.0412909
0.9790039, -0.09375, -0.2250977, -8.9024391, -7.7439027, 2.3780489, -0.0419623
0.9755859, -0.1000977, -0.2211914, -8.6585369, -7.7439027, 2.0731707, -0.0392767
0.9746094, -0.1040039, -0.2133789, -8.3536587, -7.8048782, 1.7073171, -0.0412909
0.9731445, -0.1064453, -0.2133789, -8.1707315, -7.8048782, 1.7073171, -0.0426337
0.9692383, -0.1015625, -0.2143555, -8.4756098, -8.1707315, 1.2804878, -0.0412909
0.9726562, -0.0981445, -0.2167969, -8.3536587, -7.9268293, 1.1585366, -0.0459907
0.9794922, -0.0996094, -0.2226562, -8.9024391, -8.6585369, 0.6097561, -0.0459907
0.9814453, -0.1049805, -0.2246094, -8.719512, -8.9024391, 0.3658537, -0.0433051
0.9916992, -0.1113281, -0.2270508, -8.780488, -9.4512196, 0.1829268, -0.0449836
1.0083008, -0.109375, -0.2226562, -8.780488, -9.3902445, 0.2439024, -0.0412909
1.0141602, -0.1025391, -0.2231445, -8.4146347, -8.841464, 0.1219512, -0.0365911
1.0083008, -0.0927734, -0.2290039, -7.6829271, -7.8048782, 0.0609756, -0.0426337
1.0024414, -0.081543, -0.2294922, -8.2926826, -7.4390244, -0.1219512, -0.0446479
0.9873047, -0.0668945, -0.2421875, -8.9024391, -7.5609756, -0.3048781, -0.0439765
0.9799805, -0.0610352, -0.2446289, -9.2073174, -7.8658538, -0.1829268, -0.0433051
0.9824219, -0.059082, -0.2412109, -10.1219511, -9.1463413, 0.6097561, -0.0433051
0.9814453, -0.0600586, -0.2470703, -10.6097565, -9.4512196, 0.7317073, -0.042298
0.9829102, -0.0664062, -0.2460938, -11.5853662, -9.5121956, 1.1585366, -0.0446479
0.9838867, -0.0717773, -0.2475586, -11.7682934, -9.0853662, 1.1585366, -0.0433051
0.9790039, -0.0800781, -0.2431641, -12.0731707, -8.4756098, 1.6463414, -0.0433051
0.9755859, -0.0844727, -0.2290039, -12.0121956, -8.4756098, 1.9512196, -0.0426337
0.9741211, -0.0805664, -0.2250977, -11.7682934, -8.1097565, 2.0121951, -0.0449836
0.9794922, -0.0727539, -0.2285156, -11.1585369, -8.1707315, 1.8292683, -0.0459907
0.9775391, -0.0693359, -0.230957, -11.341464, -7.9878049, 1.4634147, -0.0449836
0.9755859, -0.0708008, -0.2314453, -12.2560978, -8.5365858, 1.0365853, -0.0446479
0.9731445, -0.0751953, -0.2324219, -12.7439032, -8.5975609, 1.4634147, -0.0439765
0.9736328, -0.0761719, -0.2299805, -12.8658543, -8.6585369, 1.8292683, -0.0446479
0.9716797, -0.0766602, -0.2329102, -13.1097565, -8.780488, 1.8902439, -0.0459907
0.9716797, -0.0825195, -0.2382812, -13.4146347, -8.2926826, 2.0121951, -0.0446479
0.9726562, -0.0869141, -0.2353516, -13.5365858, -8.3536587, 2.195122, -0.0433051
0.9716797, -0.0922852, -0.2314453, -13.2317076, -8.5365858, 2.1341465, -0.0439765
0.9736328, -0.0991211, -0.2299805, -13.1097565, -8.5975609, 1.8902439, -0.0439765
0.9775391, -0.1005859, -0.2285156, -13.0487804, -8.3536587, 1.6463414, -0.0446479
0.9829102, -0.1015625, -0.222168, -13.0487804, -8.6585369, 1.0365853, -0.0459907
0.9799805, -0.1035156, -0.2202148, -13.1707315, -8.4756098, 0.9146342, -0.0459907
0.9868164, -0.1049805, -0.2250977, -13.2317076, -8.6585369, 0.8536586, -0.0436408
0.9887695, -0.1030273, -0.2255859, -12.9878054, -8.6585369, 0.7926829, -0.0433051
0.9907227, -0.1040039, -0.2265625, -12.8658543, -8.2926826, 1.1585366, -0.0446479
0.9897461, -0.1005859, -0.2290039, -12.8048782, -8.2926826, 0.9146342, -0.0419623
0.9912109, -0.0874023, -0.2368164, -12.8658543, -8.0487804, 0.9756098, -0.0446479
0.984375, -0.0874023, -0.25, -13.1097565, -8.1097565, 0.7926829, -0.0433051
0.9824219, -0.0825195, -0.25, -13.9634151, -8.4146347, 1.097561, -0.0406195
0.9887695, -0.0810547, -0.2426758, -14.5121956, -8.719512, 1.5243902, -0.0412909
0.987793, -0.0795898, -0.2421875, -14.8780489, -9.0853662, 1.402439, -0.0439765
0.984375, -0.081543, -0.2382812, -14.6341467, -8.9634151, 1.5243902, -0.0433051
0.9838867, -0.0849609, -0.2358398, -14.5121956, -8.719512, 1.097561, -0.0436408
0.9770508, -0.0869141, -0.237793, -14.6951227, -8.841464, 1.3414634, -0.0446479
0.9780273, -0.0913086, -0.2373047, -14.4512196, -8.9024391, 1.5243902, -0.0419623
0.9765625, -0.0883789, -0.2353516, -14.6341467, -8.6585369, 2.0121951, -0.0439765
0.9760742, -0.0883789, -0.2333984, -14.5731707, -8.5975609, 1.9512196, -0.0433051
0.9765625, -0.0761719, -0.230957, -14.2073174, -7.8048782, 1.8292683, -0.0396124
0.9711914, -0.0615234, -0.2299805, -13.5975609, -7.4390244, 1.4634147, -0.0392767
0.9702148, -0.0595703, -0.2324219, -13.4756098, -7.7439027, 1.3414634, -0.0419623
0.9663086, -0.059082, -0.2441406, -13.9024391, -7.9878049, 1.3414634, -0.0406195
0.9658203, -0.0629883, -0.2441406, -14.7560978, -8.9634151, 1.8292683, -0.0433051
0.9707031, -0.0751953, -0.2348633, -14.5731707, -9.0853662, 2.4390244, -0.0412909
0.9775391, -0.078125, -0.2304688, -14.3902445, -9.1463413, 2.5, -0.0406195
0.9804688, -0.0810547, -0.2236328, -13.7195129, -8.1097565, 2.4390244, -0.0426337
0.9750977, -0.0834961, -0.2246094, -13.2926836, -7.3780489, 2.0731707, -0.0399481
0.9614258, -0.0917969, -0.2280273, -13.1097565, -6.890244, 1.8902439, -0.0399481
0.9594727, -0.0957031, -0.2260742, -13.2317076, -7.3780489, 2.1341465, -0.0352483
0.9619141, -0.0947266, -0.2290039, -13.7195129, -8.0487804, 2.5609756, -0.0352483
0.9658203, -0.0883789, -0.2329102, -13.5975609, -8.2317076, 2.3170731, -0.0339055
0.9648438, -0.0874023, -0.2304688, -13.4756098, -8.1097565, 1.8902439, -0.0392767
0.96875, -0.09375, -0.2290039, -13.4146347, -8.0487804, 1.7073171, -0.0406195
0.9677734, -0.0942383, -0.230957, -13.9024391, -8.1707315, 1.4634147, -0.0433051
0.9711914, -0.1049805, -0.2236328, -14.0853662, -8.1707315, 1.8902439, -0.0436408
0.9741211, -0.1035156, -0.2177734, -14.0243902, -8.2926826, 2.195122, -0.0473335
0.9726562, -0.0942383, -0.2119141, -13.5365858, -7.7439027, 1.5853659, -0.0453193
0.9731445, -0.0893555, -0.2163086, -13.2317076, -7.5609756, 1.5853659, -0.0412909
0.9648438, -0.0839844, -0.2265625, -13.5975609, -7.8658538, 0.9756098, -0.0379339
0.9599609, -0.0888672, -0.230957, -13.841464, -8.1707315, 1.1585366, -0.0392767
0.9633789, -0.097168, -0.2290039, -14.4512196, -8.9024391, 1.3414634, -0.0433051
0.9726562, -0.0996094, -0.2241211, -14.5121956, -9.3292685, 1.5243902, -0.0433051
0.9790039, -0.0986328, -0.2236328, -14.0853662, -9.2682924, 1.5853659, -0.0439765
0.980957, -0.0957031, -0.230957, -13.9024391, -9.0243902, 1.5243902, -0.0386053
0.9833984, -0.0908203, -0.237793, -13.4756098, -8.1097565, 1.2804878, -0.0386053
0.9780273, -0.0830078, -0.2441406, -14.2073174, -8.1097565, 1.6463414, -0.0392767
0.9726562, -0.0776367, -0.2416992, -14.3902445, -7.9878049, 1.8292683, -0.0382696
0.9775391, -0.065918, -0.2333984, -14.5731707, -7.8658538, 1.6463414, -0.0365911
0.984375, -0.0595703, -0.2324219, -14.3902445, -8.2317076, 1.8292683, -0.0392767
0.9819336, -0.0576172, -0.2402344, -14.4512196, -8.841464, 1.7682927, -0.0379339
0.9814453, -0.0634766, -0.2441406, -14.6951227, -8.841464, 1.7682927, -0.0392767
0.9799805, -0.0742188, -0.237793, -15.5487804, -8.719512, 2.3780489, -0.0419623
0.9833984, -0.0859375, -0.2338867, -16.1585369, -8.780488, 2.5, -0.0446479
0.9794922, -0.0893555, -0.230957, -16.1585369, -8.2317076, 2.9268293, -0.0436408
0.9750977, -0.0893555, -0.2255859, -15.9756098, -8.1707315, 3.1707318, -0.0433051
0.9726562, -0.0888672, -0.2280273, -15.8536587, -7.9878049, 2.804878, -0.0412909
0.9726562, -0.0830078, -0.2255859, -15.5487804, -8.2926826, 2.4390244, -0.0443122
0.9711914, -0.0874023, -0.2246094, -15.7926836, -8.6585369, 2.5609756, -0.0466621
0.9804688, -0.0883789, -0.2207031, -15.6097565, -8.9634151, 2.3780489, -0.0439765
0.9829102, -0.0893555, -0.2207031, -15.9146347, -8.9024391, 2.5609756, -0.0446479
0.9814453, -0.0883789, -0.2192383, -15.2439032, -8.4146347, 2.2560976, -0.0453193
0.9775391, -0.0893555, -0.21875, -15.2439032, -8.1097565, 2.4390244, -0.0433051
0.9692383, -0.0952148, -0.2236328, -15.6097565, -7.9268293, 2.3170731, -0.0449836
0.9584961, -0.0932617, -0.2246094, -15.6097565, -8.2926826, 2.5, -0.0439765
0.9584961, -0.0917969, -0.2275391, -15.8536587, -9.0243902, 2.5609756, -0.0459907
0.9560547, -0.090332, -0.2333984, -16.0365849, -9.0853662, 2.5609756, -0.0486763
0.9589844, -0.0927734, -0.2373047, -16.0365849, -9.3292685, 2.195122, -0.0453193
0.9628906, -0.0961914, -0.2436523, -15.7926836, -9.3292685, 2.2560976, -0.0433051
0.9648438, -0.0966797, -0.2441406, -15.5487804, -9.2682924, 1.8292683, -0.0439765
0.9775391, -0.0961914, -0.2446289, -15.1829271, -8.841464, 1.7682927, -0.0453193
0.9770508, -0.0961914, -0.2407227, -14.8780489, -8.780488, 1.8902439, -0.0486763
0.9824219, -0.0947266, -0.2426758, -14.2682934, -8.5365858, 1.8292683, -0.0466621
0.9829102, -0.0922852, -0.2436523, -14.0243902, -8.1707315, 1.5853659, -0.0486763
0.9873047, -0.0805664, -0.2436523, -14.3902445, -7.8048782, 1.6463414, -0.0500191
0.9833984, -0.0698242, -0.2373047, -14.2073174, -7.5, 1.5853659, -0.0513619
0.9833984, -0.0688477, -0.2319336, -14.4512196, -7.6219516, 1.3414634, -0.0540475
0.9873047, -0.0644531, -0.2304688, -15.1219511, -7.9268293, 1.2195122, -0.0493477
0.9873047, -0.065918, -0.2285156, -15.2439032, -8.5365858, 1.7682927, -0.0473335
0.984375, -0.0761719, -0.2275391, -15.4268293, -9.0243902, 1.9512196, -0.0459907
0.9853516, -0.081543, -0.2265625, -15.3658543, -8.9024391, 2.0121951, -0.0446479
0.9838867, -0.0834961, -0.2246094, -15.060976, -8.719512, 2.2560976, -0.0493477
0.9853516, -0.0854492, -0.2294922, -15.060976, -8.9024391, 2.3780489, -0.0466621
0.9790039, -0.0917969, -0.2246094, -15.2439032, -8.2926826, 2.3170731, -0.0486763
0.9829102, -0.0888672, -0.2241211, -15.060976, -8.0487804, 2.195122, -0.0513619
0.9794922, -0.0849609, -0.2148438, -15.2439032, -7.9878049, 1.7073171, -0.0486763
0.9731445, -0.0878906, -0.2119141, -15.060976, -7.8658538, 1.7073171, -0.0419623
0.9731445, -0.0917969, -0.2192383, -15.3658543, -8.5975609, 1.5853659, -0.0392767
0.96875, -0.0981445, -0.2236328, -15.4878054, -9.2682924, 1.6463414, -0.0412909
0.9663086, -0.1010742, -0.2275391, -15.4878054, -9.1463413, 1.7073171, -0.0399481
0.9736328, -0.1040039, -0.2294922, -15.3658543, -9.2073174, 2.2560976, -0.0426337
0.9731445, -0.1010742, -0.2294922, -15, -8.9634151, 1.8902439, -0.0439765
0.9770508, -0.0947266, -0.2329102, -14.5731707, -8.4756098, 1.4634147, -0.0419623
0.9760742, -0.0961914, -0.2329102, -14.2682934, -8.3536587, 1.5243902, -0.0433051
0.9746094, -0.0957031, -0.2363281, -14.3292685, -8.2317076, 1.4634147, -0.0433051
0.9746094, -0.0922852, -0.2363281, -14.2682934, -8.4756098, 1.7682927, -0.0473335
0.9760742, -0.0791016, -0.2329102, -14.6341467, -8.780488, 1.8902439, -0.0459907
0.9780273, -0.0722656, -0.2333984, -14.2682934, -8.4146347, 1.5853659, -0.0436408
0.9790039, -0.0727539, -0.2285156, -14.3902445, -8.4756098, 1.5853659, -0.0469978
0.9760742, -0.0678711, -0.2294922, -14.8780489, -8.4756098, 1.5853659, -0.0439765
0.9765625, -0.0717773, -0.2290039, -15.4268293, -8.841464, 1.9512196, -0.0433051
0.972168, -0.0800781, -0.2324219, -16.3414631, -9.0243902, 2.4390244, -0.0406195
0.972168, -0.0810547, -0.2324219, -16.5243912, -9.1463413, 2.5, -0.0399481
0.9731445, -0.0800781, -0.2338867, -16.2195129, -9.0243902, 2.4390244, -0.0433051
0.9765625, -0.0820312, -0.2329102, -16.280489, -9.0853662, 2.5609756, -0.0426337
0.9790039, -0.0888672, -0.2299805, -16.4024391, -9.0243902, 2.195122, -0.0412909
0.980957, -0.090332, -0.2285156, -16.4024391, -8.9634151, 2.3170731, -0.0416266
0.9838867, -0.0932617, -0.2275391, -16.280489, -9.4512196, 2.5609756, -0.0409552
0.987793, -0.1030273, -0.2270508, -16.2195129, -9.5731707, 2.2560976, -0.0412909
0.9819336, -0.1015625, -0.2260742, -16.0975609, -8.9634151, 2.1341465, -0.0386053
0.9814453, -0.1064453, -0.230957, -15.6707325, -8.5365858, 1.8292683, -0.0392767
0.9780273, -0.1040039, -0.2299805, -15.6707325, -8.4146347, 1.8902439, -0.0412909
0.9780273, -0.0981445, -0.234375, -15.4878054, -8.719512, 1.6463414, -0.0446479
0.9785156, -0.0976562, -0.2358398, -15.1829271, -8.719512, 1.7073171, -0.0486763
0.9794922, -0.0942383, -0.2426758, -15.4878054, -8.9024391, 1.5853659, -0.0486763
0.9765625, -0.09375, -0.246582, -15.4268293, -9.0853662, 1.5243902, -0.0463264
0.9755859, -0.1000977, -0.2421875, -15.1829271, -8.6585369, 1.2804878, -0.0426337
0.9799805, -0.1025391, -0.2387695, -15.2439032, -8.780488, 1.2804878, -0.0406195
0.9824219, -0.1015625, -0.2294922, -14.6951227, -8.3536587, 1.3414634, -0.0399481
0.9799805, -0.0952148, -0.2280273, -14.5731707, -8.0487804, 1.2804878, -0.0392767
0.9790039, -0.0874023, -0.2265625, -13.841464, -7.5609756, 0.7317073, -0.0412909
0.9707031, -0.0786133, -0.2348633, -14.0243902, -7.3780489, 0.6097561, -0.0419623
0.9672852, -0.0717773, -0.2392578, -14.6341467, -7.5609756, 0.6707317, -0.042298
0.9589844, -0.0742188, -0.2407227, -14.9390249, -8.780488, 1.0365853, -0.0409552
0.965332, -0.0800781, -0.2402344, -15.1219511, -9.2073174, 1.2804878, -0.0406195
0.9692383, -0.0898438, -0.2397461, -15, -9.4512196, 1.5243902, -0.0409552
0.9731445, -0.0927734, -0.2363281, -14.7560978, -9.2682924, 1.6463414, -0.0466621
0.9755859, -0.1005859, -0.2368164, -14.6341467, -8.2926826, 1.4634147, -0.0463264
0.9746094, -0.0986328, -0.2304688, -14.5731707, -8.1097565, 1.2804878, -0.0446479
0.9619141, -0.0932617, -0.2294922, -14.2682934, -8.4146347, 1.097561, -0.0433051
0.9633789, -0.0917969, -0.2290039, -14.4512196, -8.841464, 1.1585366, -0.0419623
0.9604492, -0.0859375, -0.2299805, -14.3902445, -9.3292685, 1.402439, -0.0433051
0.9643555, -0.0800781, -0.2294922, -14.9390249, -9.3292685, 1.1585366, -0.0396124
0.9672852, -0.0786133, -0.2285156, -14.9390249, -9.6341467, 1.4634147, -0.0406195
0.9638672, -0.0791016, -0.2246094, -14.5731707, -10.060976, 1.2195122, -0.0416266
0.9638672, -0.0825195, -0.222168, -14.6951227, -10.6707315, 1.402439, -0.0446479
0.9638672, -0.0961914, -0.21875, -14.8170738, -11.280488, 1.8292683, -0.0459907
0.9628906, -0.1000977, -0.2202148, -14.5121956, -11.5853662, 1.8292683, -0.0412909
0.9599609, -0.1108398, -0.21875, -14.4512196, -11.7682934, 2.0731707, -0.0359197
0.9594727, -0.1132812, -0.21875, -14.0243902, -11.8902445, 2.2560976, -0.03122
0.9560547, -0.1132812, -0.2128906, -13.5975609, -11.8902445, 1.8292683, -0.0298772
0.9536133, -0.1171875, -0.2158203, -13.5365858, -12.0121956, 1.5853659, -0.024506
0.9506836, -0.1171875, -0.215332, -13.2317076, -12.560976, 1.2804878, -0.0191348
0.9560547, -0.1147461, -0.2211914, -12.9878054, -13.2317076, 0.8536586, -0.0164492
0.9599609, -0.112793, -0.2260742, -12.9878054, -13.5365858, 0.9146342, -0.0127565
0.9663086, -0.1064453, -0.2255859, -12.2560978, -13.2317076, 1.1585366, -0.011078
0.972168, -0.1015625, -0.2246094, -12.0121956, -12.8048782, 1.2195122, -0.0198062
0.9711914, -0.0908203, -0.2299805, -12.0121956, -12.4390249, 1.3414634, -0.0204776
0.9702148, -0.0830078, -0.2329102, -12.1341467, -12.8658543, 1.097561, -0.024506
0.9663086, -0.0771484, -0.2348633, -12.8658543, -13.6585369, 0.9146342, -0.0231632
0.9682617, -0.0825195, -0.2353516, -13.3536587, -13.9024391, 1.0365853, -0.0258488
0.9702148, -0.0947266, -0.2436523, -14.9390249, -15.060976, 1.5243902, -0.0271916
0.9707031, -0.1113281, -0.2495117, -15.3048782, -15.4268293, 1.7073171, -0.03122
0.9741211, -0.1162109, -0.2480469, -15, -15.6097565, 2.0731707, -0.0359197
0.9692383, -0.1098633, -0.2504883, -14.9390249, -14.6341467, 1.8902439, -0.0396124
0.9697266, -0.1079102, -0.2553711, -14.8170738, -13.7195129, 2.0121951, -0.0433051
0.9697266, -0.1079102, -0.2509766, -14.5731707, -13.2926836, 1.6463414, -0.0446479
0.965332, -0.1054688, -0.2456055, -14.3902445, -13.1707315, 1.7073171, -0.0473335
0.9628906, -0.0927734, -0.2416992, -14.2073174, -12.7439032, 1.5243902, -0.0540475
0.9624023, -0.090332, -0.2407227, -14.4512196, -12.8048782, 1.7073171, -0.0607614
0.9589844, -0.0883789, -0.2514648, -15, -12.9878054, 1.7682927, -0.0647898
0.956543, -0.0883789, -0.2553711, -15.2439032, -13.4146347, 1.9512196, -0.0621042
0.9541016, -0.1015625, -0.2607422, -15.4268293, -13.841464, 1.8902439, -0.0647898
0.9545898, -0.1191406, -0.2617188, -15.5487804, -14.0243902, 2.0731707, -0.0647898
0.9560547, -0.1206055, -0.2607422, -15.2439032, -14.2682934, 2.5, -0.063447
0.9643555, -0.1245117, -0.2666016, -14.5731707, -13.2926836, 2.6829269, -0.0654612
0.9609375, -0.121582, -0.2734375, -14.0243902, -12.560976, 2.9268293, -0.0654612
0.9584961, -0.1054688, -0.2841797, -13.3536587, -11.0365858, 3.2317073, -0.0627756
0.9584961, -0.0952148, -0.2866211, -13.2317076, -10, 3.4146342, -0.0614328
0.9589844, -0.0717773, -0.293457, -12.9268293, -8.4756098, 2.9268293, -0.0782177
0.9594727, -0.0585938, -0.3017578, -12.7439032, -8.4146347, 2.804878, -0.0903029
0.9628906, -0.0527344, -0.3051758, -13.3536587, -9.2682924, 3.0487804, -0.0849317
0.9682617, -0.0517578, -0.3105469, -14.1463413, -9.6951218, 3.1707318, -0.0785534
0.9794922, -0.059082, -0.300293, -15.1829271, -9.7560978, 4.390244, -0.0654612
0.984375, -0.0732422, -0.2749023, -15.6097565, -9.6341467, 5.0609756, -0.0584115
0.9853516, -0.0732422, -0.2641602, -15.6097565, -8.780488, 5.7317076, -0.0513619
0.9780273, -0.0791016, -0.2641602, -15.2439032, -8.0487804, 6.5853658, -0.0453193
0.972168, -0.0830078, -0.2651367, -14.9390249, -7.9878049, 6.8292685, -0.0433051
0.9624023, -0.0800781, -0.2714844, -15.1829271, -8.4146347, 7.8658538, -0.0406195
0.965332, -0.074707, -0.2705078, -15.3048782, -8.3536587, 8.1097565, -0.0372625
0.9716797, -0.0639648, -0.2709961, -15.5487804, -8.4146347, 8.6585369, -0.0359197
0.9750977, -0.0615234, -0.265625, -15.6707325, -8.2926826, 8.6585369, -0.0345769
0.9799805, -0.0595703, -0.2573242, -16.0365849, -8.780488, 8.5365858, -0.0352483
0.9804688, -0.0585938, -0.2587891, -16.7073174, -9.1463413, 8.6585369, -0.0372625
0.9833984, -0.0737305, -0.2792969, -17.560976, -10.9146347, 8.6585369, -0.0379339
0.987793, -0.0942383, -0.2988281, -18.1707325, -11.7073174, 9.0243902, -0.0365911
0.9848633, -0.1010742, -0.3105469, -18.9634151, -13.2926836, 9.7560978, -0.0386053
0.9897461, -0.1049805, -0.3295898, -19.2073174, -12.9268293, 10.9146347, -0.0426337
0.9863281, -0.1030273, -0.3334961, -19.1463413, -12.6829271, 10.8536587, -0.0540475
0.9824219, -0.0942383, -0.3291016, -19.5121956, -11.4634151, 11.0365858, -0.0547189
0.9833984, -0.0922852, -0.3276367, -19.6951218, -11.219512, 10.6097565, -0.0493477
0.9707031, -0.0961914, -0.3188477, -21.1585369, -12.5, 10.1829271, -0.0433051
0.9697266, -0.0961914, -0.3129883, -22.1341476, -12.6829271, 10.3658543, -0.0382696
0.96875, -0.1025391, -0.2851562, -23.780489, -14.0243902, 10.4878054, -0.0315557
0.9672852, -0.1054688, -0.2705078, -24.3902435, -14.5731707, 10.6097565, -0.0292058
0.9716797, -0.1098633, -0.2568359, -24.9390259, -15.8536587, 11.0365858, -0.0271916
0.9628906, -0.1079102, -0.2817383, -25.1829281, -16.5853653, 11.1585369, -0.0271916
0.9638672, -0.1064453, -0.3007812, -25.8536587, -18.780489, 11.6463413, -0.0285344
0.9702148, -0.0996094, -0.3374023, -27.6219521, -19.8780499, 12.560976, -0.0298772
0.9716797, -0.0893555, -0.3452148, -28.841465, -19.8780499, 12.9878054, -0.0345769
0.9858398, -0.0825195, -0.3461914, -30.8536587, -20.3658543, 13.4146347, -0.0359197
0.9921875, -0.081543, -0.3369141, -31.341465, -20.6097565, 13.4756098, -0.0365911
0.9936523, -0.0795898, -0.3208008, -33.1707306, -20.6707325, 13.2926836, -0.0412909
0.9916992, -0.0761719, -0.3129883, -34.0243912, -21.280489, 12.9268293, -0.0459907
0.9750977, -0.0756836, -0.3041992, -36.5243912, -22.3780499, 12.7439032, -0.0459907
0.9628906, -0.0771484, -0.3115234, -37.8658562, -23.7195129, 13.0487804, -0.0433051
0.9570312, -0.0805664, -0.3178711, -40.6707344, -26.7073174, 13.780488, -0.0386053
0.9584961, -0.0888672, -0.3212891, -42.5609779, -27.9878063, 14.7560978, -0.0399481
0.9575195, -0.0966797, -0.3222656, -44.0243912, -30.3048782, 16.1585369, -0.0412909
0.9746094, -0.1137695, -0.3164062, -45, -31.7682934, 17.1951218, -0.0399481
0.9833984, -0.1220703, -0.315918, -45, -32.0731697, 17.3170738, -0.0406195
0.9882812, -0.1323242, -0.309082, -45.1829262, -32.5609779, 17.2560978, -0.0392767
0.9868164, -0.1289062, -0.3076172, -45, -33.0487823, 17.1951218, -0.0359197
0.9794922, -0.1337891, -0.3193359, -44.6951218, -33.9634171, 17.3780499, -0.0325628
0.9770508, -0.1333008, -0.3300781, -44.5731735, -34.7560997, 17.560976, -0.0305486
0.9750977, -0.1259766, -0.3554688, -44.6951218, -36.341465, 18.1097565, -0.0271916
0.9765625, -0.1064453, -0.3632812, -45.1829262, -36.9512215, 18.4756107, -0.0271916
0.9775391, -0.1015625, -0.3647461, -45.9756126, -37.4390259, 19.0853672, -0.0298772
0.9799805, -0.0942383, -0.3598633, -46.341465, -37.8658562, 18.8414631, -0.0298772
0.9780273, -0.1000977, -0.3535156, -47.9268303, -39.7560997, 18.1097565, -0.0352483
0.9726562, -0.1235352, -0.3427734, -48.7195129, -42.6219521, 17.7439022, -0.0365911
0.972168, -0.1391602, -0.3378906, -48.4146347, -44.3902435, 17.6219521, -0.0412909
0.9736328, -0.171875, -0.3300781, -47.3780518, -47.1341476, 18.2926826, -0.0493477
0.980957, -0.1855469, -0.3276367, -46.7073174, -47.8658562, 18.4146347, -0.0486763
0.984375, -0.2109375, -0.3193359, -44.4512215, -49.1463432, 18.2926826, -0.0459907
0.9858398, -0.2143555, -0.3188477, -43.4756126, -49.5731735, 18.1097565, -0.0520333
0.9741211, -0.2099609, -0.3334961, -40.8536606, -50.4268303, 17.6219521, -0.0530404
0.9614258, -0.1962891, -0.3691406, -40.1829262, -51.7073174, 17.1341476, -0.0513619
0.9555664, -0.1870117, -0.3808594, -39.0853653, -54.3292694, 16.6463413, -0.0520333
0.9638672, -0.1777344, -0.3881836, -38.7804871, -55.4878044, 16.7073174, -0.0513619
0.9677734, -0.1743164, -0.3916016, -37.9268303, -57.68293, 16.7073174, -0.0503548
0.980957, -0.1743164, -0.3867188, -36.5243912, -59.2682953, 15.8536587, -0.0486763
0.984375, -0.171875, -0.3837891, -36.1585388, -59.8780518, 15.7926836, -0.0476692
0.9824219, -0.1733398, -0.3803711, -34.6341476, -61.7682953, 15.3048782, -0.0466621
0.9790039, -0.168457, -0.3808594, -34.4512215, -62.68293, 15, -0.0500191
0.9604492, -0.1577148, -0.3901367, -34.1463432, -64.3292694, 15.5487804, -0.0480049
0.9575195, -0.1464844, -0.3979492, -34.0243912, -65.4268341, 15.7317076, -0.042298
0.956543, -0.1416016, -0.4023438, -33.7195129, -67.9878082, 16.2195129, -0.0399481
0.9638672, -0.1601562, -0.4018555, -33.5365868, -69.5121994, 15.4878054, -0.0379339
0.9677734, -0.1699219, -0.4008789, -32.9268303, -72.8048782, 15, -0.0342412
0.9794922, -0.1826172, -0.4208984, -31.9512196, -74.1463394, 14.8780489, -0.0379339
0.984375, -0.1855469, -0.4365234, -30.7317085, -76.0365906, 14.6951227, -0.0379339
0.9882812, -0.1875, -0.4824219, -29.4512196, -76.646347, 14.7560978, -0.0396124
0.9946289, -0.1831055, -0.4936523, -28.780489, -76.3414688, 15.1829271, -0.038941
0.9907227, -0.1621094, -0.5073242, -27.6829281, -75.7926865, 15.6097565, -0.0419623
0.9931641, -0.1557617, -0.5097656, -26.9512196, -75.7317123, 15.6707325, -0.0439765
0.9975586, -0.1425781, -0.5078125, -25.9756107, -76.2195129, 15.6707325, -0.0406195
0.9970703, -0.1342773, -0.5087891, -26.2195129, -76.5853653, 15.8536587, -0.0392767
0.9814453, -0.1293945, -0.5146484, -26.7073174, -76.9512177, 16.5243912, -0.0419623
0.9716797, -0.1303711, -0.5371094, -27.1951218, -77.3170776, 17.0121956, -0.0446479
0.9707031, -0.1245117, -0.5498047, -27.8048782, -78.2317123, 17.9878044, -0.0406195
0.9697266, -0.1279297, -0.5664062, -27.9268303, -78.8414688, 18.5975609, -0.0386053
0.9780273, -0.1323242, -0.5805664, -27.1341476, -79.5121994, 19.2073174, -0.0386053
0.9960938, -0.1347656, -0.5854492, -26.2195129, -79.0853653, 19.3902435, -0.0359197
1.0029297, -0.1430664, -0.5849609, -26.1585369, -78.6585388, 19.2682934, -0.0339055
1.0024414, -0.1674805, -0.5683594, -25.9146347, -77.7439041, 19.1463413, -0.0325628
1.0014648, -0.1767578, -0.5546875, -25.6707325, -77.1341476, 19.3292694, -0.0365911
0.9819336, -0.1914062, -0.5317383, -24.7560978, -75.8536606, 20.060976, -0.0352483
0.9736328, -0.1884766, -0.5307617, -23.9024391, -75.4878082, 20.4268303, -0.0372625
0.9545898, -0.1821289, -0.5517578, -22.0731716, -75.7317123, 20.7926826, -0.0406195
0.9365234, -0.1704102, -0.5766602, -21.2195129, -75.5487823, 21.0975609, -0.0382696
0.940918, -0.1616211, -0.5932617, -20.060976, -77.4390259, 21.8902435, -0.0392767
0.9760742, -0.1542969, -0.6196289, -20.2439022, -78.4756088, 21.8902435, -0.0392767
0.9951172, -0.1655273, -0.6103516, -21.5853672, -78.4756088, 21.4024391, -0.0406195
1.0092773, -0.1914062, -0.5649414, -22.3170738, -76.4634171, 20.6097565, -0.0443122
1.0068359, -0.2060547, -0.5429688, -22.0121956, -75.4268341, 20.6707325, -0.0436408
0.9853516, -0.2026367, -0.5209961, -21.2195129, -73.4146347, 21.1585369, -0.0396124
0.9672852, -0.1879883, -0.527832, -20.7926826, -73.3536606, 21.7682934, -0.0359197
0.9399414, -0.1542969, -0.5400391, -20.6097565, -73.0487823, 21.7073174, -0.0433051
0.9277344, -0.1420898, -0.546875, -20.9146347, -74.0853653, 21.6463413, -0.0453193
0.9248047, -0.1489258, -0.5566406, -21.6463413, -77.9878082, 20.4268303, -0.0466621
0.9487305, -0.1835938, -0.5683594, -22.0731716, -80.3658524, 20.1829281, -0.0453193
0.9594727, -0.2021484, -0.5756836, -22.439024, -83.4146347, 20.1829281, -0.0446479
0.9814453, -0.2358398, -0.5644531, -21.4634151, -83.2317123, 19.8780499, -0.0419623
0.984375, -0.2480469, -0.5551758, -20.1219521, -82.3170776, 19.6951218, -0.0449836
0.9750977, -0.2583008, -0.534668, -17.2560978, -79.4512177, 19.5731716, -0.0473335
0.9580078, -0.2490234, -0.5302734, -15.7317076, -78.3536606, 19.3902435, -0.0500191
0.9243164, -0.2260742, -0.534668, -13.9024391, -78.4756088, 19.3292694, -0.0469978
0.9150391, -0.2099609, -0.5463867, -13.5975609, -79.0853653, 19.6951218, -0.0459907
0.9008789, -0.1708984, -0.5625, -13.4146347, -80.6707306, 20.9756107, -0.0433051
0.9023438, -0.1508789, -0.5703125, -13.6585369, -81.2804871, 21.2195129, -0.0446479
0.9204102, -0.1176758, -0.5869141, -14.4512196, -83.0487823, 21.1585369, -0.0412909
0.9414062, -0.112793, -0.6064453, -14.3292685, -84.146347, 20.8536587, -0.0433051
0.9511719, -0.1269531, -0.6132812, -15.5487804, -86.2804871, 20.7317085, -0.0406195
0.9765625, -0.159668, -0.6044922, -16.5243912, -87.3170776, 20.9756107, -0.042298
0.9755859, -0.1801758, -0.5986328, -16.9512196, -87.4390259, 21.4634151, -0.0396124
0.9589844, -0.2060547, -0.6030273, -16.2195129, -87.0121994, 21.7073174, -0.0453193
0.9414062, -0.2158203, -0.6118164, -15.5487804, -86.2195129, 21.8292694, -0.0574044
0.9072266, -0.2109375, -0.637207, -14.5121956, -84.8170776, 22.5, -0.0661326
0.8945312, -0.1928711, -0.6376953, -14.0243902, -84.146347, 23.3536587, -0.0621042
0.8896484, -0.1630859, -0.6206055, -13.7195129, -83.5975647, 23.5365868, -0.0513619
0.8925781, -0.1542969, -0.6049805, -13.780488, -83.8414688, 23.4756107, -0.0412909
0.9057617, -0.144043, -0.5864258, -14.9390249, -85.9146347, 22.9268303, -0.0359197
0.9160156, -0.1508789, -0.5791016, -16.0975609, -87.2560959, 22.8048782, -0.0325628
0.9189453, -0.1591797, -0.565918, -17.6829281, -89.146347, 23.1097565, -0.0305486
0.9282227, -0.1625977, -0.5439453, -18.8414631, -89.8170776, 23.6585369, -0.0251774
0.9262695, -0.1582031, -0.5473633, -18.5365849, -90.3658524, 24.0853672, -0.0251774
0.9086914, -0.1459961, -0.5639648, -19.2682934, -91.4634171, 24.5121956, -0.0275273
0.8984375, -0.1435547, -0.5742188, -19.939024, -92.1951218, 25.060976, -0.0305486
0.8999023, -0.1342773, -0.590332, -21.5243912, -94.8780518, 25.4268303, -0.03122
0.9033203, -0.1352539, -0.59375, -21.8902435, -96.8292694, 25.4878063, -0.0298772
0.9121094, -0.1459961, -0.6054688, -22.9268303, -99.5121994, 24.5731716, -0.03122
0.918457, -0.1635742, -0.605957, -23.2317085, -100.4268341, 24.3292694, -0.0305486
0.921875, -0.2001953, -0.6220703, -23.3536587, -102.0121994, 24.2682934, -0.027863
0.9194336, -0.2202148, -0.6479492, -23.6585369, -102.68293, 24.2073174, -0.0318914
0.9140625, -0.2241211, -0.6601562, -23.0487804, -102.5609818, 25.060976, -0.0339055
0.9121094, -0.2231445, -0.6508789, -22.5, -100.8536606, 25.6707325, -0.0379339
0.9145508, -0.2182617, -0.6401367, -21.4634151, -99.6341476, 25.5487804, -0.0406195
0.9086914, -0.1923828, -0.6298828, -20.2439022, -97.9878082, 24.9390259, -0.0446479
0.9038086, -0.1826172, -0.6425781, -20.060976, -98.4146347, 24.5121956, -0.049012
0.887207, -0.1699219, -0.6791992, -19.8170738, -100.7926865, 24.0243912, -0.0527047
0.8813477, -0.1704102, -0.6992188, -20.1829281, -102.0121994, 24.2682934, -0.0486763
0.8955078, -0.1679688, -0.7128906, -21.1585369, -103.9024429, 25.6097565, -0.0503548
0.9018555, -0.171875, -0.7148438, -21.1585369, -103.7804871, 26.280489, -0.0513619
0.925293, -0.1669922, -0.7163086, -21.3414631, -102.4390259, 26.8902454, -0.0527047
0.9296875, -0.1699219, -0.706543, -21.1585369, -101.646347, 27.1341476, -0.0540475
0.9296875, -0.1704102, -0.6967773, -21.2195129, -100.4268341, 27.1341476, -0.0493477
0.9194336, -0.1821289, -0.6723633, -21.1585369, -100.2439041, 26.6463413, -0.0473335
0.9121094, -0.1865234, -0.6660156, -20.8536587, -100.9146347, 27.0121956, -0.0513619
0.8974609, -0.1962891, -0.6772461, -20.6707325, -102.5609818, 27.2560978, -0.0516976
0.8896484, -0.1982422, -0.6860352, -20.2439022, -102.8048782, 27.5, -0.0543832
0.8847656, -0.1904297, -0.6889648, -19.7560978, -102.9268341, 28.3536587, -0.0520333
0.887207, -0.1796875, -0.6894531, -19.6951218, -102.5609818, 28.6585369, -0.0540475
0.894043, -0.1508789, -0.6748047, -19.2682934, -101.5243912, 28.4756107, -0.056733
0.8969727, -0.1455078, -0.684082, -19.0853672, -101.4024429, 28.1707325, -0.0553902
0.894043, -0.1474609, -0.7148438, -20.2439022, -103.9024429, 28.0487804, -0.0547189
0.8955078, -0.1699219, -0.7431641, -21.2195129, -105.5487823, 28.3536587, -0.0553902
0.9130859, -0.1894531, -0.7441406, -22.6219521, -108.4756088, 29.2682934, -0.0540475
0.9335938, -0.2231445, -0.7207031, -22.7439022, -109.146347, 29.8780499, -0.0553902
0.9448242, -0.2348633, -0.6987305, -22.0731716, -108.3536606, 29.9390259, -0.0557259
0.9350586, -0.2426758, -0.6850586, -20.4878044, -106.2195129, 29.7560978, -0.0527047
0.9199219, -0.237793, -0.6928711, -19.6341476, -105.6707306, 29.6341476, -0.0486763
0.8901367, -0.2265625, -0.7104492, -19.2073174, -106.646347, 28.841465, -0.0473335
0.8774414, -0.2202148, -0.7114258, -19.5731716, -107.4390259, 28.6585369, -0.0486763
0.8808594, -0.2055664, -0.6884766, -19.8780499, -110.18293, 28.1097565, -0.0486763
0.887207, -0.2080078, -0.6772461, -20.2439022, -111.3414688, 27.6219521, -0.0500191
0.8925781, -0.2250977, -0.6621094, -19.4512196, -113.1707306, 26.6463413, -0.0493477
0.8833008, -0.234375, -0.6787109, -19.1463413, -114.7561035, 26.6463413, -0.0453193
0.8759766, -0.230957, -0.7075195, -18.2317085, -116.8902435, 26.7682934, -0.0433051
0.8706055, -0.2192383, -0.7661133, -17.5, -118.5975647, 27.6219521, -0.0412909
0.8740234, -0.2128906, -0.7885742, -17.1951218, -119.146347, 28.1707325, -0.0396124
0.8925781, -0.2060547, -0.8173828, -17.1951218, -120.3048782, 28.3536587, -0.0433051
0.9052734, -0.2045898, -0.8110352, -17.1951218, -120.36586, 28.5365868, -0.0459907
0.9306641, -0.2241211, -0.7753906, -16.9512196, -120.3048782, 28.2317085, -0.0459907
0.9399414, -0.2436523, -0.7470703, -16.7073174, -120.0609818, 27.7439022, -0.0486763
0.9257812, -0.2763672, -0.703125, -14.7560978, -120.4268341, 27.0731716, -0.0486763
0.90625, -0.2900391, -0.7016602, -13.2926836, -120.9146347, 26.8292694, -0.0466621
0.8515625, -0.2841797, -0.746582, -10.3658543, -121.7073212, 26.9512196, -0.0500191
0.8193359, -0.2451172, -0.7998047, -9.5731707, -122.1341476, 27.1341476, -0.0547189
0.8134766, -0.2255859, -0.8125, -8.5975609, -123.2317123, 27.0731716, -0.0520333
0.828125, -0.184082, -0.8164062, -8.9634151, -123.5975647, 26.2195129, -0.0493477
0.8359375, -0.1689453, -0.8061523, -9.9390249, -124.0243912, 26.280489, -0.0459907
0.8544922, -0.1552734, -0.7832031, -10.9756098, -124.2073212, 25.9146347, -0.0463264
0.859375, -0.1591797, -0.7724609, -11.6463413, -124.6341476, 25.9146347, -0.0446479
0.8564453, -0.1816406, -0.7504883, -12.4390249, -125.6097565, 26.280489, -0.0419623
0.8466797, -0.1972656, -0.7509766, -12.3780489, -126.4024429, 26.6463413, -0.0372625
0.809082, -0.2324219, -0.7773438, -11.7682934, -128.1707306, 27.2560978, -0.0339055
0.7880859, -0.2460938, -0.7910156, -11.280488, -129.0243988, 27.9268303, -0.0439765
0.7641602, -0.2539062, -0.8295898, -9.8170738, -129.2682953, 28.841465, -0.0607614
0.7553711, -0.2407227, -0.8447266, -9.2073174, -128.9634247, 29.3292694, -0.0621042
0.7548828, -0.2290039, -0.8505859, -8.9024391, -127.86586, 29.3902454, -0.0433051
0.7670898, -0.2016602, -0.8813477, -9.1463413, -126.9512253, 28.9024391, -0.0164492
0.769043, -0.1875, -0.9018555, -9.7560978, -127.0121994, 28.5365868, -0.0090639
0.7802734, -0.1782227, -0.9194336, -12.0121956, -127.6219559, 28.2926826, -0.0137636
0.7861328, -0.1816406, -0.9233398, -12.5, -127.86586, 28.6585369, -0.0117494
0.7944336, -0.2041016, -0.9150391, -13.4146347, -127.9878082, 29.1463413, -0.0097353
0.7978516, -0.2270508, -0.9033203, -13.780488, -127.5, 29.6951218, -0.0073854
0.7880859, -0.2646484, -0.8818359, -13.0487804, -125.7926865, 30.060976, -0.0070497
0.7773438, -0.2802734, -0.8701172, -11.8292685, -124.7561035, 30.4268303, -0.003357
0.7612305, -0.2949219, -0.8393555, -9.6951218, -123.4146347, 29.9390259, -0.0063783
0.7353516, -0.3056641, -0.8144531, -8.4756098, -122.8048782, 29.3292694, -0.0124208
0.7250977, -0.3022461, -0.8149414, -6.4024391, -122.86586, 28.4146347, -0.0208133
0.7041016, -0.2978516, -0.8188477, -4.8780489, -123.9024429, 27.560976, -0.0285344
0.6982422, -0.2915039, -0.8271484, -4.0243902, -124.8170776, 27.0731716, -0.0365911
0.6953125, -0.2739258, -0.8613281, -2.5609756, -126.8292694, 26.0365868, -0.0426337
0.6914062, -0.2675781, -0.8837891, -2.0731707, -127.86586, 25.9146347, -0.0486763
0.6987305, -0.2695312, -0.9033203, -1.5243902, -128.5365906, 26.2195129, -0.0540475
0.7050781, -0.2724609, -0.8979492, -1.5853659, -128.5365906, 26.1585369, -0.056733
0.7036133, -0.2661133, -0.8916016, -0.5487805, -127.3170776, 26.0975609, -0.0607614
0.6992188, -0.2548828, -0.8813477, 0.3048781, -126.0975647, 26.0365868, -0.0621042
0.6967773, -0.2495117, -0.8764648, 1.8292683, -124.5121994, 25.3658543, -0.0647898
0.6787109, -0.2553711, -0.8623047, 2.1341465, -124.5731735, 25.060976, -0.0627756
0.668457, -0.269043, -0.862793, 2.9878049, -125.9146347, 24.4512196, -0.0627756
0.6503906, -0.2890625, -0.8876953, 3.2926829, -129.3902435, 24.7560978, -0.0604257
0.6411133, -0.2988281, -0.9038086, 3.5975611, -130.3048859, 25.3658543, -0.0607614
0.6391602, -0.2983398, -0.9165039, 4.5731707, -130.5487823, 26.6463413, -0.06009
0.6513672, -0.2924805, -0.9091797, 5.609756, -129.6341553, 26.8902454, -0.0553902
0.6625977, -0.2680664, -0.8740234, 6.890244, -127.0731735, 25.7317085, -0.0527047
0.6601562, -0.2568359, -0.8666992, 7.3170733, -125.9146347, 24.8780499, -0.056733
0.6386719, -0.2397461, -0.859375, 7.3780489, -126.7073212, 24.4512196, -0.0580758
0.6142578, -0.2412109, -0.878418, 7.3780489, -127.9878082, 24.8170738, -0.0614328
0.6098633, -0.2421875, -0.8935547, 6.2195125, -131.4634247, 26.0975609, -0.066804
0.6054688, -0.2426758, -0.9160156, 6.0365853, -132.7439117, 26.7682934, -0.0661326
0.6044922, -0.2431641, -0.9296875, 5.670732, -133.9024353, 28.2926826, -0.0614328
0.6123047, -0.2509766, -0.9536133, 5.609756, -134.3902435, 29.2073174, -0.0597543
0.6171875, -0.2558594, -0.9570312, 5.3048782, -134.2682953, 29.7560978, -0.0577401
0.6357422, -0.2841797, -0.9521484, 4.8780489, -135, 30.6097565, -0.0527047
0.6396484, -0.2983398, -0.9467773, 5.0609756, -134.9390259, 31.0975609, -0.0513619
0.6225586, -0.3168945, -0.956543, 5.4878049, -134.6951294, 31.7073174, -0.0513619
0.6123047, -0.3076172, -0.9785156, 6.280488, -134.2073212, 32.0731697, -0.0459907
0.5854492, -0.2836914, -1.0297852, 7.8658538, -133.0487823, 32.6219521, -0.0406195
0.578125, -0.2651367, -1.0498047, 8.2317076, -132.6219482, 33.2317085, -0.0433051
0.5883789, -0.2641602, -1.0366211, 7.5, -130.8536682, 34.4512215, -0.0419623
0.6113281, -0.2739258, -0.965332, 6.7682929, -130, 34.6951218, -0.0406195
0.6098633, -0.2807617, -0.9335938, 5.9756098, -128.4756165, 34.6951218, -0.0392767
0.5844727, -0.2983398, -0.9155273, 7.5, -127.6219559, 34.4512215, -0.0372625
0.5615234, -0.309082, -0.9228516, 8.3536587, -128.5365906, 34.6951218, -0.0412909
0.5209961, -0.3198242, -0.9599609, 10.1829271, -130.3048859, 35.6707344, -0.0409552
0.5131836, -0.3222656, -0.9819336, 10.7317076, -131.4024353, 36.8292694, -0.0406195
0.5092773, -0.3115234, -1.0253906, 11.0975609, -131.9512177, 38.2926826, -0.0392767
0.515625, -0.2958984, -1.0410156, 10.7926836, -131.5853729, 38.6585388, -0.0406195
0.5395508, -0.2617188, -1.0488281, 9.2682924, -129.0853729, 38.5365868, -0.0406195
0.5576172, -0.2490234, -1.0107422, 7.9878049, -128.0487823, 38.1707344, -0.0399481
0.5649414, -0.2539062, -0.9814453, 4.5121951, -127.1341476, 38.0487823, -0.0399481
0.5600586, -0.2807617, -0.9350586, 2.7439024, -127.4390259, 38.0487823, -0.0392767
0.5439453, -0.2988281, -0.9282227, 1.6463414, -129.2682953, 38.5365868, -0.0392767
0.5087891, -0.3344727, -0.9628906, 2.1341465, -132.3170776, 39.5121956, -0.0426337
0.4985352, -0.3461914, -0.9838867, 2.5609756, -133.2926788, 40.4878044, -0.0419623
0.4858398, -0.3496094, -1.0029297, 3.0487804, -132.9268341, 40, -0.0379339
0.4833984, -0.3500977, -0.9980469, 3.1707318, -132.2561035, 39.2073174, -0.0399481
0.4697266, -0.3574219, -0.9799805, 2.9268293, -131.3414612, 38.1707344, -0.0406195
0.4667969, -0.359375, -0.9765625, 3.1097562, -131.1585388, 37.6829262, -0.0365911
0.4521484, -0.3496094, -0.9692383, 3.4756098, -131.5853729, 37.6829262, -0.0386053
0.4462891, -0.3212891, -0.9985352, 3.5975611, -132.5609741, 37.9268303, -0.0369268
0.4443359, -0.3110352, -1.0258789, 4.0243902, -134.2682953, 37.8658562, -0.0359197
0.449707, -0.296875, -1.090332, 3.5975611, -135.4878082, 38.3536606, -0.03122
0.4545898, -0.2890625, -1.1074219, 0.4878049, -136.8292694, 39.8780479, -0.0325628
0.4868164, -0.2910156, -1.097168, -2.9878049, -136.1585388, 40.5487823, -0.0359197
0.5068359, -0.3007812, -1.0717773, -4.2073174, -135, 40.7317085, -0.0352483
0.5205078, -0.3291016, -1.0083008, -5.4268293, -132.86586, 40.4268303, -0.0369268
0.5107422, -0.347168, -0.9833984, -5.3048782, -132.2561035, 40.4878044, -0.0365911
0.4707031, -0.3818359, -0.9741211, -2.6219513, -132.4390259, 40.7317085, -0.0406195
0.4472656, -0.3999023, -0.984375, -1.097561, -133.4146423, 40.8536606, -0.0433051
0.421875, -0.4135742, -1.0146484, 2.195122, -134.6951294, 41.4024391, -0.0446479
0.4072266, -0.4042969, -1.0512695, 3.5365853, -135.2439117, 41.2804871, -0.0419623
0.4086914, -0.4038086, -1.0786133, 5.7926831, -135.4268341, 40.7926826, -0.0406195
0.4179688, -0.387207, -1.1210938, 5.9756098, -135.6707306, 40.5487823, -0.0439765
0.4345703, -0.3867188, -1.1279297, 5.8536587, -135.7317047, 40.3048782, -0.0419623
0.4614258, -0.3710938, -1.1030273, 5.1219511, -133.5365906, 40.4268303, -0.0433051
0.4775391, -0.3574219, -1.0834961, 5, -131.646347, 39.9390259, -0.0459907
0.4726562, -0.3261719, -1.0522461, 5.7926831, -126.5853653, 38.9024391, -0.0453193
0.4560547, -0.3129883, -1.0385742, 6.3414636, -125.18293, 38.6585388, -0.0453193
0.4091797, -0.3012695, -1.0307617, 5.8536587, -124.2073212, 38.9634171, -0.0446479
0.3862305, -0.3037109, -1.0356445, 5.3658538, -125.3048782, 39.8170738, -0.0439765
0.3398438, -0.296875, -1.0805664, 4.2682929, -128.2317047, 41.6463432, -0.0466621
0.3271484, -0.2827148, -1.152832, 3.1097562, -129.9390259, 42.6829262, -0.0446479
0.3369141, -0.2749023, -1.168457, 0.0609756, -131.1585388, 44.5731735, -0.0446479
0.378418, -0.265625, -1.1220703, -4.6951222, -128.5365906, 45.3658562, -0.0436408
0.4038086, -0.265625, -1.0742188, -7.3170733, -126.5243912, 45.1219521, -0.0463264
0.4140625, -0.2939453, -0.987793, -10.4268293, -123.7195129, 44.0853653, -0.0486763
0.3959961, -0.3222656, -0.9648438, -11.1585369, -124.2073212, 44.5121956, -0.0412909
0.3452148, -0.3740234, -0.9545898, -10.5487804, -126.9512253, 45.9146347, -0.0392767
0.3227539, -0.3886719, -0.9501953, -9.5731707, -127.6219559, 46.8292694, -0.0433051
0.2856445, -0.3930664, -0.9604492, -6.3414636, -126.7073212, 47.0731735, -0.0433051
0.2646484, -0.3867188, -0.9848633, -4.5121951, -126.0365906, 46.341465, -0.0399481
0.2314453, -0.378418, -1.046875, -1.8292683, -126.0975647, 44.8170738, -0.0406195
0.2363281, -0.3896484, -1.0771484, -1.6463414, -127.0731735, 44.6951218, -0.0480049
0.2578125, -0.3999023, -1.065918, -3.0487804, -129.146347, 44.8170738, -0.0607614
0.3037109, -0.4208984, -1.0004883, -3.9634147, -128.5975647, 44.7560997, -0.0647898
0.3198242, -0.4194336, -0.9711914, -3.3536587, -126.5243912, 44.2073174, -0.0594186
0.3110352, -0.3955078, -0.9555664, -0.6707317, -121.7682953, 41.8902435, -0.0520333
0.2861328, -0.3759766, -0.9667969, 1.0365853, -120.0609818, 40.7926826, -0.0459907
0.2241211, -0.3427734, -1.0024414, 2.0731707, -119.2682953, 40.1219521, -0.0369268
0.2099609, -0.3286133, -1.0058594, 1.8902439, -120.36586, 40.1829262, -0.0325628
0.1928711, -0.3276367, -0.9892578, 0.9146342, -123.1097565, 40.9146347, -0.0285344
0.1948242, -0.3374023, -0.9770508, 0.5487805, -124.2682953, 41.0975609, -0.0251774
0.2001953, -0.3647461, -0.9667969, 1.6463414, -125.9756165, 41.7073174, -0.024506
0.1943359, -0.3837891, -1.0102539, 2.3170731, -126.5853653, 42.1341476, -0.024506
0.1884766, -0.378418, -1.0517578, 4.0243902, -126.9512253, 42.8048782, -0.0251774
0.1845703, -0.34375, -1.137207, 4.5731707, -125.8536606, 43.9634171, -0.0298772
0.1943359, -0.3125, -1.1572266, 3.7804878, -124.2682953, 44.0243912, -0.03122
0.234375, -0.2705078, -1.1318359, 0.5487805, -119.8780518, 43.1097565, -0.03122
0.2583008, -0.2641602, -1.0883789, -1.6463414, -117.7439041, 42.5609779, -0.0335698
0.265625, -0.2729492, -1.0078125, -6.2195125, -115.18293, 42.6829262, -0.0352483
0.2504883, -0.2851562, -0.9829102, -7.5, -115.6707306, 42.8048782, -0.0339055
0.2089844, -0.3261719, -0.9736328, -7.8048782, -118.5975647, 44.5121956, -0.0365911
0.1894531, -0.3500977, -0.9775391, -6.4634147, -120.4268341, 45.4268303, -0.0386053
0.1669922, -0.4106445, -0.9658203, -2.9878049, -122.2561035, 47.1951218, -0.0386053
0.1674805, -0.4624023, -0.9394531, -0.7317073, -122.3170776, 47.5609779, -0.0426337
0.1665039, -0.4790039, -0.9296875, 3.2317073, -120.7926865, 47.3170738, -0.0419623
0.1518555, -0.4633789, -0.9345703, 7.3780489, -118.2926865, 45.4878044, -0.0406195
0.1376953, -0.4326172, -0.9550781, 9.3292685, -116.9512253, 43.7804871, -0.0406195
0.1264648, -0.3515625, -0.9975586, 10.9756098, -115.7317123, 40.9756088, -0.0406195
0.1240234, -0.3178711, -1.0083008, 10.3658543, -115.4268341, 39.9390259, -0.0386053
0.1308594, -0.2666016, -0.9941406, 7.1951222, -116.4024429, 39.0853653, -0.0365911
0.1357422, -0.2607422, -0.9746094, 5.3048782, -117.3170776, 39.0243912, -0.042298
0.1503906, -0.2856445, -0.9555664, 2.9268293, -119.9390259, 40.6707344, -0.0433051
0.1489258, -0.3071289, -0.9619141, 2.7439024, -121.3414688, 42.1951218, -0.0446479
0.1386719, -0.3422852, -1.0019531, 4.6341462, -122.1951218, 45.1829262, -0.0436408
0.1352539, -0.324707, -1.0512695, 6.0975609, -121.4634171, 46.5853653, -0.0362554
0.1416016, -0.3081055, -1.0654297, 8.5365858, -116.7682953, 46.8902435, -0.0325628
0.152832, -0.2631836, -1.0668945, 8.5365858, -110.36586, 45.4268303, -0.0352483
0.1489258, -0.2436523, -1.0522461, 6.6463418, -108.1097565, 44.3902435, -0.0339055
0.1333008, -0.2294922, -1.0234375, 0, -107.0121994, 43.841465, -0.0352483
0.1220703, -0.2329102, -1.0205078, -4.0243902, -108.6585388, 44.5731735, -0.0359197
0.0952148, -0.234375, -1.0244141, -10.9146347, -112.0121994, 46.341465, -0.0359197
0.0898438, -0.2358398, -1.0244141, -13.1707315, -113.0487823, 47.3780518, -0.0379339
0.090332, -0.2553711, -0.9990234, -14.4512196, -112.86586, 48.0487823, -0.0386053
0.0952148, -0.2758789, -0.9799805, -14.6951227, -112.2561035, 48.1097565, -0.0399481
0.0893555, -0.3354492, -0.9716797, -14.7560978, -111.7682953, 49.2073174, -0.0365911
0.0722656, -0.3852539, -1.0283203, -14.2073174, -112.68293, 49.9390259, -0.0359197
0.078125, -0.4052734, -1.0576172, -12.3780489, -115.3048782, 51.8902435, -0.0339055
0.1201172, -0.4316406, -1.0454102, -9.8170738, -114.6341476, 51.5243912, -0.0365911
0.1499023, -0.4448242, -1.0126953, -8.5975609, -112.3780518, 50.0609779, -0.0392767
0.1547852, -0.4335938, -0.9604492, -6.5243902, -104.7561035, 45.7317085, -0.0392767
0.1298828, -0.4228516, -0.9667969, -5.3658538, -101.5243912, 43.7195129, -0.0406195
0.0483398, -0.3725586, -1.027832, -4.3292685, -99.7561035, 42.0731735, -0.0419623
0.0141602, -0.3413086, -1.059082, -4.4512196, -100.9756088, 41.9512215, -0.0446479
0.0097656, -0.2783203, -1.0556641, -6.280488, -103.1097565, 41.9512215, -0.0446479
0.027832, -0.2524414, -1.0307617, -7.5609756, -103.7195129, 41.2195129, -0.0540475
0.0595703, -0.2358398, -0.9829102, -10.3048782, -103.3536606, 39.7560997, -0.056733
0.0615234, -0.269043, -0.9863281, -11.341464, -103.9634171, 39.5731735, -0.0594186
0.0551758, -0.3022461, -1.003418, -12.8048782, -107.8048782, 42.1341476, -0.0594186
0.0751953, -0.3603516, -1.0234375, -12.3780489, -110.6707306, 46.0975609, -0.0553902
0.09375, -0.3740234, -1.0166016, -11.4024391, -110.2439041, 46.9512215, -0.0553902
0.1064453, -0.3710938, -0.9829102, -7.2560978, -103.9634171, 45.6097565, -0.0527047
0.0947266, -0.3520508, -0.9780273, -5.1829271, -100.0609818, 43.5365868, -0.0553902
0.0332031, -0.3081055, -0.9975586, -2.8658538, -94.7561035, 40.4878044, -0.0557259
-0.0019531, -0.2861328, -1.0107422, -3.4146342, -94.5731735, 40.1829262, -0.056733
-0.0375977, -0.2602539, -1.0268555, -6.2195125, -98.7804871, 40.9756088, -0.056733
-0.034668, -0.2578125, -1.0239258, -8.4146347, -101.5243912, 41.7682953, -0.0574044
-0.0043945, -0.2832031, -0.996582, -11.7682934, -106.3414688, 42.7439041, -0.0543832
0.0288086, -0.3212891, -0.9755859, -12.6219511, -107.3780518, 43.2317085, -0.0473335
0.0341797, -0.3388672, -0.9780273, -12.0731707, -107.8048782, 44.1463432, -0.0527047
0.0249023, -0.3466797, -0.9858398, -9.0243902, -104.8780518, 45, -0.0641184
0.0185547, -0.3417969, -0.9926758, -6.7682929, -103.0487823, 45.8536606, -0.0661326
0.0083008, -0.3212891, -0.9946289, -3.1097562, -98.8414688, 46.0365868, -0.0627756
0.0029297, -0.3125, -0.9868164, -1.7682927, -96.9512253, 45.7926826, -0.0500191
-0.0092773, -0.2910156, -0.9765625, -3.2926829, -95.7317123, 44.3292694, -0.0412909
-0.0288086, -0.2753906, -0.9858398, -4.7560978, -96.2804871, 44.0853653, -0.0325628
-0.0649414, -0.2529297, -1.0209961, -7.9268293, -99.2073212, 44.3292694, -0.0208133
-0.0791016, -0.234375, -1.0249023, -9.3292685, -100.4878082, 44.6951218, -0.0224918
-0.0698242, -0.2128906, -0.9916992, -12.1341467, -100.3658524, 45.4268303, -0.0164492
-0.059082, -0.2084961, -0.9414062, -13.0487804, -99.5121994, 45.6097565, -0.0073854
-0.0654297, -0.2138672, -0.9311523, -14.5121956, -97.8658524, 44.8780479, -0.0083925
-0.0981445, -0.2407227, -0.9750977, -15.6707325, -100.3658524, 46.2804871, -0.0063783
-0.1108398, -0.2524414, -1.0048828, -16.4024391, -102.8658524, 47.6829262, -0.0140993
-0.1035156, -0.2729492, -1.0288086, -17.9268303, -106.0975647, 50.9756126, -0.0318914
-0.0854492, -0.2749023, -1.0063477, -18.4756107, -105.3048782, 51.7682953, -0.0426337
-0.0595703, -0.2666016, -0.9370117, -18.2317085, -98.8414688, 49.6951218, -0.0446479
-0.0620117, -0.2641602, -0.8969727, -18.1097565, -95.1219559, 47.9268303, -0.0379339
-0.1064453, -0.2666016, -0.8417969, -18.2926826, -91.4024429, 45.1219521, -0.0288701
-0.1362305, -0.2714844, -0.8330078, -19.0243912, -92.4390259, 44.7560997, -0.03122
-0.2055664, -0.284668, -0.8525391, -20.1219521, -99.0243912, 44.8780479, -0.0285344
-0.2495117, -0.2944336, -0.9291992, -20, -102.5609818, 45.6707344, -0.03122
-0.2558594, -0.2949219, -0.9697266, -18.0487804, -108.3536606, 47.1951218, -0.0359197
-0.2075195, -0.3139648, -1.0068359, -15.3048782, -109.3292694, 49.4512215, -0.0406195
-0.1577148, -0.3237305, -1.0004883, -13.6585369, -108.1707306, 50.4268303, -0.0449836
-0.0708008, -0.3286133, -0.9599609, -10.7926836, -101.8292694, 49.3292694, -0.0513619
-0.0517578, -0.3237305, -0.9472656, -9.6951218, -97.9878082, 47.9268303, -0.0533761
-0.0742188, -0.2973633, -0.9580078, -8.5975609, -92.6219559, 45.1219521, -0.0553902
-0.0986328, -0.2827148, -0.9711914, -9.2073174, -91.9512253, 44.6951218, -0.0580758
-0.1503906, -0.2460938, -0.9873047, -10.4878054, -92.7439041, 44.3902435, -0.0543832
-0.1650391, -0.2382812, -0.9912109, -11.219512, -93.7804871, 44.1463432, -0.0594186
-0.1777344, -0.2524414, -0.9672852, -12.6219511, -95.3658524, 43.7804871, -0.0587472
-0.1679688, -0.2861328, -0.9272461, -13.1707315, -95.6097565, 44.0243912, -0.0560616
-0.1635742, -0.300293, -0.9228516, -13.780488, -95.4878082, 44.1463432, -0.0607614
-0.1811523, -0.3203125, -0.9858398, -13.2317076, -95.7317123, 44.8780479, -0.0654612
-0.1953125, -0.3095703, -1.0410156, -12.6829271, -96.1585388, 45.4878044, -0.0688182
-0.1958008, -0.2705078, -1.0966797, -13.5365858, -95.6097565, 45.9756126, -0.0718395
-0.1787109, -0.25, -1.0703125, -14.6341467, -93.9024429, 45.6707344, -0.070161
-0.1352539, -0.2109375, -0.9501953, -18.5975609, -88.4756088, 41.9512215, -0.0674754
-0.1289062, -0.2055664, -0.8852539, -21.5853672, -86.646347, 39.8780479, -0.0661326
-0.1918945, -0.2182617, -0.8203125, -26.8902454, -86.8292694, 37.9878044, -0.0661326
-0.2958984, -0.2431641, -0.8691406, -28.9634151, -89.6341476, 38.5975609, -0.0594186
-0.340332, -0.2514648, -0.918457, -31.5853672, -97.68293, 41.6463432, -0.0557259
-0.3598633, -0.2475586, -0.9882812, -32.0121956, -100.6097565, 43.5975609, -0.056733
-0.3334961, -0.2392578, -1.0004883, -32.7439041, -102.8658524, 46.0975609, -0.0530404
-0.2749023, -0.2294922, -0.9980469, -34.4512215, -100.3658524, 45.0609779, -0.0516976
-0.2495117, -0.2319336, -0.9921875, -35.9756088, -99.0243912, 44.4512215, -0.0520333
-0.2109375, -0.2807617, -0.9794922, -38.2926826, -99.3292694, 44.4512215, -0.0516976
-0.1987305, -0.3178711, -0.9672852, -38.1097565, -100.5487823, 45.5487823, -0.0486763
-0.1665039, -0.3842773, -0.9267578, -35.5487823, -102.1341476, 47.1341476, -0.0500191
-0.1630859, -0.3959961, -0.9072266, -32.9878044, -100.4268341, 47.0731735, -0.0433051
-0.206543, -0.3686523, -0.9082031, -26.5853672, -93.4756088, 44.3292694, -0.0412909
-0.3056641, -0.3134766, -0.9741211, -23.9634151, -90.6097565, 42.9268303, -0.0426337
-0.3422852, -0.2875977, -1.0024414, -22.8048782, -89.146347, 42.3780479, -0.0426337
-0.3457031, -0.2573242, -0.9980469, -23.8414631, -90.3658524, 42.3780479, -0.0433051
-0.3256836, -0.262207, -0.9648438, -26.2195129, -93.4756088, 42.3780479, -0.0426337
-0.2724609, -0.2944336, -0.8945312, -26.9512196, -94.2682953, 41.0975609, -0.038941
-0.2651367, -0.315918, -0.878418, -26.1585369, -93.5975647, 40.9146347, -0.0392767
-0.2626953, -0.3461914, -0.8876953, -23.780489, -93.0487823, 41.2804871, -0.0379339
-0.2670898, -0.347168, -0.90625, -22.1951218, -92.6219559, 41.341465, -0.0382696
-0.2792969, -0.3320312, -0.9282227, -21.4024391, -90.5487823, 40.3048782, -0.0359197
-0.2871094, -0.3154297, -0.9169922, -22.1341476, -89.2682953, 39.0853653, -0.03122
-0.3178711, -0.2866211, -0.8598633, -24.1463413, -85.6707306, 36.2804871, -0.03122
-0.3637695, -0.2597656, -0.824707, -25.3658543, -84.7560959, 34.9390259, -0.0339055
-0.3911133, -0.25, -0.8398438, -27.9268303, -86.9512253, 33.7804871, -0.0318914
-0.4208984, -0.2504883, -0.8955078, -28.7195129, -89.9390259, 34.7560997, -0.03122
-0.4067383, -0.2514648, -0.90625, -30.1219521, -95.6097565, 37.4390259, -0.0305486
-0.3476562, -0.2612305, -0.8666992, -30.3048782, -96.0365906, 38.2926826, -0.0339055
-0.3291016, -0.2631836, -0.8305664, -30, -94.0853653, 37.3780479, -0.0365911
-0.3154297, -0.2822266, -0.7480469, -28.841465, -88.8414688, 35.4878044, -0.0365911
-0.3286133, -0.2949219, -0.7182617, -28.0487804, -87.6219559, 34.4512215, -0.0379339
-0.3916016, -0.3095703, -0.7255859, -26.0365868, -89.146347, 33.5975609, -0.0318914
-0.4326172, -0.3115234, -0.769043, -25, -91.5243912, 33.5365868, -0.0285344
-0.4887695, -0.2944336, -0.8994141, -23.4756107, -97.0731735, 35.6097565, -0.0251774
-0.4584961, -0.2558594, -0.9633789, -22.6829281, -98.7804871, 36.4024391, -0.0251774
-0.4179688, -0.2402344, -0.9458008, -22.560976, -97.8048782, 36.8902435, -0.0271916
-0.3398438, -0.2216797, -0.8510742, -22.9878063, -94.7561035, 36.0975609, -0.0298772
-0.3256836, -0.2182617, -0.8203125, -24.2073174, -89.0853653, 33.9024391, -0.0288701
-0.3618164, -0.246582, -0.8320312, -25.2439022, -87.8048782, 33.4756088, -0.0305486
-0.3818359, -0.2695312, -0.8549805, -25.5487804, -89.2682953, 34.5121956, -0.0325628
-0.3959961, -0.3110352, -0.8588867, -24.3292694, -92.1951218, 36.5853653, -0.0339055
-0.3896484, -0.3251953, -0.8300781, -22.7439022, -92.6219559, 36.5243912, -0.0359197
-0.3969727, -0.3222656, -0.7548828, -18.7195129, -89.3902435, 34.4512215, -0.0352483
-0.4228516, -0.3100586, -0.737793, -17.0121956, -86.8902435, 33.7804871, -0.0352483
-0.4926758, -0.2675781, -0.7763672, -16.0365849, -84.9390259, 33.7804871, -0.0339055
-0.5351562, -0.2050781, -0.8613281, -17.0731716, -85.6707306, 34.6341476, -0.0332341
-0.5415039, -0.168457, -0.9013672, -21.4024391, -88.2317123, 35.5487823, -0.03122
-0.5058594, -0.159668, -0.9199219, -24.4512196, -89.5731735, 35.3048782, -0.0382696
-0.46875, -0.1767578, -0.9013672, -30, -91.4024429, 36.341465, -0.0621042
-0.3916016, -0.2275391, -0.8481445, -33.6585388, -90.5487823, 37.5609779, -0.0782177
-0.3686523, -0.2470703, -0.8330078, -34.2682953, -89.2682953, 37.6829262, -0.0782177
-0.3574219, -0.2651367, -0.8491211, -34.2073174, -85.8536606, 37.4390259, -0.0637827
-0.3725586, -0.2739258, -0.8564453, -34.0853653, -84.4512253, 37.2560997, -0.0516976
-0.4018555, -0.2866211, -0.8413086, -34.8780479, -82.5, 37.3780479, -0.0406195
-0.4194336, -0.2875977, -0.8286133, -35.1829262, -81.646347, 37.4390259, -0.0305486
-0.4536133, -0.2753906, -0.7993164, -34.8780479, -79.9390259, 37.3170738, -0.0258488
-0.4858398, -0.2407227, -0.8041992, -34.6951218, -79.2682953, 37.1951218, -0.0271916
-0.5019531, -0.2285156, -0.8076172, -35.6097565, -78.5365906, 35.9146347, -0.0292058
-0.5024414, -0.2329102, -0.8115234, -36.1585388, -79.0243912, 35.9146347, -0.0292058
-0.4882812, -0.2539062, -0.8007812, -37.3780479, -82.2560959, 36.0975609, -0.03122
-0.4370117, -0.3193359, -0.7514648, -36.8292694, -85.3048782, 35.7317085, -0.0325628
-0.4204102, -0.3457031, -0.7324219, -35.1219521, -85.3048782, 35.3658562, -0.0359197
-0.4350586, -0.3491211, -0.7543945, -29.7560978, -82.8658524, 33.7195129, -0.0412909
-0.4580078, -0.3339844, -0.7890625, -27.1341476, -81.4024429, 33.0487823, -0.0459907
-0.4892578, -0.2856445, -0.84375, -24.8170738, -79.4512177, 32.5, -0.0459907
-0.4921875, -0.2602539, -0.8457031, -25.4878063, -79.3292694, 32.1341476, -0.0466621
-0.4833984, -0.2353516, -0.8154297, -27.4390259, -78.9634171, 30.2439022, -0.0466621
-0.4736328, -0.2387695, -0.7548828, -28.7195129, -79.6341476, 29.3902454, -0.0520333
-0.4711914, -0.2421875, -0.7304688, -29.4512196, -80.0609741, 28.6585369, -0.0500191
-0.4873047, -0.2524414, -0.7236328, -28.780489, -80.5487823, 28.4146347, -0.0486763
-0.5014648, -0.2543945, -0.7446289, -27.9878063, -81.0975647, 28.5975609, -0.0480049
-0.5366211, -0.2578125, -0.8203125, -26.9512196, -82.5, 30.3658543, -0.0459907
-0.543457, -0.2558594, -0.8623047, -26.5243912, -83.3536606, 31.5853672, -0.0466621
-0.5151367, -0.2348633, -0.9111328, -25.9756107, -82.9878082, 33.9634171, -0.0419623
-0.4868164, -0.2182617, -0.8969727, -26.2195129, -81.5853653, 34.1463432, -0.0399481
-0.4399414, -0.1977539, -0.8125, -27.9878063, -77.2560959, 31.8902454, -0.0412909
-0.4433594, -0.1967773, -0.7641602, -29.1463413, -75.6097565, 30.9756107, -0.0379339
-0.4833984, -0.1992188, -0.703125, -30.4268303, -74.0853653, 29.2073174, -0.0392767
-0.5517578, -0.2036133, -0.6762695, -30.6097565, -75, 29.4512196, -0.0406195
-0.5839844, -0.2133789, -0.6704102, -30.2439022, -77.8048782, 29.2682934, -0.0412909
-0.6313477, -0.2338867, -0.6748047, -29.2682934, -80.3048782, 30.5487804, -0.0419623
-0.6401367, -0.2397461, -0.6992188, -28.9024391, -81.2804871, 31.0975609, -0.0433051
-0.6386719, -0.2319336, -0.7666016, -27.7439022, -82.4390259, 32.5609779, -0.0459907
-0.621582, -0.2246094, -0.7958984, -28.1097565, -82.3170776, 33.2926826, -0.0446479
-0.5644531, -0.2143555, -0.7929688, -27.8048782, -81.4024429, 32.6829262, -0.0466621
-0.5317383, -0.2109375, -0.7558594, -27.9878063, -79.9390259, 31.6463413, -0.0473335
-0.5087891, -0.2094727, -0.6552734, -28.2926826, -76.2195129, 28.7195129, -0.0433051
-0.5214844, -0.2080078, -0.6230469, -27.9268303, -75.2439041, 27.0121956, -0.0426337
-0.5966797, -0.2080078, -0.6235352, -27.3780499, -75.5487823, 25.6097565, -0.0396124
-0.6704102, -0.2197266, -0.6860352, -26.8292694, -77.68293, 25.6097565, -0.0382696
-0.684082, -0.2260742, -0.7290039, -25.7926826, -81.7073212, 27.0121956, -0.0392767
-0.6674805, -0.2436523, -0.7983398, -24.5121956, -84.2682953, 28.780489, -0.0365911
-0.6435547, -0.2495117, -0.8066406, -24.3292694, -83.9634171, 29.1463413, -0.0352483
-0.565918, -0.2402344, -0.7636719, -23.4146347, -80.6707306, 28.4756107, -0.0359197
-0.5463867, -0.2250977, -0.7231445, -22.560976, -78.0487823, 27.3170738, -0.035584
-0.5620117, -0.1811523, -0.6772461, -21.8292694, -73.4146347, 24.2073174, -0.0359197
-0.5966797, -0.1699219, -0.6826172, -21.5853672, -73.1707306, 23.5975609, -0.0382696
-0.644043, -0.1713867, -0.7260742, -21.0975609, -76.7682953, 24.3292694, -0.0379339
-0.6494141, -0.1855469, -0.7543945, -21.1585369, -79.3292694, 25.060976, -0.0409552
-0.6352539, -0.2255859, -0.7978516, -20.8536587, -81.646347, 27.1341476, -0.0459907
-0.5991211, -0.2485352, -0.8066406, -20.4878044, -81.7682953, 27.560976, -0.0446479
-0.5869141, -0.25, -0.7978516, -19.5731716, -78.9024429, 27.5, -0.0463264
-0.5825195, -0.2094727, -0.7744141, -18.6585369, -74.5731735, 26.0365868, -0.0476692
-0.5927734, -0.1855469, -0.7636719, -18.5975609, -72.8658524, 25.060976, -0.0466621
-0.6386719, -0.1567383, -0.7373047, -20.3048782, -72.2560959, 24.0243912, -0.0486763
-0.6479492, -0.1611328, -0.7216797, -21.8292694, -73.1097565, 23.7195129, -0.0527047
-0.6665039, -0.1713867, -0.7021484, -24.0853672, -75.3658524, 23.9634151, -0.0553902
-0.6669922, -0.1855469, -0.7041016, -24.6341476, -76.0975647, 24.1463413, -0.0527047
-0.671875, -0.2080078, -0.7294922, -25.5487804, -77.0731735, 24.6341476, -0.0553902
-0.6743164, -0.2075195, -0.737793, -25.9756107, -77.0121994, 24.6951218, -0.0570687
-0.6625977, -0.1977539, -0.7211914, -26.8902454, -75.4878082, 24.0853672, -0.056733
-0.6621094, -0.206543, -0.6499023, -27.6829281, -75.0609741, 23.7195129, -0.0574044
-0.6640625, -0.2099609, -0.6245117, -28.6585369, -75.6707306, 21.7073174, -0.0594186
-0.706543, -0.2045898, -0.6376953, -28.2317085, -77.9268341, 21.8292694, -0.0607614
-0.7275391, -0.2026367, -0.6679688, -27.8658543, -78.7804871, 22.2560978, -0.0621042
-0.7250977, -0.1889648, -0.715332, -26.8292694, -79.8780518, 23.6585369, -0.0587472
-0.7099609, -0.1826172, -0.7246094, -26.2195129, -79.6341476, 24.0853672, -0.0527047
-0.6791992, -0.1816406, -0.722168, -26.0365868, -78.7195129, 23.4146347, -0.0553902
-0.6665039, -0.1870117, -0.7128906, -26.0365868, -78.4146347, 22.9878063, -0.056733
-0.6567383, -0.2060547, -0.6904297, -25.3658543, -77.9878082, 22.1951218, -0.0553902
-0.6606445, -0.2099609, -0.6845703, -25.1829281, -77.9268341, 22.0121956, -0.0557259
-0.6899414, -0.2177734, -0.6933594, -23.6585369, -77.68293, 21.7073174, -0.0527047
-0.7177734, -0.2070312, -0.7177734, -22.439024, -77.7439041, 21.9512196, -0.0627756
-0.71875, -0.1933594, -0.7304688, -21.280489, -78.1097565, 22.6829281, -0.073518
-0.7236328, -0.1635742, -0.7587891, -21.3414631, -77.5609741, 21.9512196, -0.0728466
-0.7226562, -0.1572266, -0.7553711, -22.439024, -77.3170776, 21.8902435, -0.0621042
-0.7045898, -0.1586914, -0.7075195, -24.6951218, -77.3170776, 21.4024391, -0.049012
-0.6977539, -0.1630859, -0.6953125, -25.4878063, -77.4390259, 21.4024391, -0.0399481
-0.7114258, -0.1665039, -0.7246094, -26.1585369, -77.5, 21.4634151, -0.0332341
-0.722168, -0.1645508, -0.7421875, -26.2195129, -77.68293, 21.7682934, -0.0258488
-0.7172852, -0.1625977, -0.7368164, -27.0121956, -77.6219559, 22.5, -0.0231632
-0.7089844, -0.1640625, -0.7055664, -27.560976, -76.8292694, 22.3780499, -0.0228275
-0.7084961, -0.1713867, -0.6396484, -27.9878063, -74.5731735, 21.6463413, -0.0271916
-0.7314453, -0.1635742, -0.6420898, -27.9878063, -73.5975647, 21.0365868, -0.0234989
-0.7470703, -0.1611328, -0.6640625, -28.2317085, -73.3536606, 20.4268303, -0.0238346
-0.769043, -0.1567383, -0.6923828, -29.6951218, -74.0243912, 20.1219521, -0.0265202
-0.7602539, -0.1640625, -0.6821289, -30.6097565, -74.5731735, 20.1219521, -0.03122
-0.7426758, -0.1865234, -0.6508789, -31.8292694, -75.1219559, 19.2073174, -0.0339055
-0.7436523, -0.1923828, -0.6479492, -31.7073174, -74.8780518, 18.8414631, -0.0412909
-0.753418, -0.1889648, -0.6713867, -30.9146347, -74.9390259, 19.0853672, -0.0439765
-0.7558594, -0.1806641, -0.684082, -30.3658543, -74.6341476, 19.6341476, -0.0439765
-0.7480469, -0.1557617, -0.7001953, -29.1463413, -73.3536606, 19.939024, -0.0493477
-0.7392578, -0.1499023, -0.7041016, -28.5365868, -72.9268341, 20.1219521, -0.0486763
-0.7172852, -0.1567383, -0.6870117, -27.3170738, -72.3170776, 20.2439022, -0.0500191
-0.7011719, -0.1650391, -0.6450195, -26.5853672, -72.0121994, 20.4268303, -0.0439765
-0.7075195, -0.1538086, -0.6225586, -25.1829281, -69.9390259, 19.5121956, -0.0412909
-0.7431641, -0.1416016, -0.5917969, -24.7560978, -67.8048782, 17.6829281, -0.0412909
-0.7724609, -0.1464844, -0.5820312, -25.060976, -68.4146347, 17.0121956, -0.0399481
-0.8178711, -0.1757812, -0.6035156, -25.3658543, -72.1341476, 17.3170738, -0.0406195
-0.8188477, -0.1855469, -0.6235352, -25.6097565, -74.1463394, 17.9878044, -0.0486763
-0.7895508, -0.1821289, -0.6650391, -25.060976, -75.5487823, 18.4756107, -0.0433051
-0.7661133, -0.1713867, -0.6762695, -24.3902435, -74.6951218, 17.9878044, -0.0446479
-0.7265625, -0.1591797, -0.6494141, -24.3292694, -71.8292694, 16.3414631, -0.0486763
-0.7163086, -0.1645508, -0.6157227, -24.9390259, -71.2195129, 15.6707325, -0.0463264
-0.7236328, -0.1860352, -0.5537109, -24.8780499, -72.6219559, 14.8170738, -0.0459907
-0.7470703, -0.1875, -0.53125, -24.0853672, -73.7195129, 14.6341467, -0.0520333
-0.7646484, -0.175293, -0.5375977, -22.1951218, -74.5121994, 14.6951227, -0.063447
-0.7973633, -0.1298828, -0.5800781, -22.3780499, -74.1463394, 14.3902445, -0.0785534
-0.7973633, -0.1069336, -0.597168, -23.7195129, -74.3902435, 14.1463413, -0.0782177
-0.7822266, -0.090332, -0.5874023, -27.8658543, -75.4268341, 14.1463413, -0.0647898
-0.7612305, -0.0966797, -0.5683594, -29.6341476, -75.9756088, 13.9024391, -0.0500191
-0.7275391, -0.1220703, -0.5649414, -31.8292694, -75.6097565, 13.3536587, -0.0365911
-0.7216797, -0.1303711, -0.5771484, -32.0731697, -74.8780518, 13.4756098, -0.0305486
-0.71875, -0.1352539, -0.5952148, -32.9878044, -72.8048782, 13.3536587, -0.0248417
-0.7192383, -0.1298828, -0.5869141, -33.5365868, -71.8902435, 13.1097565, -0.0251774
-0.7211914, -0.1337891, -0.5498047, -34.3292694, -69.8170776, 12.1951218, -0.0339055
-0.7421875, -0.1411133, -0.5258789, -34.5731697, -68.7195129, 11.8292685, -0.0433051
-0.7553711, -0.1411133, -0.5249023, -35.4878044, -68.4146347, 11.0975609, -0.0520333
-0.7695312, -0.1308594, -0.5302734, -37.4390259, -68.4146347, 11.341464, -0.0647898
-0.7709961, -0.1254883, -0.5375977, -38.0487823, -68.7804871, 11.280488, -0.0755322
-0.7675781, -0.1113281, -0.5488281, -39.2073174, -68.9634171, 10.7317076, -0.0835889
-0.7641602, -0.1054688, -0.5444336, -39.8170738, -68.6585388, 10.7317076, -0.0728466
-0.7412109, -0.1152344, -0.5292969, -40.7926826, -67.7439041, 10.7926836, -0.0580758
-0.7392578, -0.1220703, -0.5258789, -40.9146347, -67.4390259, 10.6097565, -0.0352483
-0.7358398, -0.1303711, -0.527832, -41.0975609, -66.8902435, 10.3658543, -0.014435
-0.7329102, -0.1420898, -0.5292969, -40.9146347, -66.6463394, 10.6097565, -0.0006714
-0.7319336, -0.1547852, -0.5175781, -40.4268303, -65.7926865, 10.9146347, 0.0016785
-0.7373047, -0.1538086, -0.4882812, -39.8780479, -64.8780518, 10.9146347, -0.0057069
-0.7490234, -0.1508789, -0.4731445, -37.9878044, -62.6219521, 10.1829271, -0.0083925
-0.769043, -0.1386719, -0.449707, -36.8292694, -61.0365868, 9.8780489, -0.014435
-0.7802734, -0.1347656, -0.4370117, -36.0975609, -60.6707344, 9.6341467, -0.0218204
-0.7919922, -0.1269531, -0.4150391, -34.6951218, -60.3658562, 9.5121956, -0.0365911
-0.7978516, -0.1240234, -0.3979492, -34.3292694, -60.2439041, 9.4512196, -0.0574044
-0.8027344, -0.1352539, -0.3754883, -32.8658562, -60.5487823, 9.1463413, -0.0688182
-0.8076172, -0.1499023, -0.3808594, -32.0731697, -61.0365868, 9.2682924, -0.0627756
-0.8037109, -0.1723633, -0.4091797, -29.2073174, -62.4390259, 10.3048782, -0.0614328
-0.7832031, -0.1767578, -0.4047852, -26.9512196, -62.7439041, 10.2439022, -0.0574044
-0.7744141, -0.1811523, -0.3930664, -23.0487804, -60.8536606, 9.6951218, -0.0486763
-0.7822266, -0.1567383, -0.3823242, -21.5243912, -59.4512215, 8.9024391, -0.0412909
-0.7993164, -0.1274414, -0.3896484, -21.7073174, -56.4024391, 7.4390244, -0.0342412
-0.8398438, -0.0742188, -0.3930664, -24.3292694, -55.4878044, 6.280488, -0.0325628
-0.84375, -0.0639648, -0.3789062, -25.6097565, -55.8536606, 5.609756, -0.0265202
-0.8354492, -0.0981445, -0.3417969, -26.8292694, -58.7804909, 6.2195125, -0.0251774
-0.8232422, -0.1308594, -0.3310547, -25.7926826, -59.8170738, 7.0731707, -0.0218204
-0.7954102, -0.1777344, -0.3452148, -21.7682934, -61.2195129, 9.2073174, -0.0201419
-0.7807617, -0.1879883, -0.3554688, -18.9024391, -60.18293, 9.7560978, -0.0224918
-0.7612305, -0.1391602, -0.3886719, -16.4024391, -55.0609779, 8.841464, -0.0251774
-0.7998047, -0.0654297, -0.4179688, -17.1341476, -52.3780518, 7.8658538, -0.03122
-0.8208008, -0.0517578, -0.4101562, -20.7926826, -50.3048782, 6.8292685, -0.0379339
-0.8173828, -0.0766602, -0.359375, -22.7439022, -51.2804909, 6.7073174, -0.0392767
-0.8046875, -0.0991211, -0.3295898, -24.3902435, -53.5975609, 7.2560978, -0.0419623
-0.7817383, -0.1230469, -0.3154297, -23.5365868, -52.3780518, 7.4390244, -0.0399481
-0.7900391, -0.1142578, -0.3291016, -23.0487804, -50.7317085, 7.6829271, -0.0426337
-0.8041992, -0.090332, -0.3481445, -22.8658543, -47.2560997, 7.2560978, -0.0419623
-0.8120117, -0.0756836, -0.3588867, -24.1463413, -46.4634171, 6.9512196, -0.0406195
-0.8198242, -0.065918, -0.3496094, -26.6463413, -45.6097565, 6.890244, -0.0352483
-0.8164062, -0.0751953, -0.3359375, -27.4390259, -45.4878044, 6.5243902, -0.0379339
-0.8007812, -0.1103516, -0.3007812, -27.3170738, -44.5121956, 6.4634147, -0.0406195
-0.7949219, -0.1386719, -0.2729492, -26.7073174, -43.5365868, 6.7073174, -0.0399481
-0.7944336, -0.1430664, -0.2734375, -24.2073174, -41.4634171, 7.0731707, -0.0379339
-0.7978516, -0.1264648, -0.2749023, -22.8048782, -40, 6.6463418, -0.0379339
-0.7973633, -0.1142578, -0.2739258, -21.5853672, -37.1951218, 5.5487804, -0.0419623
-0.8032227, -0.1010742, -0.2646484, -21.9512196, -35.7317085, 5, -0.0426337
-0.8037109, -0.1000977, -0.2646484, -21.9512196, -35.3658562, 4.8780489, -0.0446479
-0.7978516, -0.1083984, -0.2836914, -21.5243912, -34.0243912, 4.390244, -0.0459907
-0.7866211, -0.1069336, -0.2939453, -21.5243912, -32.8658562, 4.2073174, -0.0436408
-0.7729492, -0.0957031, -0.3242188, -21.8902435, -29.6951218, 2.8658538, -0.0412909
-0.7714844, -0.0859375, -0.340332, -22.9268303, -27.6219521, 2.5, -0.0480049
-0.7739258, -0.0839844, -0.3369141, -24.4512196, -24.8780499, 1.6463414, -0.0473335
-0.7592773, -0.1064453, -0.3007812, -24.7560978, -24.2682934, 1.4634147, -0.0453193
-0.7475586, -0.1206055, -0.2880859, -23.0487804, -22.6219521, 1.097561, -0.0419623
-0.7412109, -0.1376953, -0.2929688, -22.0121956, -21.0975609, 0.9146342, -0.0392767
-0.746582, -0.1303711, -0.3037109, -20.3048782, -17.1341476, 0.7926829, -0.0359197
-0.769043, -0.1210938, -0.2910156, -20.1829281, -13.1097565, -0.0609756, -0.0345769
-0.7739258, -0.1230469, -0.2739258, -20, -12.0731707, -0.6097561, -0.0332341
-0.7714844, -0.1176758, -0.246582, -19.0853672, -10.1829271, -1.1585366, -0.0318914
-0.7705078, -0.1152344, -0.2578125, -18.4146347, -9.4512196, -1.2195122, -0.0352483
-0.7597656, -0.1044922, -0.2954102, -18.6585369, -7.0121951, -1.1585366, -0.0386053
-0.7529297, -0.1083984, -0.3071289, -18.6585369, -5.7317076, -1.2804878, -0.0399481
-0.7338867, -0.1176758, -0.3095703, -18.2317085, -3.1707318, -1.5243902, -0.0392767
-0.7124023, -0.1123047, -0.2988281, -17.8658543, -1.402439, -1.8902439, -0.0318914
-0.7192383, -0.0986328, -0.2978516, -16.8902435, 3.6585367, -2.804878, -0.0285344
-0.7392578, -0.0717773, -0.2973633, -17.0731716, 5.609756, -3.2926829, -0.0288701
-0.7509766, -0.065918, -0.2944336, -18.4756107, 9.2073174, -4.1463413, -0.0298772
-0.7578125, -0.0927734, -0.2929688, -19.6341476, 9.0853662, -4.2682929, -0.0298772
-0.7490234, -0.1137695, -0.2998047, -19.4512196, 9.5121956, -3.8414636, -0.0292058
-0.7314453, -0.1357422, -0.3051758, -18.4756107, 12.0121956, -4.0853658, -0.0285344
-0.7265625, -0.1357422, -0.3007812, -18.2926826, 14.5121956, -4.0243902, -0.027863
-0.7265625, -0.1225586, -0.2700195, -17.2560978, 19.3292694, -5.3048782, -0.0251774
-0.734375, -0.112793, -0.2480469, -17.1341476, 21.0975609, -5.8536587, -0.03122
-0.7529297, -0.1069336, -0.2290039, -16.4024391, 22.1341476, -6.5853658, -0.0379339
-0.7651367, -0.1166992, -0.2553711, -15.9756098, 22.439024, -6.5853658, -0.0392767
-0.7626953, -0.1245117, -0.2773438, -15.060976, 22.7439022, -6.280488, -0.0516976
-0.7446289, -0.1318359, -0.3081055, -14.3902445, 24.6341476, -5.4878049, -0.0708324
-0.7294922, -0.1303711, -0.3085938, -13.2926836, 26.1585369, -5.5487804, -0.076875
-0.7109375, -0.1005859, -0.3110352, -12.1341467, 30.6707325, -6.4634147, -0.0674754
-0.7119141, -0.090332, -0.315918, -12.0731707, 32.9878044, -7.2560978, -0.0547189
-0.7280273, -0.0952148, -0.3256836, -13.6585369, 36.0365868, -7.6829271, -0.0433051
-0.7314453, -0.1079102, -0.3291016, -13.9024391, 36.2195129, -7.3170733, -0.0325628
-0.7167969, -0.1386719, -0.3383789, -13.1097565, 36.6463432, -6.6463418, -0.0352483
-0.7075195, -0.1411133, -0.3393555, -11.7073174, 38.2317085, -6.3414636, -0.0292058
-0.684082, -0.125, -0.3398438, -8.6585369, 43.4756126, -6.7682929, -0.0298772
-0.7001953, -0.1044922, -0.3173828, -7.9878049, 46.4024391, -7.4390244, -0.0352483
-0.7119141, -0.1025391, -0.3022461, -7.8048782, 50.2439041, -8.4146347, -0.0493477
-0.7324219, -0.1083984, -0.2978516, -8.4756098, 51.341465, -8.9024391, -0.0540475
-0.7329102, -0.1069336, -0.3134766, -9.0243902, 51.8902435, -9.0243902, -0.0533761
-0.7333984, -0.0883789, -0.3564453, -10.6707315, 53.5975609, -9.4512196, -0.0553902
-0.7290039, -0.0776367, -0.3681641, -11.7073174, 55, -9.6341467, -0.0553902
-0.7197266, -0.0786133, -0.3540039, -12.6219511, 58.1097565, -9.8170738, -0.0543832
-0.7070312, -0.0966797, -0.3427734, -12.3170738, 58.9634171, -9.6951218, -0.0553902
-0.690918, -0.1303711, -0.3325195, -11.0365858, 60.9756126, -8.9024391, -0.0513619
-0.6777344, -0.140625, -0.3339844, -9.8780489, 62.2560997, -9.0243902, -0.0513619
-0.6801758, -0.1425781, -0.3149414, -8.6585369, 65.8536606, -10.1219511, -0.0540475
-0.7011719, -0.1308594, -0.2709961, -8.5975609, 67.9268341, -11.1585369, -0.0533761
-0.7167969, -0.128418, -0.2543945, -8.3536587, 69.8780518, -12.6829271, -0.056733
-0.7431641, -0.137207, -0.2319336, -8.3536587, 69.5121994, -13.7195129, -0.056733
-0.7485352, -0.1376953, -0.2207031, -8.2926826, 68.9024429, -14.6341467, -0.0647898
-0.746582, -0.1420898, -0.2041016, -7.1341467, 68.4756088, -16.4024391, -0.063447
-0.737793, -0.1479492, -0.2026367, -6.7682929, 68.2317123, -17.5, -0.063447
-0.7329102, -0.1469727, -0.2441406, -6.4024391, 67.9268341, -19.5121956, -0.0570687
-0.7319336, -0.1420898, -0.277832, -6.890244, 68.5365906, -20, -0.0513619
-0.7158203, -0.1015625, -0.3139648, -8.780488, 69.7560959, -20.2439022, -0.0513619
-0.703125, -0.0737305, -0.3051758, -10.1829271, 71.0365906, -21.0975609, -0.0533761
-0.6928711, -0.0239258, -0.2661133, -13.0487804, 74.2073212, -24.6951218, -0.0486763
-0.7197266, -0.0239258, -0.277832, -15.3048782, 75.18293, -25.9756107, -0.0513619
-0.7299805, -0.0375977, -0.3071289, -19.2073174, 73.4756088, -25.1829281, -0.0651255
-0.7255859, -0.0546875, -0.3911133, -21.3414631, 70.8536606, -21.7073174, -0.073518
-0.7138672, -0.0576172, -0.4301758, -21.7682934, 70.4268341, -19.6341476, -0.0708324
-0.6606445, -0.0532227, -0.487793, -19.6341476, 72.68293, -16.0365849, -0.063447
-0.6235352, -0.0517578, -0.5053711, -18.1097565, 75.0609741, -14.9390249, -0.0540475
-0.5820312, -0.0463867, -0.5224609, -16.0975609, 82.3780518, -13.4146347, -0.0419623
-0.5703125, -0.0498047, -0.5161133, -15.6097565, 86.1585388, -13.0487804, -0.0339055
-0.5771484, -0.0839844, -0.4663086, -16.0975609, 91.4634171, -13.1097565, -0.0318914
-0.5883789, -0.1079102, -0.4301758, -16.4634151, 93.2926865, -12.8658543, -0.0251774
-0.6201172, -0.1459961, -0.394043, -15.4878054, 94.5121994, -12.7439032, -0.0271916
-0.6547852, -0.1611328, -0.4165039, -14.5731707, 94.5121994, -12.7439032, -0.0379339
-0.6655273, -0.1552734, -0.4326172, -12.560976, 95.3658524, -12.2560978, -0.0466621
-0.6694336, -0.1401367, -0.4604492, -11.1585369, 97.3780518, -11.9512196, -0.0513619
-0.6611328, -0.1274414, -0.4575195, -11.5243902, 98.0487823, -11.9512196, -0.0614328
-0.6376953, -0.1069336, -0.4257812, -11.7682934, 100.2439041, -13.4756098, -0.0688182
-0.6240234, -0.1083984, -0.3920898, -12.1951218, 101.646347, -14.8170738, -0.0788891
-0.6289062, -0.1411133, -0.3330078, -11.5853662, 101.9512253, -17.0731716, -0.0889601
-0.6347656, -0.1713867, -0.3212891, -10.3658543, 100.8536606, -17.560976, -0.0943313
-0.6396484, -0.2163086, -0.3320312, -7.1951222, 97.6219559, -17.6829281, -0.0973526
-0.6333008, -0.2260742, -0.3452148, -4.9390244, 96.5853653, -17.8048782, -0.0869459
-0.6147461, -0.2280273, -0.3828125, -1.6463414, 96.5853653, -18.9024391, -0.0637827
-0.6015625, -0.1943359, -0.4233398, -0.1829268, 97.3780518, -19.8780499, -0.0386053
-0.5966797, -0.1733398, -0.4404297, 0.9146342, 99.5731735, -23.2317085, -0.011078
-0.5913086, -0.1337891, -0.4570312, -0.8536586, 100.8536606, -26.5853672, 0.0063783
-0.5854492, -0.1176758, -0.4560547, -2.7439024, 100.6707306, -28.2926826, 0.0127565
-0.5800781, -0.0908203, -0.4287109, -7.3170733, 100, -32.0121956, 0.0151064
-0.574707, -0.0888672, -0.3999023, -9.8780489, 99.3292694, -34.0853653, 0.0077211
-0.578125, -0.1132812, -0.3535156, -13.6585369, 97.3780518, -37.2560997, -0.0157778
-0.5893555, -0.1240234, -0.3520508, -14.5731707, 95.6097565, -37.9878044, -0.0372625
-0.605957, -0.1376953, -0.4379883, -16.2195129, 92.1951218, -37.5609779, -0.0446479
-0.612793, -0.128418, -0.515625, -17.3170738, 90.7926865, -36.2195129, -0.0439765
-0.6118164, -0.0932617, -0.675293, -19.939024, 90.9756088, -31.5853672, -0.0406195
-0.5600586, -0.0620117, -0.7714844, -20.4878044, 91.4024429, -28.5975609, -0.0386053
-0.5185547, -0.0458984, -0.7885742, -18.9634151, 94.8170776, -23.1707325, -0.0352483
-0.4384766, -0.03125, -0.7568359, -13.9024391, 103.1707306, -19.3292694, -0.0285344
-0.4067383, -0.0239258, -0.7270508, -11.4024391, 108.6585388, -17.8658543, -0.027863
-0.3881836, -0.0380859, -0.7036133, -8.4756098, 119.8170776, -16.7073174, -0.0285344
-0.3994141, -0.0478516, -0.7216797, -8.6585369, 124.2073212, -15.6097565, -0.027863
-0.4428711, -0.097168, -0.7939453, -12.1951218, 127.3780518, -13.3536587, -0.0271916
-0.4614258, -0.1245117, -0.8222656, -14.1463413, 126.646347, -11.8902445, -0.0332341
-0.4589844, -0.1757812, -0.8139648, -17.5, 124.5731735, -10.1829271, -0.035584
-0.4472656, -0.203125, -0.7924805, -17.1951218, 124.4512253, -10.1219511, -0.0328985
-0.4174805, -0.2192383, -0.762207, -15.060976, 127.9878082, -10.5487804, -0.0365911
-0.4248047, -0.2084961, -0.7651367, -13.6585369, 131.2804871, -11.4024391, -0.0359197
-0.4321289, -0.2011719, -0.7641602, -12.3780489, 137.6829376, -13.1707315, -0.0365911
-0.4418945, -0.1899414, -0.7172852, -11.8292685, 140, -14.5731707, -0.0392767
-0.4467773, -0.1948242, -0.6806641, -11.7073174, 139.3902435, -15.4878054, -0.0372625
-0.4467773, -0.2006836, -0.6396484, -11.4634151, 138.0487823, -18.2317085, -0.0379339
-0.4516602, -0.1992188, -0.6416016, -11.6463413, 137.86586, -19.4512196, -0.0446479
-0.4624023, -0.1879883, -0.6782227, -14.2682934, 138.0487823, -22.0731716, -0.0473335
-0.4628906, -0.1796875, -0.6938477, -16.280489, 138.1097565, -23.4756107, -0.0486763
-0.4541016, -0.1865234, -0.6938477, -20.7926826, 137.4390259, -27.1951218, -0.0426337
-0.4418945, -0.1987305, -0.7001953, -23.1707325, 136.2195129, -29.3902454, -0.0298772
-0.4155273, -0.2270508, -0.762207, -26.9512196, 132.1951294, -32.2560997, -0.0234989
-0.3896484, -0.2436523, -0.8588867, -28.3536587, 130.4268341, -32.9878044, -0.0184634
-0.3681641, -0.2402344, -0.8857422, -31.0975609, 128.5975647, -33.5975609, -0.0151064
-0.3232422, -0.2143555, -0.8691406, -31.6463413, 129.6951294, -35.3658562, -0.0057069
-0.3056641, -0.2124023, -0.8339844, -30.8536587, 130.4878082, -36.6463432, -0.0010071
-0.2954102, -0.2045898, -0.8007812, -26.8902454, 132.0121918, -38.7804871, 0.0010071
-0.3125, -0.2055664, -0.8295898, -25.4878063, 131.9512177, -38.2926826, 0.0036927
-0.3745117, -0.1879883, -0.8959961, -23.7195129, 131.4634247, -34.6341476, -0.0003357
-0.390625, -0.1782227, -0.9082031, -23.1707325, 131.1585388, -32.1341476, -0.0010071
-0.3984375, -0.1533203, -0.8691406, -21.0365868, 131.3414612, -29.2682934, -0.0043641
-0.4008789, -0.1420898, -0.8369141, -20.060976, 132.5, -29.0853672, -0.0097353
-0.4135742, -0.137207, -0.7866211, -17.8048782, 135.7317047, -29.3292694, -0.0167849
-0.4399414, -0.1479492, -0.8129883, -17.6219521, 136.8292694, -28.9634151, -0.024506
-0.4482422, -0.1606445, -0.8398438, -17.8658543, 136.1585388, -27.1341476, -0.0258488
-0.4365234, -0.2163086, -0.9228516, -15.3048782, 130.4878082, -23.5365868, -0.0298772
-0.4111328, -0.2436523, -0.9584961, -12.5, 127.8048782, -21.4024391, -0.0292058
-0.3222656, -0.2802734, -1.0268555, -6.0975609, 126.3414688, -16.5853653, -0.0463264
-0.2700195, -0.2841797, -1.0600586, -3.3536587, 129.2073212, -15.4878054, -0.066804
-0.1860352, -0.234375, -1.1123047, -1.6463414, 141.1585388, -15.5487804, -0.076875
-0.1635742, -0.1982422, -1.1181641, -2.195122, 148.7804871, -16.8292694, -0.0741894
-0.1489258, -0.1303711, -1.0761719, -7.0121951, 160.7926941, -21.3414631, -0.0688182
-0.1582031, -0.1103516, -1.0371094, -9.8170738, 163.9024353, -23.8414631, -0.0688182
-0.1962891, -0.1005859, -0.9853516, -16.4024391, 163.4756165, -26.5853672, -0.0674754
-0.2509766, -0.1157227, -0.9755859, -19.5731716, 161.7682953, -26.6463413, -0.063447
-0.2705078, -0.1123047, -0.9672852, -25.1829281, 158.0487823, -24.9390259, -0.0647898
-0.2895508, -0.0942383, -0.9091797, -29.5731716, 158.1097565, -23.9024391, -0.0674754
-0.2988281, -0.090332, -0.8676758, -31.4634151, 159.2682953, -24.4512196, -0.06009
-0.3188477, -0.1083984, -0.8081055, -34.5731697, 160.9756165, -26.0975609, -0.063447
-0.3354492, -0.1323242, -0.7944336, -36.341465, 160.5487823, -26.5853672, -0.0755322
-0.3461914, -0.1918945, -0.7768555, -39.0853653, 156.1585388, -26.2195129, -0.0809033
-0.3359375, -0.2270508, -0.7451172, -39.5731735, 152.7439117, -26.3414631, -0.0782177
-0.2910156, -0.3081055, -0.6479492, -37.2560997, 146.4634247, -27.4390259, -0.0718395
-0.2675781, -0.3598633, -0.5917969, -34.3292694, 144.9390259, -29.1463413, -0.0641184
-0.2739258, -0.3666992, -0.6147461, -26.5243912, 145.1829376, -32.1341476, -0.056733
-0.3115234, -0.3325195, -0.734375, -22.1341476, 145.9756165, -33.5975609, -0.0527047
-0.328125, -0.2973633, -0.8095703, -14.6951227, 147.5609741, -34.6341476, -0.0486763
-0.3193359, -0.2392578, -0.9267578, -10.6097565, 145.7926788, -34.6341476, -0.0433051
-0.2915039, -0.2148438, -0.9536133, -9.0853662, 144.146347, -34.3292694, -0.0419623
-0.2138672, -0.2084961, -0.9667969, -7.3780489, 141.4634247, -34.5121956, -0.0406195
-0.175293, -0.2094727, -0.9716797, -6.4634147, 140.6707306, -34.4512215, -0.0372625
-0.1347656, -0.2109375, -1.0107422, -3.6585367, 142.1951294, -33.841465, -0.03122
-0.1293945, -0.2050781, -1.0322266, -1.9512196, 143.9024353, -33.2926826, -0.0198062
-0.1376953, -0.1757812, -1.0458984, 3.1097562, 149.5121918, -31.5853672, -0.011078
-0.1523438, -0.1450195, -1.0258789, 5.2439027, 152.2561035, -30.5487804, -0.010071
-0.1601562, -0.1279297, -1.0214844, 8.5975609, 157.2561035, -29.1463413, -0.0171206
-0.1933594, -0.0786133, -1.0507812, 8.5975609, 159.7561035, -28.4146347, -0.021149
-0.2216797, -0.0507812, -1.0854492, 4.4512196, 163.6585388, -27.6829281, -0.0231632
-0.2558594, -0.0117188, -1.1459961, -4.5731707, 165.1219482, -27.2560978, -0.0325628
-0.253418, -0.0087891, -1.1464844, -10.060976, 164.5121918, -26.5243912, -0.0439765
-0.2109375, -0.0439453, -1.0595703, -20.3048782, 162.5609741, -25.5487804, -0.0513619
-0.1767578, -0.0712891, -0.9882812, -24.0243912, 161.8292694, -24.8780499, -0.0574044
-0.121582, -0.1240234, -0.8408203, -27.0121956, 162.2561035, -24.9390259, -0.0574044
-0.1098633, -0.1484375, -0.7963867, -26.8902454, 163.5365906, -25.3658543, -0.0607614
-0.137207, -0.1816406, -0.8144531, -25.3048782, 166.0975647, -25.8536587, -0.0647898
-0.1889648, -0.2158203, -0.9414062, -24.5731716, 166.5243988, -24.8780499, -0.0661326
-0.1967773, -0.2265625, -0.9960938, -27.0731716, 164.6951294, -22.6219521, -0.0580758
-0.1567383, -0.2475586, -0.984375, -28.9024391, 163.1097565, -21.280489, -0.0520333
-0.1088867, -0.2509766, -0.9257812, -32.5609779, 161.2195129, -21.1585369, -0.0540475
-0.046875, -0.2543945, -0.8095703, -32.9878044, 162.8048859, -24.5731716, -0.0540475
-0.0444336, -0.2456055, -0.7958984, -31.8902454, 164.9390259, -26.280489, -0.056733
-0.0932617, -0.2080078, -0.8725586, -30.2439022, 168.8414612, -28.3536587, -0.0584115
-0.1245117, -0.1801758, -0.9501953, -30.6707325, 169.2073212, -28.1707325, -0.0614328
-0.1435547, -0.1245117, -1.1108398, -34.0853653, 166.7682953, -25.9146347, -0.0654612
-0.1318359, -0.1064453, -1.175293, -36.7682953, 164.2682953, -24.0243912, -0.0788891
-0.0620117, -0.1005859, -1.2436523, -41.8902435, 158.5365906, -21.0365868, -0.0876173
0.0439453, -0.1391602, -1.2026367, -43.6585388, 156.9512177, -19.5121956, -0.0802319
0.0966797, -0.1625977, -1.1635742, -44.0243912, 158.2926941, -16.9512196, -0.0748608
0.1611328, -0.1831055, -1.0708008, -42.1951218, 161.5853729, -16.2195129, -0.0661326
0.1630859, -0.1860352, -1.0322266, -36.0975609, 172.0731812, -16.6463413, -0.0557259
0.0966797, -0.1782227, -0.972168, -31.1585369, 182.7439117, -18.5975609, -0.0453193
0.0463867, -0.1767578, -0.9599609, -29.2682934, 185.4878082, -19.3292694, -0.0392767
-0.0625, -0.168457, -0.9624023, -29.5731716, 184.8170776, -19.6951218, -0.0372625
-0.1040039, -0.1733398, -0.9746094, -31.2195129, 181.5243988, -19.4512196, -0.03122
-0.1318359, -0.1870117, -0.9785156, -35.5487823, 171.8292694, -18.3536587, -0.0298772
-0.1113281, -0.1967773, -0.956543, -37.4390259, 167.3170776, -17.5, -0.024506
-0.0336914, -0.2250977, -0.8808594, -38.4146347, 162.2561035, -17.9878044, -0.0164492
0.0522461, -0.2509766, -0.871582, -37.0731697, 161.7682953, -18.2317085, -0.0124208
0.0712891, -0.2587891, -0.9321289, -32.7439041, 162.3170776, -19.0243912, -0.0063783
0.0820312, -0.2626953, -1.1386719, -30.6707325, 162.3170776, -18.9634151, -0.0030213
0.1020508, -0.2631836, -1.2353516, -28.2926826, 160.7317047, -16.4634151, -0.0023499
0.1958008, -0.2568359, -1.3129883, -29.1463413, 158.5975647, -13.4756098, -0.0070497
0.2558594, -0.2475586, -1.2954102, -29.5121956, 159.0243988, -12.8048782, -0.017792
0.3642578, -0.2060547, -1.2070312, -29.1463413, 166.9512177, -14.3902445, -0.0325628
0.3818359, -0.1679688, -1.1748047, -28.4146347, 173.6585388, -16.0975609, -0.0459907
0.3256836, -0.0722656, -1.1806641, -27.6219521, 187.9878082, -20, -0.0513619
0.2724609, -0.0249023, -1.1992188, -28.9634151, 192.86586, -21.0365868, -0.0513619
0.1713867, 0.0229492, -1.2216797, -35.8536606, 192.9878082, -21.3414631, -0.0305486
0.1235352, 0.0043945, -1.1806641, -41.4024391, 188.8414612, -20.3048782, -0.0070497
0.1225586, -0.0322266, -1.1611328, -52.3170738, 176.2804871, -17.9878044, 0.0070497
0.1455078, -0.1137695, -1.1787109, -55.9146347, 170.0609741, -16.4634151, 0.0104067
0.1674805, -0.1508789, -1.2182617, -60.3048782, 161.5243988, -12.6829271, -0.0043641
0.2421875, -0.2055664, -1.2763672, -60.0609779, 160.1829376, -7.8658538, -0.0231632
0.2988281, -0.2270508, -1.2695312, -58.3536606, 161.646347, -6.0975609, -0.0365911
0.4174805, -0.2504883, -1.1699219, -52.6219521, 168.0487823, -5.7317076, -0.0476692
0.4506836, -0.2626953, -1.0942383, -49.0243912, 172.5609741, -7.1951222, -0.0543832
0.4399414, -0.2661133, -0.9750977, -39.9390259, 182.5609741, -11.4024391, -0.0570687
0.3945312, -0.25, -0.9775391, -35.1829262, 185.6707306, -13.2317076, -0.0594186
0.2524414, -0.2270508, -1.0478516, -29.6951218, 183.2926941, -14.7560978, -0.0587472
0.1689453, -0.21875, -1.1044922, -28.6585369, 178.4756165, -14.3292685, -0.0580758
0.1635742, -0.2265625, -1.121582, -27.2560978, 164.8780518, -13.1097565, -0.056733
0.2358398, -0.2475586, -1.1518555, -25.2439022, 153.9634247, -10.7926836, -0.0597543
0.2983398, -0.2573242, -1.1650391, -23.8414631, 150.9756165, -10.4268293, -0.0607614
0.4189453, -0.2617188, -1.1835938, -21.0365868, 151.8902435, -10.1829271, -0.06009
0.4628906, -0.2529297, -1.1953125, -19.3292694, 154.6341553, -10.8536587, -0.0533761
0.5112305, -0.203125, -1.1875, -15.9756098, 163.0487823, -13.6585369, -0.0553902
0.5141602, -0.1767578, -1.175293, -14.6341467, 166.7682953, -14.8780489, -0.0661326
0.4863281, -0.1352539, -1.1181641, -13.2926836, 171.8292694, -17.0731716, -0.0755322
0.4682617, -0.1162109, -1.0629883, -13.0487804, 172.5609741, -17.7439022, -0.0688182
0.425293, -0.0952148, -0.9750977, -13.0487804, 171.7073212, -18.5975609, -0.0540475
0.3603516, -0.065918, -1.0175781, -13.6585369, 169.8170776, -18.9634151, -0.0433051
0.3276367, -0.0454102, -1.1015625, -16.1585369, 164.3292694, -18.7195129, -0.0305486
0.3110352, -0.0068359, -1.3037109, -23.780489, 157.5, -15.8536587, -0.0292058
0.3447266, 0.0014648, -1.3681641, -28.9024391, 153.7804871, -14.3902445, -0.0285344
0.4887695, -0.0209961, -1.34375, -39.2682953, 149.5731812, -12.560976, -0.0285344
0.5654297, -0.0488281, -1.2719727, -42.5609779, 149.9390259, -12.8658543, -0.0352483
0.6508789, -0.1079102, -1.1088867, -44.7560997, 155.1829376, -15.4878054, -0.0433051
0.6430664, -0.1347656, -1.0541992, -43.7804871, 159.2073212, -17.0121956, -0.0500191
0.5258789, -0.1459961, -1.0390625, -38.5365868, 165.8536682, -18.5365849, -0.0560616
0.4516602, -0.137207, -1.0751953, -36.5243912, 167.7439117, -18.1097565, -0.0624399
0.3447266, -0.1040039, -1.1704102, -35.6707344, 165.6707306, -15.9756098, -0.070161
0.3515625, -0.1030273, -1.246582, -37.3780479, 162.3780518, -14.5731707, -0.0684825
0.3886719, -0.1176758, -1.2626953, -44.0853653, 153.1097565, -12.7439032, -0.0718395
0.4936523, -0.1660156, -1.2573242, -50.4878044, 146.0975647, -12.5, -0.0715038
0.5410156, -0.1835938, -1.25, -52.0731735, 145.5487823, -12.3780489, -0.0661326
0.5869141, -0.1704102, -1.2358398, -50.2439041, 149.9390259, -11.7073174, -0.0621042
0.590332, -0.137207, -1.2319336, -47.3780518, 155.1219482, -10.9146347, -0.0607614
0.5800781, -0.0537109, -1.1967773, -40.5487823, 165.4878082, -10.3048782, -0.0627756
0.5639648, -0.0234375, -1.1733398, -38.5365868, 169.2073212, -10.6097565, -0.0627756
0.503418, -0.0180664, -1.1123047, -38.2317085, 170.1219482, -11.6463413, -0.063447
0.4692383, -0.0405273, -1.0927734, -40.1829262, 167.1951294, -10.9146347, -0.0647898
0.4047852, -0.121582, -1.0854492, -43.9634171, 157.3170776, -8.1097565, -0.0621042
0.4086914, -0.1982422, -1.0878906, -44.6951218, 151.7073212, -6.4024391, -0.0584115
0.4389648, -0.2285156, -1.0771484, -42.6219521, 143.1707306, -4.0243902, -0.0661326
0.53125, -0.2602539, -1.0546875, -37.3170738, 141.4634247, -3.2317073, -0.0929885
0.5708008, -0.2573242, -1.0449219, -34.6951218, 142.86586, -3.7195122, -0.0916457
0.6040039, -0.2197266, -1.0751953, -30.4878063, 147.6829376, -5.0609756, -0.081239
0.6069336, -0.1933594, -1.1108398, -29.0243912, 149.146347, -6.0975609, -0.0681468
0.5932617, -0.1293945, -1.1381836, -28.780489, 148.9634247, -7.1341467, -0.0513619
0.5947266, -0.1044922, -1.1147461, -29.6341476, 147.7439117, -7.2560978, -0.0339055
0.6015625, -0.0664062, -1.0141602, -30.9146347, 144.3902435, -7.6219516, -0.024506
0.609375, -0.0605469, -0.9584961, -30.6097565, 142.86586, -7.6829271, -0.0157778
0.5874023, -0.0737305, -0.8925781, -28.0487804, 140.0609741, -7.7439027, -0.011078
0.5522461, -0.0961914, -0.9155273, -26.7073174, 138.3536682, -7.4390244, -0.0097353
0.5371094, -0.1083984, -0.9506836, -24.6341476, 133.2317047, -5.9146342, -0.0271916
0.5361328, -0.1196289, -1.0610352, -25.7926826, 126.3414688, -4.5121951, -0.0463264
0.5556641, -0.1279297, -1.1147461, -27.4390259, 123.5975647, -4.0243902, -0.0439765
0.6313477, -0.1298828, -1.1889648, -30.5487804, 120, -3.3536587, -0.0466621
0.6791992, -0.1293945, -1.1938477, -32.0731697, 119.2682953, -3.5975611, -0.0540475
0.7607422, -0.1425781, -1.1235352, -32.3780479, 121.4024429, -4.4512196, -0.0382696
0.7783203, -0.1474609, -1.0634766, -31.4024391, 123.5365906, -5, -0.0292058
0.7524414, -0.1630859, -0.9384766, -25.9756107, 128.1707306, -7.2560978, -0.0379339
0.706543, -0.1679688, -0.8945312, -22.3170738, 129.6951294, -8.1707315, -0.0231632
0.5717773, -0.1669922, -0.8554688, -15.6707325, 129.3292694, -8.719512, -0.0016785
0.4702148, -0.1420898, -0.9072266, -13.2317076, 127.3780518, -8.1707315, 0.0130922
0.4467773, -0.1206055, -0.9570312, -11.5853662, 121.3414688, -6.9512196, 0.0292058
0.4702148, -0.0854492, -1.0644531, -14.0853662, 114.0853653, -5.7926831, 0.0372625
0.5112305, -0.0693359, -1.105957, -16.3414631, 111.1585388, -5.4878049, 0.0305486
0.6298828, -0.0410156, -1.1552734, -21.0365868, 108.5975647, -5.3048782, 0.0184634
0.6743164, -0.0288086, -1.168457, -23.1707325, 109.3292694, -5.4878049, -0.0077211
0.730957, -0.0029297, -1.1796875, -25.9756107, 114.5121994, -5.2439027, -0.0406195
0.7348633, 0.0097656, -1.1782227, -26.5243912, 117.3170776, -4.5731707, -0.0540475
0.7016602, 0.0073242, -1.1625977, -27.5, 121.7682953, -2.9268293, -0.0574044
0.6806641, -0.0043945, -1.1547852, -27.9268303, 122.86586, -1.8292683, -0.0473335
0.6298828, -0.0585938, -1.128418, -29.5121956, 122.2561035, 1.1585366, -0.0298772
0.6098633, -0.125, -1.0947266, -30.060976, 121.1585388, 2.6219513, -0.0087282
0.6083984, -0.1469727, -1.0634766, -31.280489, 119.2682953, 4.3292685, 0.0036927
0.6166992, -0.175293, -0.9960938, -30.9146347, 120.4878082, 4.4512196, 0.0050355
0.6235352, -0.1791992, -0.9648438, -30.5487804, 121.8292694, 3.7195122, 0.0010071
0.6289062, -0.1660156, -0.9394531, -28.841465, 124.2682953, 1.9512196, -0.0117494
0.6328125, -0.1474609, -0.9453125, -28.2926826, 124.6341476, 1.402439, -0.0285344
0.6386719, -0.1142578, -0.9702148, -28.7195129, 123.1097565, 0.1219512, -0.0379339
0.6499023, -0.1079102, -0.9790039, -29.8170738, 121.2804871, -0.2439024, -0.0500191
0.6816406, -0.109375, -0.9833984, -32.5, 117.5, -0.4878049, -0.0654612
0.6962891, -0.1147461, -0.9765625, -33.9634171, 115.8536606, -0.7317073, -0.0715038
0.7172852, -0.1484375, -0.9511719, -35.1829262, 114.0243912, -0.7317073, -0.0745251
0.730957, -0.1791992, -0.9116211, -34.6341476, 113.5975647, -0.7926829, -0.0802319
0.7241211, -0.1835938, -0.8930664, -31.8902454, 113.2926865, -1.2804878, -0.0785534
0.699707, -0.1860352, -0.8520508, -27.3170738, 114.0853653, -2.3170731, -0.0835889
0.6899414, -0.1811523, -0.8310547, -25.3048782, 113.7195129, -2.9878049, -0.0829175
0.6674805, -0.1616211, -0.8251953, -22.439024, 112.86586, -4.2682929, -0.0869459
0.6601562, -0.1518555, -0.8393555, -21.6463413, 111.8292694, -4.6951222, -0.0822461
0.6542969, -0.1166992, -0.8881836, -22.6219521, 108.9634171, -4.8780489, -0.0809033
0.6591797, -0.097168, -0.9277344, -23.4756107, 107.0731735, -5.0609756, -0.0762036
0.6953125, -0.074707, -1.0097656, -25.9146347, 102.68293, -4.9390244, -0.0748608
0.7285156, -0.074707, -1.0488281, -27.0121956, 100.8536606, -4.5731707, -0.070161
0.7988281, -0.0839844, -1.0551758, -28.7195129, 98.8414688, -3.5975611, -0.0647898
0.8671875, -0.1347656, -0.9746094, -28.841465, 98.5365906, -3.4146342, -0.0621042
0.8828125, -0.1586914, -0.9116211, -25.6707325, 100.7926865, -3.4756098, -0.0597543
0.8461914, -0.1987305, -0.8071289, -19.4512196, 105, -3.9024391, -0.0570687
0.8046875, -0.2050781, -0.7827148, -15.7317076, 107.0121994, -3.9634147, -0.0594186
0.6977539, -0.1899414, -0.8105469, -9.8170738, 108.8414688, -3.6585367, -0.0553902
0.6523438, -0.1591797, -0.8496094, -8.2926826, 107.5609818, -3.0487804, -0.0486763
0.6333008, -0.0878906, -0.9360352, -8.841464, 102.2561035, -2.0121951, -0.0496834
0.6557617, -0.0537109, -0.9560547, -10, 99.3902435, -1.7073171, -0.0480049
0.7509766, -0.0131836, -0.9487305, -13.7195129, 94.6341476, -1.7073171, -0.0486763
0.8046875, -0.0019531, -0.9282227, -15, 93.5975647, -2.0121951, -0.0433051
0.8759766, -0.0224609, -0.8759766, -14.8170738, 94.3292694, -1.9512196, -0.0406195
0.862793, -0.059082, -0.8632812, -13.841464, 95.4268341, -1.3414634, -0.0439765
0.8427734, -0.0771484, -0.8774414, -11.8292685, 98.5365906, 0.8536586, -0.0399481
0.769043, -0.0864258, -0.9326172, -11.0365858, 99.9390259, 3.7804878, -0.0359197
0.7436523, -0.0800781, -0.9619141, -11.4634151, 100.0609818, 4.7560978, -0.0379339
0.734375, -0.0561523, -0.9931641, -14.6341467, 99.9390259, 5.9146342, -0.0342412
0.7470703, -0.0532227, -0.9897461, -16.2195129, 99.7561035, 5.609756, -0.0298772
0.7856445, -0.0522461, -0.9506836, -20.1219521, 99.146347, 4.5731707, -0.0372625
0.8154297, -0.0634766, -0.9179688, -21.280489, 99.3292694, 4.390244, -0.0392767
0.8505859, -0.0942383, -0.8442383, -22.3170738, 100.9756088, 4.0853658, -0.0302129
0.855957, -0.1083984, -0.8076172, -21.5853672, 101.7682953, 4.1463413, -0.0191348
0.8388672, -0.1362305, -0.7485352, -18.8414631, 103.4756088, 4.6341462, -0.0046998
0.8027344, -0.1513672, -0.71875, -16.8902435, 104.2682953, 4.9390244, 0.0023499
0.7822266, -0.1420898, -0.7207031, -13.4756098, 104.3292694, 5.4878049, 0.0010071
0.7709961, -0.112793, -0.7563477, -12.560976, 102.9878082, 5.1829271, 0.0023499
0.7768555, -0.0966797, -0.7890625, -13.2926836, 101.646347, 4.2073174, -0.0073854
0.815918, -0.0644531, -0.859375, -16.8902435, 97.5609741, 2.9878049, -0.0305486
0.8417969, -0.0527344, -0.887207, -19.5121956, 96.0975647, 2.2560976, -0.0392767
0.9106445, -0.0390625, -0.8876953, -23.6585369, 94.2073212, 1.2804878, -0.0328985
0.9458008, -0.0375977, -0.8588867, -24.7560978, 94.4512253, 1.2195122, -0.0258488
0.9770508, -0.0576172, -0.7685547, -23.4146347, 95.9146347, -0.4268293, -0.0130922
0.9467773, -0.0991211, -0.6992188, -22.2560978, 97.2561035, -0.7926829, -0.0036927
0.9165039, -0.1240234, -0.6826172, -18.9634151, 98.4146347, -0.2439024, -0.0171206
0.847168, -0.1489258, -0.668457, -17.560976, 97.9268341, 0.1829268, -0.0352483
0.8203125, -0.1479492, -0.6655273, -15.6707325, 95.6707306, 0.9146342, -0.0298772
0.7954102, -0.1088867, -0.6572266, -14.3292685, 93.1097565, 0.5487805, -0.0271916
0.7958984, -0.0830078, -0.6708984, -14.0853662, 91.9512253, -0.0609756, -0.0258488
0.8188477, -0.027832, -0.7236328, -14.7560978, 88.4756088, -1.7073171, -0.0181277
0.8388672, -0.0063477, -0.762207, -15.4878054, 86.3414688, -2.0121951, -0.0181277
0.8935547, 0.0092773, -0.8139648, -18.7195129, 81.3414688, -1.7682927, -0.0258488
0.9272461, 0.0068359, -0.8203125, -19.939024, 79.2073212, -1.2195122, -0.027863
0.9882812, -0.0297852, -0.7749023, -21.2195129, 77.6219559, 0.4878049, -0.0265202
1.0019531, -0.0717773, -0.7128906, -20.7317085, 78.3536606, 1.2804878, -0.0285344
0.9833984, -0.0834961, -0.6933594, -18.2317085, 81.8292694, 3.1707318, -0.0302129
0.9233398, -0.0839844, -0.6870117, -17.0121956, 83.5975647, 3.5975611, -0.0339055
0.887207, -0.0708008, -0.6923828, -15.1829271, 85.7317123, 4.7560978, -0.0446479
0.8476562, -0.0317383, -0.7128906, -15.060976, 84.3292694, 4.9390244, -0.056733
0.8461914, -0.0161133, -0.7182617, -15.4878054, 82.3170776, 4.6341462, -0.0661326
0.8828125, 0.0117188, -0.7314453, -16.8292694, 78.2317123, 3.8414636, -0.0708324
0.9086914, 0.0170898, -0.7314453, -17.3780499, 76.5853653, 3.5975611, -0.0688182
0.9619141, 0.0083008, -0.7250977, -17.9268303, 74.4512177, 3.5365853, -0.0674754
0.9819336, 0.0004883, -0.7094727, -17.6219521, 74.0853653, 3.8414636, -0.0657969
0.9975586, -0.0273438, -0.6782227, -14.9390249, 74.9390259, 4.5121951, -0.0715038
0.9780273, -0.0688477, -0.6582031, -13.4146347, 75.5487823, 5.0609756, -0.0809033
0.9619141, -0.0820312, -0.6518555, -10.3658543, 76.3414688, 5.4268293, -0.0835889
0.9306641, -0.1035156, -0.6435547, -9.3292685, 76.4024429, 5.670732, -0.0835889
0.9165039, -0.1054688, -0.6357422, -7.8658538, 76.7073212, 6.0365853, -0.0647898
0.902832, -0.0883789, -0.6015625, -6.5243902, 76.2195129, 4.5731707, -0.0594186
0.9067383, -0.0771484, -0.5913086, -5.7317076, 75.6097565, 3.5975611, -0.0795605
0.9086914, -0.0664062, -0.5996094, -4.4512196, 73.7804871, 1.6463414, -0.0822461
0.9130859, -0.0625, -0.6083984, -4.2073174, 72.8048782, 0.9146342, -0.0604257
0.9296875, -0.0668945, -0.6318359, -4.0853658, 70, 0.4268293, -0.0275273
0.9404297, -0.0688477, -0.6391602, -3.9024391, 68.9634171, 0.1829268, 0.0063783
0.956543, -0.0742188, -0.6538086, -3.7195122, 68.5365906, 0.3048781, 0.0251774
0.9633789, -0.0737305, -0.6743164, -3.7804878, 69.2073212, 0.0609756, 0.0251774
0.9624023, -0.0664062, -0.6948242, -4.2682929, 70.9756088, 0.2439024, 0.0174563
0.9418945, -0.0483398, -0.7373047, -4.5121951, 72.1951218, 0.2439024, 0.0063783
0.9360352, -0.0307617, -0.75, -6.7073174, 74.3292694, 0.7317073, -0.0083925
0.9384766, 0.0014648, -0.7368164, -8.5975609, 76.4024429, 0.9146342, -0.0285344
0.9375, 0.0136719, -0.71875, -8.841464, 77.5, 0.6097561, -0.0446479
0.9414062, 0.0268555, -0.684082, -8.2926826, 78.7804871, 0.4268293, -0.0647898
0.9399414, 0.0209961, -0.6762695, -7.9878049, 79.0243912, 0.7926829, -0.076875
0.9335938, 0.0107422, -0.6835938, -7.8658538, 78.8414688, 1.5243902, -0.0852674
0.9306641, 0.0004883, -0.6884766, -8.719512, 78.6585388, 2.195122, -0.0896315
0.9213867, -0.0112305, -0.6875, -10, 78.9024429, 3.2317073, -0.0956741
0.9238281, -0.0185547, -0.6611328, -10.2439022, 79.0243912, 3.8414636, -0.1003738
0.9267578, -0.0102539, -0.6479492, -10.060976, 80.3658524, 4.4512196, -0.1010452
0.9282227, 0.0151367, -0.6455078, -10, 81.5853653, 4.5121951, -0.0983597
0.9223633, 0.034668, -0.659668, -12.2560978, 83.3536606, 4.7560978, -0.0983597
0.9189453, 0.0498047, -0.6806641, -16.7682934, 82.4390259, 5.5487804, -0.0986954
0.9233398, 0.0478516, -0.6772461, -19.0243912, 80.6097565, 6.0365853, -0.1077592
0.9487305, 0.0268555, -0.6474609, -21.6463413, 77.2560959, 6.7682929, -0.1148089
0.9614258, 0.0131836, -0.625, -21.7073174, 76.0365906, 7.4390244, -0.1188373
0.980957, -0.0175781, -0.5751953, -19.7560978, 76.7682953, 8.5365858, -0.115816
0.9863281, -0.0297852, -0.5483398, -18.1707325, 77.5609741, 8.780488, -0.1003738
0.9785156, -0.046875, -0.5058594, -15.060976, 79.0243912, 8.9634151, -0.0782177
0.9560547, -0.0585938, -0.4804688, -13.4146347, 79.0243912, 9.1463413, -0.0513619
0.9423828, -0.0620117, -0.4829102, -11.1585369, 76.2195129, 8.6585369, -0.0221561
0.9438477, -0.065918, -0.503418, -10.6707315, 73.8414688, 8.719512, -0.0023499
0.9511719, -0.0727539, -0.5102539, -10.1219511, 69.0243912, 8.6585369, 0.006714
0.9838867, -0.0825195, -0.5097656, -9.5731707, 65.5487823, 7.9878049, 0.0130922
0.996582, -0.0864258, -0.5039062, -8.2317076, 64.7560959, 7.3780489, 0.0013428
1.0068359, -0.081543, -0.4912109, -5.7926831, 64.6951218, 6.6463418, -0.017792
1.0097656, -0.0810547, -0.4916992, -4.0853658, 64.4512177, 6.1585369, -0.0221561
0.9995117, -0.0820312, -0.4951172, -0.9146342, 63.5365868, 5.2439027, -0.0339055
0.9921875, -0.0854492, -0.4946289, 0, 62.4390259, 5.0609756, -0.0446479
0.996582, -0.0947266, -0.4804688, 1.2804878, 60.0609779, 4.7560978, -0.0365911
0.9960938, -0.0996094, -0.4697266, 2.0731707, 59.0853691, 4.2682929, -0.0288701
0.9907227, -0.0986328, -0.4746094, 3.1707318, 56.9512215, 3.3536587, -0.027863
0.9858398, -0.0986328, -0.5078125, 4.4512196, 54.6951218, 2.6219513, -0.0164492
0.9892578, -0.1000977, -0.5297852, 4.7560978, 53.5975609, 2.3780489, -0.0077211
0.9956055, -0.0795898, -0.5546875, 5.4878049, 52.0121956, 2.5609756, -0.0057069
1.0039062, -0.0703125, -0.5615234, 5.8536587, 52.1951218, 2.4390244, -0.0006714
1.0214844, -0.0356445, -0.5722656, 6.280488, 53.0487823, 2.3170731, 0.0023499
1.0170898, -0.0239258, -0.5668945, 6.7073174, 53.5975609, 1.8292683, 0.0104067
1.0097656, -0.0151367, -0.5683594, 6.1585369, 53.9634171, 1.2804878, 0.0070497
1.0029297, -0.0136719, -0.5678711, 5.2439027, 53.4756126, 1.6463414, 0.0006714
0.9858398, -0.0239258, -0.5834961, 1.8902439, 52.1951218, 2.7439024, -0.0043641
0.9692383, -0.0273438, -0.6044922, 0.1829268, 51.6463432, 3.4146342, -0.0057069
0.9663086, -0.0268555, -0.6064453, -2.6219513, 50.4878044, 4.6341462, -0.0083925
0.980957, -0.0263672, -0.5986328, -3.1097562, 51.0365868, 4.9390244, -0.0137636
0.9838867, -0.0253906, -0.5961914, -2.6219513, 51.7073174, 4.9390244, -0.0184634
1.0004883, -0.0209961, -0.5800781, -1.402439, 52.6829262, 4.6341462, -0.017792
1.0058594, -0.0209961, -0.5708008, -1.097561, 53.4756126, 4.9390244, -0.0124208
1.0151367, -0.0229492, -0.5405273, -1.097561, 54.4512215, 4.8780489, -0.011078
1.019043, -0.0224609, -0.5195312, -1.0365853, 54.6341476, 5.1219511, -0.0171206
0.9980469, -0.027832, -0.4819336, -2.0731707, 54.9390259, 5.1219511, -0.03122
0.9838867, -0.0297852, -0.472168, -2.0731707, 54.4512215, 5.0609756, -0.0406195
0.9594727, -0.0351562, -0.4790039, -2.4390244, 52.7439041, 4.8780489, -0.0527047
0.9550781, -0.0429688, -0.4833984, -2.9878049, 51.341465, 4.8170733, -0.0637827
0.9609375, -0.0585938, -0.480957, -3.2317073, 48.1707344, 4.9390244, -0.0745251
0.9960938, -0.078125, -0.4624023, -1.4634147, 46.7682953, 4.5121951, -0.0829175
1.0068359, -0.0883789, -0.4599609, -0.5487805, 46.9512215, 3.9024391, -0.0916457
1.0131836, -0.1020508, -0.4682617, 2.0731707, 47.3170738, 3.1097562, -0.0997024
1.012207, -0.1083984, -0.4736328, 3.1707318, 47.3780518, 2.8658538, -0.1077592
1.003418, -0.1113281, -0.4897461, 5.2439027, 47.5, 3.1097562, -0.1138018
0.9985352, -0.1030273, -0.4990234, 5.609756, 47.1951218, 3.1707318, -0.1144732
0.9941406, -0.0717773, -0.5283203, 5.4878049, 46.4634171, 2.5, -0.1104448
0.996582, -0.0561523, -0.5527344, 5, 45.9146347, 2.3170731, -0.1084306
1.0019531, -0.0400391, -0.5825195, 3.2926829, 44.0853653, 2.195122, -0.1054093
1.0117188, -0.0366211, -0.5908203, 2.5609756, 43.4146347, 2.6829269, -0.0973526
1.0205078, -0.0361328, -0.5957031, 1.6463414, 43.0487823, 3.7804878, -0.0916457
1.0327148, -0.0405273, -0.5864258, 1.2195122, 43.4756126, 4.3292685, -0.0849317
1.03125, -0.0473633, -0.578125, 1.097561, 43.7804871, 4.4512196, -0.0728466
1.0175781, -0.0585938, -0.5693359, 0.2439024, 44.0853653, 5.1829271, -0.0654612
1.0073242, -0.0595703, -0.5571289, -0.5487805, 44.0853653, 5.670732, -0.0647898
0.9892578, -0.0556641, -0.5151367, -1.402439, 44.0853653, 6.2195125, -0.0715038
0.9799805, -0.046875, -0.4956055, -1.6463414, 43.2926826, 6.2195125, -0.0715038
0.9707031, -0.0454102, -0.4868164, -2.0121951, 41.0975609, 6.0365853, -0.0621042
0.9648438, -0.0473633, -0.4892578, -2.5, 39.0853653, 5.7317076, -0.0446479
0.9760742, -0.0615234, -0.4921875, -3.2926829, 35.2439041, 5.9756098, -0.0224918
0.9799805, -0.0727539, -0.4897461, -3.8414636, 33.9024391, 5.9146342, -0.0057069
0.9838867, -0.0786133, -0.4946289, -3.2317073, 32.2560997, 6.4024391, 0.0023499
0.9824219, -0.0947266, -0.496582, -2.1341465, 31.4024391, 6.5853658, 0.0070497
0.9775391, -0.0947266, -0.4868164, -2.0731707, 31.5243912, 6.3414636, 0.0077211
0.9765625, -0.1000977, -0.4335938, -1.0365853, 31.9512196, 6.4024391, -0.0003357
0.9663086, -0.1015625, -0.3999023, -0.1829268, 31.1585369, 5.9146342, -0.0137636
0.9477539, -0.1098633, -0.3769531, 0.3658537, 28.3536587, 5.0609756, -0.0204776
0.9326172, -0.1230469, -0.3945312, 0.6707317, 25.8536587, 5, -0.021149
0.9228516, -0.1533203, -0.453125, 0.0609756, 20.4268303, 5.5487804, -0.0224918
0.9262695, -0.1577148, -0.4814453, -0.5487805, 18.2317085, 6.0975609, -0.0285344
0.9487305, -0.1450195, -0.5209961, -0.1219512, 16.5243912, 6.7682929, -0.0372625
0.9819336, -0.1176758, -0.5336914, 0.7317073, 17.1951218, 6.7073174, -0.070161
0.9833984, -0.1005859, -0.5444336, 3.1097562, 19.5731716, 6.0975609, -0.1205158
0.9916992, -0.0810547, -0.5571289, 3.6585367, 19.939024, 5.4268293, -0.1722133
0.9873047, -0.0844727, -0.5605469, 3.0487804, 19.2682934, 5.2439027, -0.1735561
0.980957, -0.0957031, -0.5712891, 0.9756098, 16.8902435, 6.280488, -0.1453574
0.9765625, -0.1030273, -0.578125, -0.3048781, 15.8536587, 7.1951222, -0.0943313
0.9555664, -0.0991211, -0.5771484, -2.6219513, 16.5853653, 8.780488, -0.0493477
0.9506836, -0.1000977, -0.5639648, -2.9268293, 17.3170738, 8.9024391, -0.0114137
0.9360352, -0.0986328, -0.5375977, -3.2317073, 17.8048782, 8.9634151, 0.0130922
0.9296875, -0.0961914, -0.5253906, -3.7804878, 16.9512196, 8.719512, 0.0399481
0.9277344, -0.1049805, -0.527832, -5.8536587, 14.8170738, 8.9024391, 0.0412909
0.9370117, -0.1191406, -0.5419922, -7.2560978, 13.780488, 9.3292685, 0.0335698
0.9462891, -0.1147461, -0.5385742, -10.3658543, 12.560976, 10.9756098, 0.0147707
0.9575195, -0.105957, -0.5239258, -10.9146347, 13.5365858, 11.8902445, -0.0070497
0.9633789, -0.0996094, -0.512207, -10.9146347, 14.1463413, 11.8902445, -0.014435
0.9624023, -0.0839844, -0.5195312, -11.0365858, 13.9024391, 11.219512, -0.0124208
0.9560547, -0.0874023, -0.5322266, -12.0121956, 12.9878054, 11.280488, 0.0043641
0.9541016, -0.0986328, -0.559082, -14.8170738, 9.9390249, 12.0731707, 0.0198062
0.9506836, -0.109375, -0.5683594, -16.4024391, 8.0487804, 12.3780489, 0.0191348
0.9492188, -0.1313477, -0.5766602, -18.2317085, 7.1951222, 13.5975609, 0.0198062
0.9521484, -0.1347656, -0.5664062, -18.5365849, 7.3780489, 13.9634151, 0.0130922
0.9584961, -0.128418, -0.5273438, -18.1097565, 9.4512196, 14.1463413, -0.0063783
0.9458008, -0.1191406, -0.472168, -17.7439022, 10, 13.780488, -0.0271916
0.9355469, -0.1230469, -0.4462891, -17.0121956, 9.1463413, 12.7439032, -0.0339055
0.9204102, -0.1367188, -0.4189453, -17.1341476, 6.2195125, 12.8048782, -0.0433051
0.9160156, -0.1464844, -0.4101562, -17.5, 4.0243902, 13.0487804, -0.0513619
0.9189453, -0.1542969, -0.4257812, -17.1341476, 0.6707317, 13.780488, -0.0473335
0.9194336, -0.1484375, -0.4443359, -16.8902435, -0.5487805, 13.841464, -0.0473335
0.9321289, -0.1313477, -0.4770508, -16.0975609, -1.7682927, 14.5121956, -0.0506905
0.940918, -0.1259766, -0.4775391, -15.7317076, -2.0731707, 14.5121956, -0.0594186
0.9619141, -0.1186523, -0.4633789, -15.1219511, -2.7439024, 13.841464, -0.0721752
0.9594727, -0.1137695, -0.4453125, -14.8780489, -3.4146342, 13.9634151, -0.0627756
0.9580078, -0.1337891, -0.4169922, -15.4878054, -6.0975609, 13.4756098, -0.0473335
0.9438477, -0.1606445, -0.4140625, -15.8536587, -7.9878049, 13.4146347, -0.0315557
0.9375, -0.1640625, -0.4169922, -16.8292694, -12.2560978, 13.7195129, -0.027863
0.9389648, -0.1733398, -0.4291992, -17.0121956, -15.4268293, 13.841464, -0.0231632
0.9487305, -0.1699219, -0.4272461, -16.8292694, -16.9512196, 13.6585369, -0.0224918
0.9672852, -0.1679688, -0.4248047, -16.0365849, -19.3902435, 12.8658543, -0.0305486
0.9770508, -0.1660156, -0.4311523, -15.6707325, -20.7317085, 12.3780489, -0.0372625
0.9931641, -0.1640625, -0.440918, -15.1829271, -23.7195129, 12.1951218, -0.0486763
1.0078125, -0.1655273, -0.4511719, -15.060976, -25.1219521, 12.0731707, -0.0614328
1.0166016, -0.1787109, -0.4658203, -15.1219511, -28.5365868, 12.6829271, -0.0607614
1.0224609, -0.1796875, -0.4672852, -15.2439032, -29.7560978, 12.7439032, -0.0580758
1.027832, -0.1689453, -0.4619141, -14.6341467, -31.0975609, 12.9268293, -0.0580758
1.0332031, -0.1650391, -0.4575195, -14.0243902, -31.8292694, 12.3170738, -0.0446479
1.0283203, -0.1625977, -0.4638672, -13.6585369, -32.9878044, 11.4024391, -0.0248417
1.0288086, -0.1503906, -0.4794922, -13.9024391, -35, 11.6463413, -0.0151064
1.0273438, -0.1396484, -0.4931641, -14.5121956, -36.0365868, 11.6463413, -0.0083925
1.0327148, -0.1201172, -0.5317383, -15.7926836, -38.2317085, 11.8902445, -0.011078
1.0322266, -0.1123047, -0.5537109, -16.4024391, -39.1463432, 11.7682934, -0.0204776
1.0351562, -0.1103516, -0.5820312, -17.7439022, -40.1829262, 12.6829271, -0.0318914
1.0419922, -0.1171875, -0.5830078, -17.9878044, -40.5487823, 12.9268293, -0.0453193
1.0463867, -0.1259766, -0.5488281, -17.8658543, -39.7560997, 13.1707315, -0.0621042
1.0429688, -0.1342773, -0.5292969, -17.9878044, -39.0853653, 12.8658543, -0.0503548
1.0185547, -0.1386719, -0.4985352, -18.5975609, -38.2926826, 13.1707315, -0.0372625
1.0009766, -0.1367188, -0.4951172, -19.2073174, -38.7804871, 12.9268293, -0.0533761
1.0019531, -0.1357422, -0.4931641, -20.3048782, -41.2195129, 12.6829271, -0.0386053
1.0297852, -0.1279297, -0.5078125, -20.1829281, -43.9024391, 12.4390249, -0.0090639
1.0410156, -0.1303711, -0.5307617, -20.4268303, -45.1829262, 12.5, 0.0224918
1.0615234, -0.1376953, -0.5874023, -20.6097565, -46.4024391, 12.7439032, 0.0298772
1.0722656, -0.1469727, -0.6044922, -21.2195129, -46.5243912, 12.9878054, 0.0305486
1.0761719, -0.1704102, -0.6030273, -21.280489, -45.6707344, 13.5365858, 0.0157778
1.0717773, -0.1811523, -0.5825195, -20.4878044, -45.0609779, 13.3536587, -0.0070497
1.0488281, -0.1865234, -0.519043, -18.4146347, -43.5975609, 13.2926836, -0.0198062
1.015625, -0.1884766, -0.4785156, -17.2560978, -43.2926826, 12.9878054, -0.0352483
0.9921875, -0.190918, -0.4775391, -17.0731716, -44.5121956, 12.5, -0.052369
0.972168, -0.1811523, -0.4946289, -17.3170738, -46.2804871, 12.560976, -0.0647898
0.980957, -0.1723633, -0.5107422, -18.8414631, -50.9756126, 12.8048782, -0.0728466
1.0195312, -0.1630859, -0.5102539, -20.1219521, -54.4512215, 13.0487804, -0.0822461
1.0380859, -0.1601562, -0.5039062, -20, -55.3658562, 12.7439032, -0.0795605
1.0576172, -0.1645508, -0.46875, -19.0243912, -56.2195129, 12.6219511, -0.0741894
1.0561523, -0.1772461, -0.4580078, -18.0487804, -56.8292694, 12.3780489, -0.0661326
1.0307617, -0.1943359, -0.434082, -17.5, -59.0853691, 12.7439032, -0.0540475
1.0102539, -0.1884766, -0.4223633, -16.7682934, -60.6707344, 13.0487804, -0.0520333
0.9765625, -0.175293, -0.4101562, -16.7073174, -63.3536606, 13.5365858, -0.0486763
0.9702148, -0.1435547, -0.4345703, -16.7682934, -65.1219559, 13.1707315, -0.0473335
0.9692383, -0.1274414, -0.4550781, -17.2560978, -68.7195129, 12.1341467, -0.0463264
0.9833984, -0.1088867, -0.5029297, -18.0487804, -71.0365906, 12.0121956, -0.0365911
0.9946289, -0.1074219, -0.512207, -20.1829281, -74.6341476, 12.5, -0.0365911
1.0292969, -0.1157227, -0.5014648, -21.2195129, -76.8902435, 13.2317076, -0.0392767
1.0297852, -0.1225586, -0.4907227, -21.0975609, -77.3170776, 13.1097565, -0.0493477
1.0102539, -0.137207, -0.4750977, -20.5487804, -77.6219559, 13.5975609, -0.0708324
0.9892578, -0.1420898, -0.4697266, -20.6707325, -78.2926865, 13.841464, -0.0963455
0.9599609, -0.1464844, -0.4814453, -21.0975609, -80.3658524, 14.5121956, -0.1174945
0.9492188, -0.144043, -0.4838867, -21.5853672, -81.7073212, 14.1463413, -0.1326009
0.9575195, -0.1391602, -0.4926758, -23.5975609, -84.9390259, 14.0243902, -0.1413291
0.9726562, -0.1411133, -0.503418, -24.5731716, -86.2195129, 13.7195129, -0.1426719
0.9873047, -0.1430664, -0.5097656, -26.6463413, -88.7195129, 13.7195129, -0.1346151
1.003418, -0.1489258, -0.5371094, -26.8902454, -89.6341476, 13.4756098, -0.115816
1.0087891, -0.1518555, -0.5507812, -27.5, -90.9146347, 13.3536587, -0.1326009
1.0151367, -0.1625977, -0.5805664, -27.8048782, -92.0731735, 13.0487804, -0.1540856
1.0058594, -0.1689453, -0.5908203, -27.8658543, -92.3170776, 12.9268293, -0.1574426
0.9882812, -0.1728516, -0.5961914, -28.5365868, -91.4634171, 13.4756098, -0.1198444
0.9746094, -0.1606445, -0.5922852, -28.5975609, -90.3658524, 13.5365858, -0.0674754
0.9428711, -0.1337891, -0.5795898, -28.6585369, -88.5365906, 13.1707315, -0.0030213
0.9301758, -0.1191406, -0.5708008, -28.9634151, -88.0487823, 13.0487804, 0.0466621
0.9130859, -0.1079102, -0.5546875, -30.8536587, -89.6341476, 12.3170738, 0.0533761
0.9111328, -0.1113281, -0.5258789, -32.2560997, -90.8536606, 12.560976, 0.0345769
0.9116211, -0.1171875, -0.5151367, -34.9390259, -93.1097565, 13.2926836, 0.0399481
0.9189453, -0.1235352, -0.5273438, -35.8536606, -94.5121994, 13.5365858, 0.0480049
0.9213867, -0.1323242, -0.5419922, -36.8292694, -96.5243912, 13.5975609, 0.0681468
0.9331055, -0.1386719, -0.5717773, -38.1097565, -98.0487823, 13.7195129, 0.0809033
0.9399414, -0.140625, -0.5761719, -38.6585388, -98.9634171, 13.7195129, 0.0674754
0.9501953, -0.1445312, -0.5571289, -39.2682953, -98.8414688, 14.3292685, 0.0157778
0.9492188, -0.1489258, -0.5517578, -39.0853653, -98.4146347, 14.4512196, -0.0513619
0.9306641, -0.1469727, -0.5649414, -39.5121956, -98.4146347, 14.4512196, -0.1272297
0.9204102, -0.1386719, -0.5732422, -39.8170738, -98.7804871, 14.3292685, -0.1675135
0.9033203, -0.1313477, -0.5756836, -41.1585388, -100.8536606, 14.4512196, -0.1453574
0.8974609, -0.1303711, -0.5551758, -42.0121956, -101.7682953, 14.5731707, -0.0728466
0.8959961, -0.1328125, -0.5444336, -43.1097565, -103.9634171, 15.3048782, 0.0184634
0.8803711, -0.1308594, -0.5483398, -43.7804871, -104.6341476, 15.5487804, 0.0557259
0.8754883, -0.125, -0.5576172, -44.6951218, -106.0975647, 16.3414631, 0.0553902
0.8671875, -0.1181641, -0.565918, -45.9146347, -107.5, 17.1951218, 0.0795605
0.8730469, -0.1191406, -0.5683594, -46.4024391, -108.7195129, 17.439024, 0.0889601
0.9003906, -0.1157227, -0.5786133, -46.4024391, -111.2195129, 16.9512196, 0.0745251
0.9106445, -0.1191406, -0.5854492, -46.4634171, -112.3780518, 17.1341476, 0.0218204
0.9301758, -0.1308594, -0.6035156, -46.4024391, -114.0243912, 17.1951218, -0.0184634
0.9350586, -0.140625, -0.609375, -46.2195129, -114.6341476, 16.9512196, -0.0500191
0.9331055, -0.1694336, -0.5986328, -45.5487823, -115.4268341, 16.4634151, -0.0741894
0.9199219, -0.1904297, -0.5795898, -44.9390259, -115.18293, 16.4024391, -0.0842603
0.9086914, -0.2001953, -0.5727539, -43.5975609, -115.0609818, 15.9146347, -0.0755322
0.8876953, -0.2016602, -0.5717773, -41.7073174, -115.4878082, 15.3048782, -0.0574044
0.8798828, -0.1953125, -0.5766602, -41.4024391, -116.1585388, 14.5121956, -0.0406195
0.8706055, -0.2006836, -0.6083984, -41.0365868, -119.146347, 13.1097565, -0.0325628
0.8754883, -0.1982422, -0.625, -41.1585388, -120.5487823, 12.6829271, -0.0392767
0.8847656, -0.2055664, -0.6557617, -41.7682953, -123.2926865, 12.5, -0.0339055
0.8950195, -0.2060547, -0.668457, -41.7682953, -123.8414688, 12.4390249, -0.0224918
0.9125977, -0.1977539, -0.6816406, -41.2195129, -122.9878082, 11.8902445, -0.0406195
0.9179688, -0.1889648, -0.6787109, -40.9756088, -121.8292694, 11.9512196, -0.0795605
0.9233398, -0.1748047, -0.6669922, -40, -120.7926865, 11.0365858, -0.070161
0.9086914, -0.152832, -0.675293, -39.6951218, -120.36586, 10.7926836, -0.0379339
0.9018555, -0.1425781, -0.6796875, -39.5731735, -120.4878082, 11.0365858, -0.0191348
0.894043, -0.1245117, -0.6889648, -39.9390259, -122.1951218, 11.219512, -0.0070497
0.8955078, -0.1264648, -0.6894531, -39.6951218, -123.1707382, 10.8536587, -0.0016785
0.8945312, -0.1479492, -0.6850586, -39.8780479, -126.2804871, 10.5487804, -0.011078
0.8935547, -0.1645508, -0.6855469, -39.6951218, -127.3780518, 10.9146347, -0.0365911
0.8813477, -0.1923828, -0.6870117, -38.2317085, -128.7195129, 11.5243902, -0.0728466
0.8813477, -0.2011719, -0.6904297, -36.8292694, -128.7804871, 11.9512196, -0.1030594
0.8813477, -0.1918945, -0.6928711, -34.1463432, -127.68293, 12.3170738, -0.1215229
0.8857422, -0.1889648, -0.6894531, -33.2317085, -127.0731735, 11.9512196, -0.1245441
0.890625, -0.1713867, -0.668457, -31.341465, -125.9756165, 10.060976, -0.1440146
0.8852539, -0.1630859, -0.668457, -31.0365868, -126.2195129, 8.780488, -0.2101472
0.8818359, -0.1625977, -0.6791992, -30.6707325, -127.9268341, 7.8658538, -0.2447242
