Application:, Trigno Discover (1.6.5)
Date/Time:, 03/02/2025 10:29:59
Collection Length (seconds):, 36.261
wrist (81457), , , , , , bicep (81139)
sensor mode: 609, , , , , , sensor mode: 40
ACC X (G), ACC Y (G), ACC Z (G), GYRO X (deg/s), GYRO Y (deg/s), GYRO Z (deg/s), EMG 1 (mV)
370.3704 Hz, 370.3704 Hz, 370.3704 Hz, 370.3704 Hz, 370.3704 Hz, 370.3704 Hz, 2148.1481 Hz
-0.9868164, 0.1728516, -0.2167969, -14.5731707, -8.5365858, 3.0487804, -0.0433051
-0.9873047, 0.168457, -0.2270508, -14.9390249, -7.9878049, 3.1097562, -0.0231632
-0.987793, 0.1601562, -0.2402344, -15.4878054, -7.7439027, 3.2317073, -0.0077211
-0.9882812, 0.1523438, -0.2460938, -15.8536587, -7.5609756, 3.5365853, 0.0057069
-0.9819336, 0.1342773, -0.2475586, -16.5853653, -7.2560978, 4.0853658, 0.0184634
-0.9794922, 0.1269531, -0.2416992, -17.3780499, -6.7682929, 3.7804878, 0.0224918
-0.9736328, 0.1235352, -0.237793, -17.0731716, -6.5243902, 3.7804878, 0.0030213
-0.9765625, 0.1318359, -0.2373047, -16.4634151, -6.2195125, 3.8414636, -0.0171206
-0.9799805, 0.1411133, -0.2470703, -16.0365849, -6.1585369, 3.8414636, -0.0302129
-0.9838867, 0.1386719, -0.2509766, -14.6341467, -7.0121951, 4.5731707, -0.0459907
-0.9790039, 0.1196289, -0.2431641, -14.1463413, -7.3170733, 5, -0.0493477
-0.9716797, 0.0874023, -0.2246094, -13.841464, -7.9268293, 5.4268293, -0.0527047
-0.9707031, 0.0800781, -0.2197266, -13.841464, -7.7439027, 5.3658538, -0.0715038
-0.9819336, 0.0820312, -0.2158203, -13.2926836, -6.890244, 4.6341462, -0.0906386
-0.9926758, 0.0893555, -0.2216797, -12.9268293, -6.280488, 4.8170733, -0.1077592
-1.0039062, 0.1269531, -0.2333984, -12.4390249, -4.8780489, 5.3048782, -0.119173
-1.0019531, 0.1352539, -0.2407227, -12.3170738, -4.6341462, 6.0975609, -0.1151446
-0.9931641, 0.1484375, -0.2485352, -12.8048782, -4.7560978, 6.6463418, -0.1144732
-0.9868164, 0.1469727, -0.2514648, -13.2317076, -5.0609756, 7.0731707, -0.1117876
-0.9755859, 0.1445312, -0.2441406, -13.4756098, -5, 7.1951222, -0.1225299
-0.9736328, 0.1391602, -0.2412109, -13.4756098, -5.3048782, 6.2195125, -0.1211872
-0.9746094, 0.1411133, -0.2368164, -13.2926836, -5.609756, 5.7317076, -0.1198444
-0.9804688, 0.1503906, -0.2412109, -13.5365858, -5.2439027, 5.2439027, -0.1198444
-0.9873047, 0.1601562, -0.2407227, -13.6585369, -5.2439027, 5, -0.1164874
-0.9868164, 0.1826172, -0.2456055, -14.4512196, -4.6341462, 4.8170733, -0.1131304
-0.9897461, 0.1879883, -0.2431641, -14.5731707, -4.8170733, 4.6951222, -0.1171588
-0.9838867, 0.1875, -0.2451172, -15.2439032, -4.6951222, 4.7560978, -0.1198444
-0.9790039, 0.1835938, -0.2490234, -16.0365849, -4.9390244, 4.6341462, -0.1104448
-0.9750977, 0.1777344, -0.2480469, -16.5853653, -4.8170733, 4.390244, -0.1064164
-0.9750977, 0.1733398, -0.2480469, -16.4024391, -5.1829271, 3.2926829, -0.0849317
-0.984375, 0.1557617, -0.2441406, -16.4024391, -5.4268293, 2.9878049, -0.076875
-0.984375, 0.1479492, -0.2402344, -15.7317076, -5.4878049, 3.2926829, -0.0688182
-0.9785156, 0.128418, -0.2368164, -15.7317076, -5.3658538, 3.1097562, -0.0728466
-0.9838867, 0.1254883, -0.2319336, -15.4268293, -4.5731707, 2.6829269, -0.06009
-0.9873047, 0.1279297, -0.2294922, -15.4268293, -4.390244, 2.3780489, -0.0513619
-0.9897461, 0.1347656, -0.2324219, -15.4268293, -4.1463413, 2.4390244, -0.0513619
-0.9916992, 0.144043, -0.237793, -15.1219511, -4.0243902, 2.3780489, -0.0386053
-0.980957, 0.1499023, -0.2426758, -15, -3.4146342, 2.9268293, -0.0345769
-0.9775391, 0.1484375, -0.2431641, -15.5487804, -3.4756098, 2.804878, -0.0339055
-0.9741211, 0.140625, -0.234375, -15.6707325, -3.5365853, 2.8658538, -0.027863
-0.9697266, 0.1298828, -0.2280273, -15.2439032, -4.0243902, 2.6219513, -0.0063783
-0.9614258, 0.1201172, -0.230957, -15.1829271, -4.0243902, 2.6829269, -0.0030213
-0.9628906, 0.1162109, -0.2333984, -14.6951227, -3.5365853, 2.2560976, -0.0164492
-0.9716797, 0.1137695, -0.2431641, -14.3292685, -3.4756098, 2.0731707, -0.0117494
-0.9785156, 0.1166992, -0.2529297, -13.5365858, -4.2682929, 2.5, -0.014435
-0.9799805, 0.109375, -0.2539062, -13.5365858, -4.2073174, 2.6219513, -0.0191348
-0.980957, 0.1010742, -0.25, -13.2926836, -4.0853658, 2.9268293, -0.021149
-0.9838867, 0.0961914, -0.2504883, -13.5365858, -4.1463413, 3.1707318, -0.0261845
-0.9858398, 0.0966797, -0.2514648, -12.7439032, -4.4512196, 3.1707318, -0.0396124
-0.9833984, 0.0991211, -0.2480469, -11.8902445, -4.6341462, 3.7195122, -0.0459907
-0.9848633, 0.0981445, -0.2490234, -11.8292685, -4.6951222, 4.5731707, -0.0486763
-0.9794922, 0.0976562, -0.246582, -12.0731707, -4.5731707, 4.6951222, -0.0728466
-0.9697266, 0.1025391, -0.2431641, -12.1341467, -4.0853658, 4.7560978, -0.0809033
-0.9682617, 0.1108398, -0.2412109, -11.8902445, -4.1463413, 4.6951222, -0.0731823
-0.9628906, 0.1293945, -0.2475586, -11.6463413, -4.3292685, 4.7560978, -0.0694896
-0.96875, 0.1396484, -0.2524414, -11.341464, -4.6951222, 5, -0.0762036
-0.9663086, 0.1430664, -0.2587891, -11.280488, -5.0609756, 5.0609756, -0.070161
-0.9648438, 0.1425781, -0.2529297, -11.7682934, -5.670732, 5.0609756, -0.0694896
-0.9672852, 0.1411133, -0.2485352, -11.8292685, -5.7926831, 4.8780489, -0.066804
-0.9760742, 0.1357422, -0.2407227, -11.5853662, -5.7317076, 4.2073174, -0.0741894
-0.9814453, 0.1323242, -0.2402344, -11.219512, -5.5487804, 4.5121951, -0.0809033
-0.9863281, 0.1333008, -0.2407227, -11.0365858, -5.609756, 4.4512196, -0.0755322
-0.9814453, 0.1318359, -0.2480469, -10.9146347, -5.2439027, 4.4512196, -0.0691539
-0.9824219, 0.1308594, -0.2485352, -10.9756098, -4.9390244, 4.5731707, -0.070161
-0.9824219, 0.1357422, -0.2509766, -11.341464, -4.8170733, 4.390244, -0.0869459
-0.9902344, 0.1503906, -0.2524414, -11.5853662, -4.8780489, 4.1463413, -0.0866102
-0.9829102, 0.1640625, -0.246582, -12.4390249, -4.7560978, 3.9024391, -0.0889601
-0.9829102, 0.1655273, -0.246582, -12.5, -4.8170733, 3.9634147, -0.0929885
-0.9765625, 0.1669922, -0.2524414, -12.3780489, -5.3048782, 3.8414636, -0.0903029
-0.9692383, 0.1577148, -0.2509766, -12.7439032, -5.609756, 3.5975611, -0.0795605
-0.9584961, 0.1489258, -0.2543945, -13.4146347, -6.280488, 3.5975611, -0.0758679
-0.9604492, 0.1459961, -0.2495117, -13.7195129, -6.7073174, 2.804878, -0.0765393
-0.9726562, 0.1337891, -0.2421875, -13.841464, -6.9512196, 2.5, -0.0594186
-0.9804688, 0.1313477, -0.2397461, -13.0487804, -7.3170733, 2.0731707, -0.0533761
-0.9882812, 0.1240234, -0.2402344, -12.8658543, -7.3780489, 2.0121951, -0.0446479
-0.9838867, 0.1152344, -0.2348633, -13.0487804, -7.2560978, 2.804878, -0.0339055
-0.9790039, 0.1020508, -0.2255859, -12.9268293, -6.9512196, 2.804878, -0.0298772
-0.9790039, 0.1098633, -0.2363281, -13.2317076, -5.9146342, 2.3780489, -0.0426337
-0.9785156, 0.1171875, -0.2426758, -13.0487804, -5.9756098, 2.3170731, -0.0426337
-0.9853516, 0.1362305, -0.2578125, -12.9878054, -5.7317076, 2.3780489, -0.035584
-0.980957, 0.1367188, -0.2695312, -13.1707315, -5.7926831, 2.9878049, -0.027863
-0.9794922, 0.1303711, -0.2714844, -13.9024391, -6.7073174, 3.1707318, -0.0275273
-0.9770508, 0.1240234, -0.2661133, -14.1463413, -7.3170733, 3.2317073, -0.011078
-0.9838867, 0.1245117, -0.2597656, -14.4512196, -7.6829271, 2.804878, -0.0090639
-0.9858398, 0.1210938, -0.2514648, -14.0243902, -8.0487804, 2.8658538, -0.0124208
-0.9863281, 0.1259766, -0.2460938, -13.780488, -8.1097565, 2.4390244, -0.0104067
-0.987793, 0.1225586, -0.2402344, -13.5365858, -8.2317076, 3.0487804, -0.0070497
-0.9882812, 0.1181641, -0.2446289, -13.4756098, -8.3536587, 2.9878049, 0.003357
-0.9887695, 0.1098633, -0.2490234, -12.7439032, -8.3536587, 2.5609756, 0.0003357
-0.9912109, 0.105957, -0.2490234, -12.7439032, -8.2926826, 3.1707318, -0.0010071
-0.9936523, 0.1088867, -0.2490234, -12.2560978, -8.4146347, 4.2073174, 0.0097353
-0.9916992, 0.1118164, -0.2475586, -11.7682934, -8.4146347, 4.4512196, 0.0104067
-0.9916992, 0.1166992, -0.2485352, -11.280488, -8.2926826, 4.3292685, -0.0030213
-0.9882812, 0.1181641, -0.2441406, -11.219512, -8.719512, 3.9024391, -0.0231632
-0.9931641, 0.121582, -0.230957, -11.5243902, -8.4756098, 3.9634147, -0.0285344
-0.9907227, 0.121582, -0.230957, -10.9756098, -7.8658538, 4.0243902, -0.0339055
-0.9794922, 0.1176758, -0.2207031, -10.7926836, -7.5, 4.2682929, -0.0406195
-0.9775391, 0.1210938, -0.2202148, -9.8170738, -6.9512196, 4.5121951, -0.0426337
-0.9609375, 0.1186523, -0.2207031, -9.5731707, -6.8292685, 4.6951222, -0.0271916
-0.9550781, 0.1186523, -0.2285156, -8.9024391, -6.5853658, 4.0243902, -0.0406195
-0.9589844, 0.1196289, -0.2285156, -8.1097565, -6.4634147, 3.7804878, -0.0681468
-0.9580078, 0.1152344, -0.230957, -7.1951222, -6.2195125, 4.1463413, -0.066804
-0.9516602, 0.1147461, -0.2338867, -5.9146342, -6.4024391, 4.8780489, -0.063447
-0.9477539, 0.1181641, -0.2363281, -5.3048782, -6.3414636, 4.6341462, -0.0715038
-0.9550781, 0.1245117, -0.2397461, -4.4512196, -6.7682929, 3.3536587, -0.0775463
-0.9746094, 0.1269531, -0.2460938, -3.8414636, -7.5609756, 2.8658538, -0.076875
-0.9814453, 0.1274414, -0.2495117, -3.0487804, -8.6585369, 2.7439024, -0.0889601
-0.987793, 0.1347656, -0.2514648, -2.804878, -8.780488, 2.6219513, -0.0889601
-0.9931641, 0.1357422, -0.2470703, -2.9268293, -8.9024391, 2.804878, -0.0856031
-1.0014648, 0.1347656, -0.2441406, -2.804878, -8.9634151, 3.2317073, -0.087953
-0.9931641, 0.1186523, -0.2475586, -2.5, -8.9634151, 3.4756098, -0.0896315
-0.9916992, 0.1108398, -0.2456055, -2.3170731, -9.0243902, 3.5975611, -0.0849317
-0.9765625, 0.0996094, -0.2421875, -1.5243902, -9.6341467, 3.7804878, -0.0923171
-0.9741211, 0.0947266, -0.2402344, -0.6097561, -9.4512196, 3.4146342, -0.0889601
-0.980957, 0.097168, -0.2490234, -0.2439024, -9.9390249, 3.6585367, -0.0829175
-0.9858398, 0.0981445, -0.2495117, 0.6097561, -9.7560978, 3.1707318, -0.0755322
-1, 0.1166992, -0.2568359, 1.0365853, -10.2439022, 3.4756098, -0.070161
-1, 0.121582, -0.2617188, 1.7073171, -10.9146347, 3.9024391, -0.0614328
-1.0063477, 0.1225586, -0.2680664, 2.0731707, -11.4634151, 4.0243902, -0.056733
-1.0004883, 0.1230469, -0.2646484, 2.1341465, -12.0121956, 4.390244, -0.0614328
-0.9824219, 0.1137695, -0.2490234, 2.1341465, -12.0121956, 4.390244, -0.06009
-0.9750977, 0.0981445, -0.2275391, 1.3414634, -11.5853662, 4.1463413, -0.0513619
-0.972168, 0.1030273, -0.21875, 1.402439, -11.0975609, 4.0853658, -0.056733
-0.9648438, 0.1157227, -0.2177734, 2.6219513, -10.9146347, 3.5975611, -0.0426337
-0.9707031, 0.1176758, -0.2197266, 4.3292685, -10.2439022, 3.4756098, -0.0365911
-0.9580078, 0.0961914, -0.2226562, 4.6341462, -10.4878054, 3.7804878, -0.0318914
-0.9536133, 0.0834961, -0.2182617, 4.8170733, -10.060976, 3.9634147, -0.0288701
-0.9462891, 0.09375, -0.2114258, 4.9390244, -9.3292685, 3.9634147, -0.0164492
-0.949707, 0.1069336, -0.2148438, 4.8780489, -8.4756098, 4.0243902, -0.0265202
-0.9589844, 0.1396484, -0.2290039, 4.9390244, -8.2926826, 4.2682929, -0.0382696
-0.9550781, 0.152832, -0.2431641, 4.4512196, -8.4756098, 4.6341462, -0.0231632
-0.9526367, 0.1567383, -0.2436523, 3.9024391, -8.9024391, 4.7560978, -0.0090639
-0.956543, 0.1630859, -0.2348633, 2.3780489, -9.8170738, 4.0853658, -0.011078
-0.9584961, 0.1567383, -0.2319336, 1.6463414, -10.1829271, 4.0853658, -0.0057069
-0.9638672, 0.1542969, -0.2226562, 0.4268293, -10.1219511, 3.8414636, 0.0070497
-0.9707031, 0.1538086, -0.2207031, -0.7317073, -10.060976, 3.5365853, -0.0070497
-0.96875, 0.1513672, -0.2299805, -1.1585366, -9.9390249, 3.1097562, -0.0164492
-0.9726562, 0.1542969, -0.2373047, -2.8658538, -9.2682924, 2.8658538, -0.017792
-0.9897461, 0.1669922, -0.2509766, -3.9634147, -9.0243902, 2.6219513, -0.0198062
-0.9985352, 0.1738281, -0.2539062, -5.7317076, -9.0243902, 2.4390244, -0.0292058
-1.0087891, 0.1708984, -0.2597656, -6.5853658, -9.2073174, 2.3780489, -0.0271916
-1.0053711, 0.1567383, -0.2583008, -6.8292685, -9.8780489, 2.1341465, -0.0392767
-0.9985352, 0.1445312, -0.2563477, -6.9512196, -10.1829271, 2.195122, -0.0530404
-0.9921875, 0.1147461, -0.25, -6.4024391, -10.8536587, 1.6463414, -0.0681468
-0.9931641, 0.1108398, -0.2485352, -6.280488, -11.0365858, 1.3414634, -0.0762036
-0.9960938, 0.1162109, -0.2519531, -5.9146342, -10.3658543, 0.6707317, -0.0755322
-1.0019531, 0.121582, -0.2573242, -5.9756098, -9.5731707, 0.7926829, -0.0758679
-1.0058594, 0.1333008, -0.2631836, -5.7317076, -9.6341467, 0.6707317, -0.0802319
-1.0063477, 0.1357422, -0.2719727, -5.4268293, -11.0975609, 1.097561, -0.0849317
-0.9838867, 0.1176758, -0.2905273, -5.3048782, -11.4024391, 1.3414634, -0.0755322
-0.9790039, 0.1030273, -0.2944336, -4.8780489, -12.3780489, 1.4634147, -0.0758679
-0.9794922, 0.0854492, -0.2919922, -4.7560978, -13.2926836, 1.097561, -0.1010452
-0.9814453, 0.0854492, -0.2802734, -5.1219511, -13.780488, 0.6707317, -0.1171588
-0.9838867, 0.0908203, -0.2768555, -5.1829271, -13.5975609, 0.6707317, -0.1131304
-0.9907227, 0.1201172, -0.269043, -6.0365853, -13.5365858, 0.7926829, -0.1104448
-0.9853516, 0.1362305, -0.2714844, -6.6463418, -13.4146347, 1.1585366, -0.0929885
-0.9736328, 0.1411133, -0.2719727, -7.1341467, -13.9634151, 1.8902439, -0.063447
-0.9580078, 0.1318359, -0.2734375, -6.890244, -15.2439032, 1.8902439, -0.0553902
-0.9375, 0.0991211, -0.2597656, -6.5853658, -15.7926836, 1.7682927, -0.0469978
-0.9389648, 0.0864258, -0.2485352, -6.2195125, -16.0365849, 1.0365853, -0.0305486
-0.9604492, 0.0844727, -0.2285156, -6.0975609, -15.8536587, 0.4878049, -0.0191348
-0.9780273, 0.0976562, -0.2182617, -6.0365853, -14.6341467, -0.1219512, -0.0218204
-1.0009766, 0.1240234, -0.2133789, -6.5243902, -13.5365858, 0.3658537, -0.0164492
-0.9980469, 0.1494141, -0.2236328, -7.2560978, -11.6463413, 0.8536586, -0.0077211
-0.9931641, 0.1572266, -0.2299805, -7.6829271, -11.0365858, 1.2195122, -0.0164492
-0.9799805, 0.1577148, -0.2529297, -8.6585369, -10.3658543, 1.402439, -0.0137636
-0.9741211, 0.1567383, -0.2578125, -8.6585369, -10.3048782, 0.9756098, -0.0184634
-0.9702148, 0.1347656, -0.2631836, -7.9878049, -10.9146347, 0.3048781, -0.0151064
-0.9663086, 0.1157227, -0.2587891, -6.5853658, -11.341464, 0, -0.0030213
-0.9633789, 0.0981445, -0.2285156, -6.1585369, -11.219512, -0.0609756, 0.0117494
-0.9633789, 0.1035156, -0.2084961, -6.0975609, -10, -0.5487805, 0.0157778
-0.9692383, 0.121582, -0.1962891, -6.2195125, -9.0243902, -0.6707317, 0.011078
-0.96875, 0.1298828, -0.2026367, -6.280488, -7.0731707, 0.2439024, 0.0265202
-0.9599609, 0.1430664, -0.2124023, -6.5853658, -6.3414636, 0.6097561, 0.0426337
-0.9536133, 0.140625, -0.2128906, -7.3170733, -5, 0.5487805, 0.0500191
-0.9555664, 0.1435547, -0.2119141, -7.3170733, -4.4512196, 0.0609756, 0.0453193
-0.9584961, 0.1450195, -0.2167969, -7.3170733, -3.4146342, -0.6707317, 0.0466621
-0.9550781, 0.1459961, -0.2226562, -7.2560978, -2.804878, -0.9146342, 0.0386053
-0.9584961, 0.1455078, -0.2416992, -7.9268293, -1.7682927, -1.1585366, 0.03122
-0.9599609, 0.144043, -0.2519531, -8.6585369, -1.6463414, -1.8292683, 0.0258488
-0.9697266, 0.1323242, -0.2666016, -8.4756098, -1.5853659, -1.7073171, -0.0063783
-0.9731445, 0.1206055, -0.2719727, -7.7439027, -1.9512196, -2.0731707, -0.0224918
-0.9672852, 0.0942383, -0.2700195, -7.8048782, -1.7682927, -1.8292683, -0.027863
-0.9697266, 0.0878906, -0.2670898, -7.5, -1.7073171, -2.3780489, -0.0318914
-0.9799805, 0.0947266, -0.265625, -7.4390244, -1.3414634, -2.2560976, -0.0392767
-0.9814453, 0.1240234, -0.2871094, -7.0731707, -0.6707317, -1.8292683, -0.0396124
-0.9814453, 0.1328125, -0.3046875, -6.9512196, -0.3658537, -1.5853659, -0.0604257
-0.9765625, 0.137207, -0.3398438, -6.7073174, -1.2195122, -0.8536586, -0.0822461
-0.9780273, 0.1313477, -0.3540039, -6.9512196, -2.195122, -0.9756098, -0.0862745
-0.9863281, 0.1259766, -0.3530273, -7.1341467, -3.5975611, -1.7073171, -0.0835889
-0.9912109, 0.1157227, -0.3427734, -7.3170733, -5.1829271, -1.402439, -0.0802319
-0.9995117, 0.105957, -0.3227539, -6.890244, -5.7317076, -1.1585366, -0.0809033
-0.9960938, 0.1000977, -0.3183594, -7.3170733, -5.670732, -0.9146342, -0.0772107
-0.996582, 0.1035156, -0.3071289, -7.3780489, -5.4268293, -1.0365853, -0.0825818
-0.9926758, 0.1132812, -0.3046875, -7.3780489, -5.3658538, -0.3048781, -0.076875
-0.984375, 0.1235352, -0.3037109, -7.3170733, -5.3048782, -0.2439024, -0.0775463
-0.972168, 0.1210938, -0.2988281, -6.5243902, -5.3048782, 0.6097561, -0.0741894
-0.9619141, 0.1240234, -0.2939453, -6.3414636, -4.9390244, 0.5487805, -0.0715038
-0.9633789, 0.1289062, -0.2739258, -6.4024391, -4.5731707, 0.3658537, -0.06009
-0.9619141, 0.1411133, -0.2602539, -6.7073174, -4.3292685, 0.0609756, -0.0594186
-0.965332, 0.1450195, -0.246582, -7.0121951, -2.9268293, -0.3658537, -0.0597543
-0.9599609, 0.1479492, -0.2446289, -7.6219516, -1.6463414, -0.3048781, -0.0486763
-0.9575195, 0.1469727, -0.2631836, -7.4390244, -0.9756098, -0.7317073, -0.0406195
-0.9614258, 0.1469727, -0.2758789, -7.0731707, 0, -0.9146342, -0.0271916
-0.9697266, 0.1386719, -0.3149414, -6.280488, 0.3658537, -1.0365853, -0.0140993
-0.9799805, 0.1337891, -0.3310547, -5.4268293, 0.6097561, -1.402439, -0.0097353
-1.0029297, 0.1279297, -0.347168, -5.1219511, 0.2439024, -1.3414634, -0.0077211
-1.027832, 0.1264648, -0.3349609, -5.0609756, -0.0609756, -1.2195122, 0.0073854
-1.027832, 0.1259766, -0.3325195, -5.1219511, 0.1219512, -1.097561, 0.0224918
-1.0297852, 0.1328125, -0.3173828, -5.4268293, 0.6707317, -0.7926829, 0.0124208
-1.0229492, 0.1347656, -0.3164062, -5.7317076, 1.4634147, -1.0365853, 0.0130922
-1.0141602, 0.1474609, -0.3256836, -5.9146342, 2.804878, -0.4268293, 0.0104067
-1.0092773, 0.1518555, -0.3393555, -5.3048782, 3.7804878, 0, 0.0218204
-1.0068359, 0.1542969, -0.378418, -4.6341462, 3.7804878, 0.0609756, 0.0224918
-1.0039062, 0.1469727, -0.3950195, -4.2073174, 3.0487804, 0.6707317, 0.0251774
-1.0112305, 0.1196289, -0.3911133, -4.0243902, 2.4390244, 0.6707317, 0.0288701
-1.0170898, 0.1088867, -0.378418, -4.3292685, 1.7682927, 0.6097561, 0.0238346
-1.0258789, 0.1147461, -0.3408203, -4.2682929, 2.195122, 0.4878049, 0.014435
-1.0336914, 0.1411133, -0.3144531, -3.6585367, 3.4146342, 1.1585366, 0.0010071
-1.0205078, 0.1435547, -0.3007812, -3.3536587, 4.2682929, 1.8902439, 0.0077211
-0.9902344, 0.1357422, -0.2900391, -2.1341465, 5.5487804, 2.7439024, 0.0140993
-0.9726562, 0.1293945, -0.2924805, -1.2804878, 6.890244, 2.5, 0.014435
-0.9560547, 0.1386719, -0.315918, 0.5487805, 9.0243902, 1.9512196, -0.0023499
-0.9619141, 0.1538086, -0.3374023, 3.3536587, 9.6951218, 1.1585366, -0.0083925
-0.9804688, 0.1557617, -0.3876953, 4.6951222, 9.8170738, 0.9756098, -0.0151064
-0.9926758, 0.1538086, -0.4057617, 6.0365853, 9.3292685, 0.7317073, -0.014435
-1.0249023, 0.1464844, -0.4282227, 6.0975609, 8.841464, 0.1829268, -0.011078
-1.0454102, 0.1484375, -0.4306641, 5.9146342, 8.2317076, -0.1219512, -0.0151064
-1.0795898, 0.1474609, -0.4140625, 5.1829271, 7.9878049, 0.4268293, -0.0275273
-1.0854492, 0.137207, -0.3925781, 4.6341462, 8.780488, 1.8292683, -0.0453193
-1.0727539, 0.1210938, -0.3823242, 4.6341462, 9.0243902, 2.4390244, -0.0540475
-1.0361328, 0.0976562, -0.3657227, 5.7926831, 10.3658543, 4.2073174, -0.0580758
-1.0180664, 0.0844727, -0.3637695, 6.8292685, 10.9146347, 4.6341462, -0.0621042
-0.9951172, 0.0771484, -0.3618164, 8.0487804, 12.7439032, 4.6341462, -0.0728466
-0.9951172, 0.0908203, -0.3535156, 8.5975609, 14.8170738, 4.2682929, -0.0809033
-1.0117188, 0.1303711, -0.3496094, 8.9634151, 15.9146347, 4.0853658, -0.0862745
-1.0205078, 0.1518555, -0.3427734, 8.0487804, 18.1707325, 4.7560978, -0.0835889
-1.0205078, 0.1806641, -0.3432617, 7.1951222, 19.6951218, 5.0609756, -0.0762036
-1.0170898, 0.1889648, -0.3505859, 5.3658538, 22.1951218, 5.4878049, -0.0856031
-1.0063477, 0.1933594, -0.3759766, 4.4512196, 23.0487804, 5.3658538, -0.0903029
-1.0141602, 0.1918945, -0.4018555, 2.6829269, 25.060976, 5.9146342, -0.0782177
-1.0170898, 0.1918945, -0.4106445, 1.8902439, 25.9756107, 5.609756, -0.0748608
-1.0390625, 0.1938477, -0.4257812, -0.0609756, 27.9268303, 4.8170733, -0.0755322
-1.0517578, 0.1948242, -0.4321289, -0.6707317, 28.6585369, 4.6341462, -0.0728466
-1.0688477, 0.1826172, -0.4487305, -0.6707317, 29.8780499, 4.5121951, -0.0641184
-1.0712891, 0.1694336, -0.4599609, -0.1829268, 30.6707325, 4.7560978, -0.0715038
-1.0722656, 0.1328125, -0.4663086, -0.1829268, 31.0975609, 5.0609756, -0.0664683
-1.0717773, 0.1259766, -0.4658203, -0.6097561, 32.9268303, 5.1829271, -0.0621042
-1.0791016, 0.1386719, -0.4638672, -0.8536586, 33.9024391, 5.1219511, -0.0597543
-1.0913086, 0.1518555, -0.4697266, -0.9756098, 35.6097565, 5.9756098, -0.0540475
-1.0844727, 0.171875, -0.4853516, -1.4634147, 36.4634171, 6.6463418, -0.0386053
-1.0673828, 0.1791992, -0.4926758, -1.7073171, 37.9268303, 7.3780489, -0.0379339
-1.0600586, 0.1767578, -0.4941406, -1.8292683, 38.1707344, 7.6219516, -0.0285344
-1.0551758, 0.1699219, -0.484375, -1.402439, 39.0853653, 7.5, -0.0258488
-1.0576172, 0.1665039, -0.4785156, -1.2195122, 40.5487823, 7.3170733, -0.0285344
-1.065918, 0.1889648, -0.4731445, -1.0365853, 41.5853653, 7.2560978, -0.0164492
-1.0688477, 0.2021484, -0.4736328, -1.2195122, 43.9024391, 7.3170733, 0.0016785
-1.0673828, 0.2177734, -0.4941406, -1.4634147, 44.6951218, 7.6219516, -0.0003357
-1.065918, 0.2133789, -0.5029297, -0.9146342, 45.6707344, 7.6219516, -0.021149
-1.059082, 0.1821289, -0.5209961, -0.8536586, 46.1585388, 7.9878049, -0.0251774
-1.0566406, 0.1645508, -0.5195312, -1.2804878, 46.4634171, 7.9268293, -0.0171206
-1.0693359, 0.1484375, -0.5136719, -1.402439, 46.8902435, 7.9878049, -0.0050355
-1.0727539, 0.1542969, -0.5146484, -0.7926829, 48.841465, 8.2317076, -0.0016785
-1.0673828, 0.1640625, -0.5175781, -0.4268293, 49.5121956, 8.4756098, -0.0016785
-1.0551758, 0.1694336, -0.5341797, 0.3658537, 51.4024391, 9.4512196, 0.0023499
-1.0454102, 0.168457, -0.5463867, 2.0731707, 51.9512215, 10.3658543, 0.0077211
-1.0258789, 0.1494141, -0.565918, 3.1097562, 52.3780518, 10.6707315, 0.0040284
-1.0249023, 0.140625, -0.5625, 3.7804878, 52.2560997, 10.4268293, -0.0184634
-1.0356445, 0.1303711, -0.5385742, 4.2073174, 52.4390259, 10.8536587, -0.0208133
-1.0366211, 0.1318359, -0.5200195, 6.1585369, 53.5975609, 12.0731707, -0.0251774
-1.0239258, 0.1191406, -0.4829102, 6.7682929, 54.6341476, 12.560976, -0.0302129
-1.0083008, 0.1162109, -0.4692383, 8.9024391, 57.0121956, 13.5975609, -0.0328985
-0.9829102, 0.1210938, -0.4633789, 9.9390249, 58.4146347, 14.0853662, -0.0476692
-0.9643555, 0.140625, -0.4853516, 11.8902445, 61.4024391, 14.7560978, -0.0614328
-0.9663086, 0.1518555, -0.5048828, 12.6829271, 62.6219521, 14.6341467, -0.0835889
-0.9853516, 0.1811523, -0.5209961, 13.7195129, 64.4512177, 14.4512196, -0.0798962
-0.9912109, 0.1894531, -0.5205078, 13.5365858, 66.5243912, 14.5731707, -0.0775463
-0.9916992, 0.1894531, -0.5048828, 13.4146347, 67.5, 14.5731707, -0.0849317
-0.9790039, 0.1806641, -0.4960938, 13.9024391, 70.18293, 14.8780489, -0.0929885
-0.949707, 0.1484375, -0.5009766, 14.5731707, 71.5853653, 15, -0.0889601
-0.9335938, 0.1376953, -0.5073242, 16.5853653, 74.3292694, 14.3902445, -0.102388
-0.934082, 0.1420898, -0.5444336, 17.9268303, 75.7926865, 13.6585369, -0.1044022
-0.9633789, 0.1708984, -0.5791016, 19.939024, 78.0487823, 12.9268293, -0.1114519
-0.9814453, 0.1850586, -0.5839844, 20.6097565, 79.146347, 12.8048782, -0.105745
-0.9980469, 0.2050781, -0.5722656, 20.4268303, 80.8536606, 13.2317076, -0.1010452
-0.9912109, 0.2119141, -0.5595703, 20.3048782, 81.5853653, 13.7195129, -0.0923171
-0.9599609, 0.2045898, -0.5439453, 20.1219521, 83.7804871, 14.4512196, -0.0876173
-0.9384766, 0.1870117, -0.5439453, 20.4878044, 85.4268341, 14.8170738, -0.0889601
-0.9018555, 0.1508789, -0.5605469, 21.8902435, 86.3414688, 14.5121956, -0.0782177
-0.9003906, 0.1357422, -0.5766602, 25, 87.6219559, 12.8658543, -0.06009
-0.9306641, 0.125, -0.6054688, 26.3414631, 87.8658524, 11.8292685, -0.0433051
-0.9580078, 0.1293945, -0.6147461, 28.0487804, 89.8170776, 11.0975609, -0.0419623
-0.9916992, 0.1489258, -0.6142578, 28.1707325, 91.0975647, 10.7317076, -0.0419623
-0.9897461, 0.1625977, -0.5952148, 27.2560978, 93.5365906, 11.4024391, -0.0459907
-0.9692383, 0.1606445, -0.5825195, 26.6463413, 94.8780518, 11.8292685, -0.0271916
-0.9233398, 0.168457, -0.5527344, 26.0365868, 98.8414688, 11.6463413, -0.0164492
-0.9042969, 0.184082, -0.5473633, 25.9756107, 100.7926865, 11.219512, -0.0221561
-0.8706055, 0.2080078, -0.5527344, 26.3414631, 104.5121994, 9.8170738, -0.0083925
-0.8623047, 0.2197266, -0.5649414, 25.4878063, 107.5609818, 7.6219516, 0.0003357
-0.8588867, 0.2338867, -0.5986328, 24.8170738, 108.9634171, 6.3414636, 0.0006714
-0.8691406, 0.2368164, -0.621582, 23.9634151, 111.2804871, 4.3292685, 0.0016785
-0.8945312, 0.2324219, -0.6650391, 23.2926826, 112.1951218, 3.5365853, 0.0157778
-0.9101562, 0.2265625, -0.6757812, 21.8902435, 113.1707306, 2.1341465, 0.0070497
-0.9389648, 0.2133789, -0.6914062, 20.6097565, 113.5975647, 1.5243902, 0.003357
-0.9501953, 0.1894531, -0.6987305, 19.0243912, 114.6341476, 1.402439, 0.0030213
-0.9467773, 0.1669922, -0.6962891, 18.4756107, 115.18293, 1.8902439, -0.0023499
-0.9282227, 0.128418, -0.6977539, 17.2560978, 116.4634171, 2.3780489, -0.0090639
-0.9204102, 0.1181641, -0.7036133, 16.8902435, 117.0731735, 2.6219513, -0.0130922
-0.9155273, 0.1435547, -0.7387695, 17.0121956, 119.5121994, 2.6829269, -0.017792
-0.9179688, 0.1508789, -0.7514648, 16.6463413, 119.9390259, 2.7439024, -0.0406195
-0.9257812, 0.1513672, -0.7724609, 15.4878054, 119.7561035, 2.8658538, -0.0500191
-0.9287109, 0.1303711, -0.7729492, 13.2926836, 119.6341476, 3.2926829, -0.0621042
-0.9384766, 0.0942383, -0.7617188, 13.1097565, 119.7561035, 3.4756098, -0.0721752
-0.9423828, 0.0922852, -0.7558594, 13.4756098, 119.7561035, 3.3536587, -0.0721752
-0.9516602, 0.1308594, -0.7739258, 13.780488, 120.36586, 3.8414636, -0.0674754
-0.9589844, 0.1538086, -0.7802734, 13.1707315, 121.0975647, 5.1219511, -0.0829175
-0.953125, 0.1484375, -0.7817383, 12.560976, 120.6707382, 5.9756098, -0.0903029
-0.9296875, 0.109375, -0.7558594, 12.2560978, 120.36586, 6.890244, -0.0815747
-0.9174805, 0.0913086, -0.753418, 12.3170738, 120.3048782, 6.8292685, -0.0688182
-0.9135742, 0.0678711, -0.7543945, 13.5975609, 120.7317123, 6.9512196, -0.0563973
-0.9116211, 0.0610352, -0.7641602, 15.4268293, 122.0731735, 6.890244, -0.0513619
-0.9052734, 0.0620117, -0.7724609, 16.0975609, 122.1341476, 7.0121951, -0.0527047
-0.9101562, 0.081543, -0.7744141, 16.7073174, 123.1707382, 7.7439027, -0.056733
-0.9169922, 0.1254883, -0.7768555, 17.0731716, 123.6585388, 8.2317076, -0.063447
-0.9130859, 0.1455078, -0.7905273, 17.5, 124.6951218, 8.719512, -0.056733
-0.8974609, 0.1713867, -0.7958984, 17.7439022, 124.8170776, 9.1463413, -0.0748608
-0.8813477, 0.1767578, -0.7661133, 17.8048782, 125.18293, 8.9024391, -0.0674754
-0.8725586, 0.1728516, -0.7509766, 17.6829281, 125.6097565, 8.2317076, -0.0574044
-0.8574219, 0.1572266, -0.7568359, 17.6829281, 126.7682953, 7.0731707, -0.070161
-0.8496094, 0.1557617, -0.7788086, 18.2317085, 127.8048782, 5.9146342, -0.0950027
-0.8520508, 0.1772461, -0.8349609, 17.9878044, 129.146347, 5.0609756, -0.0986954
-0.8588867, 0.1821289, -0.8496094, 16.0975609, 130.6097565, 4.9390244, -0.1292439
-0.8842773, 0.1782227, -0.8295898, 14.5731707, 130.9756165, 4.9390244, -0.148043
-0.890625, 0.1723633, -0.8051758, 11.7682934, 131.0365906, 4.5731707, -0.1393149
-0.8696289, 0.168457, -0.7744141, 10.9756098, 131.8292694, 4.390244, -0.1138018
-0.8466797, 0.1665039, -0.7861328, 9.6951218, 133.6585388, 3.6585367, -0.0862745
-0.8139648, 0.1425781, -0.8261719, 9.9390249, 134.5731812, 3.2317073, -0.0406195
-0.8066406, 0.1308594, -0.8588867, 9.7560978, 135.3048859, 2.3170731, -0.014435
-0.8168945, 0.1269531, -0.8710938, 9.2073174, 135.1219482, 1.8902439, -0.0097353
-0.8491211, 0.1240234, -0.8979492, 8.9634151, 135.2439117, 1.0365853, 0.0050355
-0.8662109, 0.1220703, -0.8989258, 8.4756098, 135.0609741, 1.2195122, 0.0154421
-0.8950195, 0.1191406, -0.8847656, 6.7073174, 135.1219482, 1.9512196, 0.0204776
-0.9003906, 0.1259766, -0.8725586, 3.9634147, 135.7926788, 2.7439024, 0.027863
-0.8837891, 0.144043, -0.8588867, 2.6829269, 136.5853729, 2.9268293, 0.0426337
-0.8613281, 0.1479492, -0.8632812, 1.0365853, 137.9878082, 3.8414636, 0.0365911
-0.8134766, 0.1435547, -0.878418, 0.9146342, 138.4756165, 3.9024391, 0.0339055
-0.8012695, 0.1396484, -0.8779297, -0.0609756, 139.5121918, 3.2317073, 0.0258488
-0.7944336, 0.1142578, -0.8500977, -0.8536586, 140.0609741, 2.804878, 0.0184634
-0.7895508, 0.1005859, -0.8242188, -1.2804878, 141.2804871, 3.0487804, 0.0127565
-0.7885742, 0.0908203, -0.8266602, -1.3414634, 142.0121918, 2.5609756, 0.0060426
-0.777832, 0.0522461, -0.8691406, -0.3658537, 143.3536682, 2.6829269, -0.0043641
-0.7797852, 0.0400391, -0.894043, 0.3048781, 143.5975647, 2.9878049, -0.0030213
-0.809082, 0.0219727, -0.9248047, 1.1585366, 143.7195129, 3.6585367, -0.0171206
-0.8212891, 0.0219727, -0.9418945, 2.0121951, 143.4756165, 4.6951222, -0.0332341
-0.8535156, 0.046875, -0.9423828, 2.195122, 143.4146423, 5.0609756, -0.06009
-0.8686523, 0.0703125, -0.9326172, 0.7317073, 143.7195129, 6.3414636, -0.0641184
-0.8696289, 0.1162109, -0.8979492, -0.3658537, 144.3292694, 6.890244, -0.0681468
-0.8486328, 0.1362305, -0.887207, -3.0487804, 145.7926788, 7.8658538, -0.0704967
-0.7885742, 0.1435547, -0.9165039, -3.4756098, 146.4024353, 7.9878049, -0.0755322
-0.7348633, 0.1201172, -0.9677734, -3.4146342, 146.7073212, 8.2317076, -0.0829175
-0.7304688, 0.1079102, -0.9785156, -3.3536587, 146.2195129, 7.5, -0.0943313
-0.7504883, 0.0844727, -0.9765625, -2.5609756, 144.6341553, 5.609756, -0.1050736
-0.777832, 0.0854492, -0.9619141, -2.5, 144.146347, 4.7560978, -0.105745
-0.8212891, 0.1015625, -0.9438477, -2.6829269, 143.9024353, 4.1463413, -0.1050736
-0.8300781, 0.1152344, -0.9516602, -3.7195122, 144.7561035, 5.1829271, -0.1050736
-0.8198242, 0.137207, -0.972168, -4.2682929, 145.0609741, 5.7926831, -0.0970169
-0.8051758, 0.1425781, -0.9716797, -5.9146342, 145.4878082, 6.280488, -0.0872816
-0.7734375, 0.1337891, -0.9711914, -6.890244, 145.5487823, 6.0365853, -0.0997024
-0.7587891, 0.1191406, -0.9667969, -7.8658538, 144.5731812, 5.4878049, -0.0990311
-0.7392578, 0.0708008, -0.9799805, -7.9878049, 144.2073212, 5.0609756, -0.0822461
-0.7285156, 0.019043, -0.9990234, -7.6219516, 143.4146423, 5.1829271, -0.0731823
-0.7353516, 0.0068359, -1.0009766, -7.2560978, 142.9878082, 5.3048782, -0.0594186
-0.7583008, 0.0092773, -0.9838867, -6.4634147, 142.2561035, 5.9146342, -0.0392767
-0.7695312, 0.0302734, -0.9765625, -6.2195125, 142.1951294, 6.280488, -0.0379339
-0.78125, 0.0922852, -0.9799805, -6.4634147, 142.6219482, 6.890244, -0.0315557
-0.7749023, 0.1181641, -0.9931641, -6.9512196, 143.7195129, 7.6829271, -0.0228275
-0.7490234, 0.1567383, -1.0078125, -7.7439027, 143.7195129, 7.9268293, -0.017792
-0.7382812, 0.1630859, -1.0078125, -8.5365858, 142.6219482, 7.6829271, -0.0164492
-0.7045898, 0.1313477, -1.0302734, -8.2317076, 141.8902435, 6.9512196, -0.0057069
-0.6958008, 0.0952148, -1.0493164, -7.8658538, 140.7317047, 5.1829271, -0.0046998
-0.7021484, 0.0239258, -1.0537109, -7.8658538, 139.9390259, 5.2439027, -0.0003357
-0.7236328, -0.0151367, -1.0175781, -6.890244, 138.9024353, 5.3658538, 0.0050355
-0.7333984, -0.0092773, -1.0058594, -6.4634147, 138.2926788, 5.5487804, 0.0157778
-0.7539062, 0.0551758, -0.9951172, -6.0365853, 138.6585388, 6.0365853, 0.0077211
-0.7470703, 0.0952148, -0.9951172, -6.8292685, 139.5121918, 6.7682929, 0.0043641
-0.7128906, 0.1640625, -0.9848633, -9.5731707, 141.4024353, 8.1097565, 0.0050355
-0.6860352, 0.1870117, -0.9780273, -12.8658543, 142.5, 8.780488, 0.0117494
-0.6206055, 0.2036133, -0.972168, -14.6951227, 142.5609741, 8.4756098, 0.0130922
-0.5839844, 0.1923828, -0.9790039, -15.7317076, 142.6829376, 6.4634147, 0.0231632
-0.5517578, 0.1279297, -0.9970703, -15.6707325, 142.8048859, 5.1219511, 0.014435
-0.5537109, 0.0869141, -0.9960938, -15.5487804, 143.1097565, 3.2317073, -0.0090639
-0.5908203, 0.0327148, -0.9594727, -15.3658543, 142.9878082, 2.3170731, -0.0057069
-0.6401367, 0.0546875, -0.9365234, -15.2439032, 144.0243988, 1.097561, -0.0070497
-0.6547852, 0.0917969, -0.9404297, -15.7926836, 145.5487823, 1.402439, -0.0164492
-0.6455078, 0.152832, -0.9819336, -17.1951218, 148.5975647, 2.804878, -0.014435
-0.6240234, 0.1591797, -1.012207, -18.0487804, 149.4512177, 3.5365853, -0.017792
-0.5810547, 0.1191406, -1.0507812, -18.7195129, 149.5731812, 3.4756098, -0.0406195
-0.5761719, 0.0869141, -1.0512695, -18.2317085, 148.6585388, 1.7073171, -0.0574044
-0.5981445, 0.0395508, -1.043457, -17.3170738, 148.2926788, 0.7317073, -0.0574044
-0.612793, 0.0302734, -1.0532227, -15.7926836, 148.0487823, 0, -0.0594186
-0.6376953, 0.0180664, -1.0825195, -15.060976, 148.2317047, 0.3658537, -0.0580758
-0.6445312, 0.0161133, -1.0810547, -15.5487804, 147.2561035, 1.8292683, -0.0614328
-0.6333008, 0.0263672, -1.0361328, -16.5853653, 146.8902435, 2.4390244, -0.0715038
-0.5834961, 0.0507812, -0.9985352, -18.5975609, 146.5243988, 3.7804878, -0.0809033
-0.5507812, 0.0654297, -1.0068359, -19.2073174, 147.0121918, 4.3292685, -0.0802319
-0.5019531, 0.0913086, -1.0698242, -19.6341476, 148.7804871, 4.6951222, -0.0782177
-0.4960938, 0.1005859, -1.0986328, -19.8780499, 148.5975647, 4.4512196, -0.0758679
-0.5131836, 0.0908203, -1.1274414, -20, 147.7439117, 4.1463413, -0.0704967
-0.5336914, 0.0771484, -1.1171875, -20.3048782, 146.0365906, 3.4146342, -0.0715038
-0.5717773, 0.0444336, -1.0771484, -20.4268303, 145, 3.2317073, -0.076875
-0.5859375, 0.0356445, -1.0595703, -20.6707325, 143.9634247, 3.4146342, -0.0782177
-0.5766602, 0.0429688, -1.0444336, -21.4024391, 144.0243988, 3.7195122, -0.0762036
-0.5610352, 0.0571289, -1.0395508, -22.9878063, 145.0609741, 5.1829271, -0.0809033
-0.515625, 0.0942383, -1.0170898, -23.9024391, 145.6707306, 5.9756098, -0.0822461
-0.4628906, 0.1054688, -1.0532227, -24.8780499, 145.9146423, 6.0975609, -0.0755322
-0.4335938, 0.09375, -1.1000977, -24.1463413, 145.8536682, 5.670732, -0.0775463
-0.4350586, 0.0498047, -1.1650391, -22.2560978, 144.8170776, 4.2682929, -0.0755322
-0.4604492, 0.0332031, -1.1635742, -21.2195129, 142.4390259, 3.2926829, -0.066804
-0.5390625, 0.0175781, -1.1083984, -20.7317085, 141.0365906, 2.9268293, -0.06009
-0.5664062, 0.0180664, -1.0791016, -20.5487804, 139.6341553, 3.1707318, -0.0661326
-0.581543, 0.0493164, -1.0410156, -20.8536587, 139.9390259, 3.7195122, -0.0547189
-0.5585938, 0.0673828, -1.0385742, -22.6829281, 141.1585388, 6.0975609, -0.0486763
-0.4790039, 0.1000977, -1.0395508, -23.8414631, 141.8902435, 6.890244, -0.0392767
-0.3964844, 0.1210938, -1.0595703, -25.6707325, 143.4756165, 6.9512196, -0.0251774
-0.3666992, 0.1162109, -1.0839844, -26.4024391, 143.5365906, 6.7073174, -0.0191348
-0.340332, 0.0844727, -1.1435547, -25.9756107, 143.4146423, 5.0609756, -0.0339055
-0.3588867, 0.065918, -1.1533203, -25.2439022, 143.2317047, 4.2682929, -0.0339055
-0.4316406, 0.0371094, -1.1303711, -24.0243912, 141.3414612, 2.804878, -0.0339055
-0.4726562, 0.03125, -1.1000977, -23.8414631, 139.3902435, 1.7682927, -0.0315557
-0.5175781, 0.0483398, -1.0664062, -23.9634151, 139.0853729, 1.9512196, -0.0325628
-0.5146484, 0.0678711, -1.0639648, -25.1219521, 139.7561035, 4.0243902, -0.0231632
-0.453125, 0.1166992, -1.0810547, -25.9756107, 140.4878082, 5.4268293, -0.0204776
-0.4086914, 0.1293945, -1.0703125, -27.3170738, 140.9756165, 6.0975609, -0.0305486
-0.3349609, 0.1259766, -1.0429688, -27.5, 141.2195129, 5.2439027, -0.0325628
-0.2861328, 0.0957031, -1.0610352, -26.0365868, 141.2195129, 2.3780489, -0.0369268
-0.2807617, 0.0678711, -1.0732422, -24.5121956, 141.2804871, 1.2195122, -0.0275273
-0.3046875, 0.015625, -1.065918, -21.9512196, 140.7317047, -0.7317073, -0.0265202
-0.3237305, -0.0053711, -1.0444336, -21.1585369, 140.5487823, -1.097561, -0.011078
-0.3637695, -0.0019531, -1.0107422, -20.4268303, 140.2439117, -1.5853659, 0.0003357
-0.3662109, 0.019043, -1.0043945, -19.2073174, 142.1951294, -0.1829268, 0.0093996
-0.3481445, 0.0654297, -1.0151367, -18.9024391, 143.2317047, 0.6707317, 0.0181277
-0.324707, 0.0849609, -1.0244141, -19.0853672, 145.0609741, 1.4634147, 0.0050355
-0.2739258, 0.0898438, -1.0556641, -18.780489, 144.8780518, 1.5243902, -0.0043641
-0.2495117, 0.0722656, -1.0756836, -16.5853653, 144.2073212, 0.7317073, -0.0057069
-0.2265625, 0.0229492, -1.1230469, -15.4268293, 143.8414612, 0.3048781, -0.017792
-0.2670898, 0.0024414, -1.109375, -14.6341467, 142.86586, -0.9146342, -0.0285344
-0.2988281, 0.0136719, -1.0820312, -14.8780489, 142.3170776, -1.2804878, -0.0386053
-0.3286133, 0.0742188, -1.0585938, -16.3414631, 142.1341553, -0.3048781, -0.0540475
-0.3183594, 0.0957031, -1.0615234, -17.1341476, 142.7439117, 0.4878049, -0.0715038
-0.2695312, 0.1098633, -1.0825195, -18.4146347, 143.5975647, 1.8902439, -0.0741894
-0.2285156, 0.0908203, -1.1054688, -19.3902435, 142.86586, 1.8292683, -0.0825818
-0.1635742, 0.0395508, -1.1616211, -19.4512196, 142.6219482, 1.1585366, -0.0869459
-0.15625, 0.0205078, -1.1674805, -20.6097565, 141.4634247, 1.3414634, -0.0795605
-0.1762695, 0.0268555, -1.1166992, -21.3414631, 141.2195129, 1.6463414, -0.0795605
-0.1967773, 0.0419922, -1.0834961, -22.7439022, 139.6951294, 1.4634147, -0.0929885
-0.2231445, 0.0810547, -1.0688477, -22.6829281, 139.5731812, 1.402439, -0.0856031
-0.2128906, 0.0913086, -1.1118164, -22.0731716, 140.2439117, 2.2560976, -0.076875
-0.2001953, 0.0859375, -1.1293945, -21.7682934, 139.9390259, 2.5609756, -0.0775463
-0.1728516, 0.0688477, -1.112793, -22.1341476, 138.1707306, 2.5609756, -0.0762036
-0.1699219, 0.059082, -1.090332, -22.6219521, 137.0731812, 2.3170731, -0.0621042
-0.1455078, 0.0351562, -1.0615234, -22.0121956, 136.0975647, 1.5853659, -0.0513619
-0.1357422, 0.0161133, -1.0673828, -18.3536587, 136.5853729, 1.4634147, -0.0503548
-0.1176758, -0.0180664, -1.0908203, -17.0121956, 136.8902435, 1.4634147, -0.042298
-0.1186523, -0.0214844, -1.0883789, -16.1585369, 135.9756165, 3.5975611, -0.0342412
-0.1166992, -0.0112305, -1.0615234, -16.1585369, 135.7317047, 4.6951222, -0.0305486
-0.1123047, -0.0058594, -1.0424805, -15.4268293, 136.0365906, 5.5487804, -0.0285344
-0.1049805, 0.0161133, -1.0380859, -14.8170738, 136.2195129, 5.4878049, -0.0231632
-0.1000977, 0.0761719, -1.0634766, -14.1463413, 137.3780518, 6.4024391, -0.0137636
-0.0932617, 0.1108398, -1.074707, -14.5121956, 137.86586, 7.1341467, -0.0057069
-0.0625, 0.1420898, -1.0717773, -16.5243912, 138.0487823, 8.2317076, 0.0063783
-0.0375977, 0.1269531, -1.0634766, -17.1951218, 137.6219482, 7.8048782, -0.0016785
0.0014648, 0.0678711, -1.059082, -16.8902435, 136.2195129, 5.609756, 0.0050355
0.0102539, 0.0424805, -1.0541992, -14.7560978, 135.7926788, 3.4756098, 0.0077211
0.0087891, 0.0131836, -1.0219727, -14.2073174, 136.2804871, 3.2926829, 0.0073854
0.0053711, 0.0136719, -1.0048828, -13.5365858, 137.6219482, 3.2317073, -0.0003357
-0.0019531, 0.027832, -1.0014648, -13.5365858, 138.4756165, 3.2317073, 0.011078
-0.0014648, 0.0512695, -1.0161133, -13.2926836, 140.0609741, 3.7804878, 0.021149
0.0068359, 0.1079102, -1.0629883, -13.3536587, 140.6097565, 4.390244, 0.0090639
0.0209961, 0.1381836, -1.0844727, -15.2439032, 141.2804871, 4.8780489, 0.014435
0.0336914, 0.1357422, -1.0908203, -16.5853653, 141.3414612, 4.3292685, 0.0130922
0.0454102, 0.0966797, -1.0898438, -17.3780499, 140.6707306, 3.4756098, 0.0077211
0.0498047, 0.059082, -1.0888672, -16.5853653, 140.6097565, 2.6829269, -0.0003357
0.0419922, -0.0161133, -1.1005859, -13.9024391, 139.7561035, 1.7073171, -0.0083925
0.0292969, -0.0429688, -1.0976562, -11.0365858, 138.7195129, 0.9756098, -0.0305486
-0.0131836, -0.0322266, -1.0561523, -10.8536587, 138.3536682, 1.402439, -0.0493477
-0.0249023, 0.0009766, -1.027832, -11.6463413, 138.8414612, 3.9024391, -0.0674754
0.0004883, 0.0737305, -1.0375977, -11.5243902, 140.0609741, 5.4268293, -0.0862745
0.0361328, 0.0839844, -1.0810547, -9.3292685, 142.1341553, 7.6219516, -0.1037308
0.1040039, 0.0390625, -1.1640625, -8.0487804, 142.1341553, 8.0487804, -0.0956741
0.109375, -0.0112305, -1.1503906, -7.1951222, 140.7317047, 6.5243902, -0.0862745
0.0795898, -0.0161133, -1.1157227, -7.5, 139.2073212, 5.7317076, -0.0929885
0.0107422, 0.027832, -1.0742188, -6.7682929, 138.2317047, 5.5487804, -0.0829175
-0.0024414, 0.0664062, -1.0834961, -6.2195125, 137.9878082, 6.280488, -0.0809033
0.0068359, 0.1259766, -1.1157227, -7.0731707, 137.9878082, 8.841464, -0.0731823
0.027832, 0.1386719, -1.1196289, -8.719512, 136.2195129, 10, -0.0651255
0.0942383, 0.1044922, -1.0996094, -9.3292685, 134.5121918, 9.4512196, -0.056733
0.1103516, 0.0761719, -1.0849609, -9.3902445, 130.9756165, 7.0121951, -0.0439765
0.1279297, 0.0454102, -1.0800781, -8.6585369, 129.6951294, 6.4634147, -0.0406195
0.1269531, 0.046875, -1.0869141, -6.2195125, 129.3292694, 6.2195125, -0.0298772
0.1186523, 0.0664062, -1.0537109, -6.2195125, 129.4512177, 6.7073174, -0.0412909
0.1225586, 0.0791016, -0.9604492, -8.1097565, 129.2682953, 7.3780489, -0.038941
0.1333008, 0.0805664, -0.9150391, -8.9024391, 129.2682953, 7.1341467, -0.0379339
0.1884766, 0.0761719, -0.8798828, -8.9024391, 131.0365906, 7.1951222, -0.0359197
0.2231445, 0.0800781, -0.8925781, -8.1097565, 132.1951294, 7.5609756, -0.0386053
0.2993164, 0.0820312, -0.9584961, -7.5, 135.5487823, 8.719512, -0.0258488
0.315918, 0.0830078, -0.9863281, -8.0487804, 138.1097565, 7.6829271, -0.0315557
0.2963867, 0.0791016, -1.0317383, -7.9878049, 138.6585388, 6.3414636, -0.0426337
0.2661133, 0.0693359, -1.0571289, -6.280488, 138.5365906, 4.2682929, -0.0332341
0.1772461, 0.0444336, -1.1025391, -5, 138.2317047, 4.0243902, -0.0308843
0.125, 0.0322266, -1.1005859, -4.5121951, 137.0731812, 5.1829271, -0.0275273
0.0722656, 0.0205078, -1.0209961, -5.1829271, 135.8536682, 6.3414636, -0.0124208
0.0805664, 0.0004883, -0.9521484, -5.4268293, 133.9634247, 8.3536587, -0.0043641
0.112793, -0.0043945, -0.9467773, -4.390244, 133.7195129, 9.6951218, -0.017792
0.2075195, 0.0141602, -0.9702148, -1.6463414, 134.8780518, 12.560976, -0.0164492
0.2460938, 0.0341797, -0.9824219, -1.2195122, 135.5487823, 13.5365858, -0.0164492
0.2919922, 0.0893555, -0.9985352, -1.097561, 136.4634247, 13.780488, -0.014435
0.2954102, 0.1157227, -1.0004883, -1.5853659, 137.0121918, 13.1097565, -0.0124208
0.2817383, 0.1484375, -1.0117188, -1.7073171, 137.0731812, 12.3780489, -0.0016785
0.2680664, 0.1401367, -1.03125, -1.402439, 136.0975647, 10.9146347, -0.0137636
0.2373047, 0.0986328, -1.0395508, -1.3414634, 135.7317047, 10, -0.0221561
0.2211914, 0.0766602, -1.0214844, -2.4390244, 133.7804871, 9.0853662, -0.017792
0.203125, 0.0234375, -0.9477539, -2.8658538, 132.2561035, 9.0243902, -0.0191348
0.2294922, -0.0087891, -0.9267578, -0.9756098, 131.2804871, 10.3658543, -0.0181277
0.2563477, -0.0063477, -0.9526367, 0.6707317, 131.1585388, 11.1585369, -0.0248417
0.2880859, 0.015625, -1.0234375, 3.4756098, 132.4390259, 12.9268293, -0.0298772
0.284668, 0.0234375, -1.0556641, 3.9024391, 132.5609741, 13.1097565, -0.0459907
0.2490234, 0.0556641, -1.0776367, 1.7682927, 132.4390259, 14.0853662, -0.0433051
0.2275391, 0.0703125, -1.0561523, -1.1585366, 130.7926788, 15.3658543, -0.0426337
0.2026367, 0.0756836, -0.9853516, -1.9512196, 129.4512177, 15.8536587, -0.0584115
0.2114258, 0.0693359, -0.9575195, -0.6097561, 126.0975647, 16.3414631, -0.0621042
0.2563477, 0.0527344, -0.9067383, 0.4878049, 125.1219559, 16.5853653, -0.0607614
0.2885742, 0.043457, -0.8774414, 1.5853659, 124.7561035, 15.9146347, -0.070161
0.3544922, 0.046875, -0.8427734, 1.8902439, 125.3048782, 15.9146347, -0.073518
0.4067383, 0.0751953, -0.8339844, 2.3170731, 127.3780518, 15.2439032, -0.056733
0.4267578, 0.0883789, -0.8374023, 3.1707318, 128.2926788, 15.1829271, -0.0674754
0.4648438, 0.0820312, -0.859375, 5.3048782, 130.0609741, 14.8170738, -0.0788891
0.472168, 0.0551758, -0.8725586, 6.5853658, 130.4878082, 13.9024391, -0.0755322
0.4389648, 0.0229492, -0.8891602, 9.3292685, 130.3048859, 11.0365858, -0.073518
0.4038086, 0.0229492, -0.8798828, 10.3048782, 130.1829224, 9.4512196, -0.0678111
0.3349609, 0.0532227, -0.831543, 10.4268293, 130.6097565, 10.060976, -0.0641184
0.3183594, 0.0727539, -0.8144531, 10.1219511, 131.8902435, 11.4024391, -0.0610971
0.3466797, 0.0820312, -0.8085938, 10.1219511, 131.8292694, 12.3170738, -0.0728466
0.3808594, 0.0766602, -0.8198242, 11.1585369, 132.1341553, 14.1463413, -0.0741894
0.4526367, 0.0195312, -0.8481445, 12.1951218, 131.9512177, 14.0243902, -0.0674754
0.4892578, -0.0483398, -0.8457031, 15.1219511, 131.5853729, 12.7439032, -0.0580758
0.4760742, -0.0620117, -0.8339844, 16.3414631, 131.7073212, 11.8292685, -0.0594186
0.4189453, -0.0380859, -0.8027344, 18.5975609, 131.9512177, 11.0365858, -0.0369268
0.3916016, -0.0024414, -0.8095703, 19.8780499, 131.9512177, 11.8902445, -0.035584
0.3623047, 0.0791016, -0.8579102, 20.7926826, 131.2195129, 14.0853662, -0.0372625
0.3657227, 0.1030273, -0.8852539, 18.780489, 129.9390259, 15.6707325, -0.0315557
0.3833008, 0.1264648, -0.9077148, 16.5853653, 129.3902435, 16.280489, -0.0275273
0.3945312, 0.1240234, -0.8974609, 12.6829271, 126.7682953, 15.7317076, -0.024506
0.4179688, 0.0830078, -0.9082031, 11.9512196, 125.3048782, 15.3658543, -0.0137636
0.4272461, 0.0615234, -0.9316406, 12.8048782, 122.1341476, 15, -0.0016785
0.4125977, 0.0439453, -0.9511719, 12.4390249, 121.2804871, 14.5731707, -0.0003357
0.3642578, 0.0498047, -0.8945312, 10.9756098, 118.6585388, 14.0243902, 0.0036927
0.3496094, 0.0517578, -0.8637695, 10.4268293, 116.5853653, 14.2073174, 0.0090639
0.3520508, 0.0429688, -0.8354492, 11.4024391, 112.3780518, 14.6951227, -0.0057069
0.371582, 0.0473633, -0.8232422, 12.0121956, 110.1219559, 15.3658543, -0.0137636
0.3984375, 0.0737305, -0.7783203, 10.9756098, 109.9390259, 15.6707325, -0.0164492
0.4233398, 0.0913086, -0.7456055, 8.2926826, 110.1219559, 16.280489, -0.010071
0.4765625, 0.1123047, -0.7119141, 7.8048782, 109.9390259, 16.8902435, -0.0097353
0.5131836, 0.1137695, -0.7241211, 7.9878049, 109.6951218, 16.280489, -0.0057069
0.5668945, 0.0825195, -0.7753906, 9.2073174, 109.5731735, 15.7926836, -0.0198062
0.5761719, 0.0532227, -0.7836914, 9.9390249, 109.3292694, 13.2317076, -0.0271916
0.5463867, -0.012207, -0.730957, 9.7560978, 109.3902435, 11.7682934, -0.0325628
0.4838867, -0.0234375, -0.6459961, 10.1829271, 109.5731735, 9.9390249, -0.0352483
0.4580078, -0.0053711, -0.6210938, 10.6707315, 109.6951218, 10.1219511, -0.0365911
0.4550781, 0.0537109, -0.659668, 12.1341467, 110.9146347, 12.8658543, -0.0473335
0.4741211, 0.0727539, -0.7133789, 13.3536587, 111.5243912, 15.5487804, -0.0533761
0.5224609, 0.0673828, -0.8007812, 12.7439032, 110.8536606, 16.3414631, -0.0715038
0.5292969, 0.0463867, -0.800293, 10.7926836, 109.6341476, 15.6097565, -0.0688182
0.512207, 0.0117188, -0.7319336, 9.8170738, 108.7804871, 15.060976, -0.0641184
0.4946289, 0.0029297, -0.6953125, 10.6707315, 106.8902435, 15.060976, -0.0674754
0.4848633, 0.0097656, -0.6542969, 11.6463413, 106.5853653, 15.3658543, -0.0798962
0.5043945, 0.019043, -0.6708984, 13.5975609, 106.4024429, 15.8536587, -0.0755322
0.5131836, 0.0180664, -0.6953125, 14.5731707, 105.9756088, 16.0365849, -0.0856031
0.5249023, 0.0322266, -0.7519531, 15.4878054, 104.2682953, 16.0365849, -0.0956741
0.5166016, 0.0478516, -0.7617188, 15.1219511, 103.8414688, 16.0975609, -0.0943313
0.4882812, 0.0810547, -0.7431641, 12.1341467, 103.2317123, 16.3414631, -0.1064164
0.4833984, 0.0878906, -0.7246094, 9.7560978, 101.7073212, 17.1341476, -0.1003738
0.503418, 0.0585938, -0.6918945, 9.2073174, 100.18293, 17.2560978, -0.0997024
0.527832, 0.0249023, -0.6782227, 10.6707315, 96.8902435, 16.3414631, -0.0983597
0.5551758, -0.0249023, -0.6567383, 12.0121956, 95.6097565, 15.6097565, -0.0835889
0.5566406, -0.0268555, -0.6445312, 13.1707315, 95.18293, 14.7560978, -0.0788891
0.5405273, 0.0146484, -0.6259766, 13.5365858, 95.4878082, 14.6951227, -0.0607614
0.5366211, 0.0664062, -0.6279297, 12.8048782, 95.6097565, 15.6707325, -0.0782177
0.5424805, 0.074707, -0.6308594, 12.1341467, 95.18293, 15.9756098, -0.070161
0.5551758, 0.0673828, -0.6347656, 11.219512, 94.0243912, 16.2195129, -0.0624399
0.5649414, 0.0551758, -0.6347656, 10.9756098, 92.8658524, 16.4024391, -0.0654612
0.581543, 0.0097656, -0.6445312, 11.8902445, 90.9756088, 15.8536587, -0.0527047
0.5786133, -0.0151367, -0.652832, 14.5121956, 88.3536606, 14.8170738, -0.03122
0.5546875, -0.0400391, -0.6645508, 15.5487804, 87.1951218, 14.8780489, -0.0379339
0.5322266, -0.0356445, -0.6645508, 17.0731716, 84.2682953, 14.7560978, -0.0359197
0.4936523, -0.0019531, -0.6274414, 17.560976, 83.1097565, 15.1829271, -0.0305486
0.4873047, 0.0175781, -0.6005859, 17.439024, 80.3048782, 15.6707325, -0.0285344
0.5019531, 0.0556641, -0.5395508, 17.3780499, 79.2682953, 15.9146347, -0.0208133
0.5541992, 0.0551758, -0.4956055, 17.3780499, 77.4390259, 16.5853653, -0.0171206
0.5942383, 0.0458984, -0.4980469, 17.9878044, 76.8292694, 16.8292694, -0.0083925
0.6572266, 0.0166016, -0.5322266, 19.1463413, 76.7073212, 16.7682934, -0.017792
0.6728516, 0.0073242, -0.5493164, 19.6341476, 76.8902435, 16.7682934, -0.017792
0.6621094, 0.0024414, -0.5493164, 19.5121956, 77.2560959, 15.8536587, -0.0083925
0.644043, 0.0097656, -0.5375977, 19.3292694, 76.9512177, 14.7560978, -0.0083925
0.5874023, 0.0332031, -0.5336914, 19.5731716, 76.4634171, 14.2682934, 0.003357
0.5688477, 0.0444336, -0.5439453, 19.2073174, 74.5121994, 14.2682934, 0.0194705
0.5473633, 0.0551758, -0.5810547, 18.9634151, 72.7439041, 14.2682934, 0.0352483
0.5458984, 0.0522461, -0.6040039, 17.3780499, 69.6951218, 14.2073174, 0.0285344
0.5473633, 0.0410156, -0.6230469, 16.0365849, 67.8658524, 14.2073174, 0.027863
0.5517578, 0.0375977, -0.581543, 12.8048782, 65.3658524, 14.2073174, 0.0265202
0.5585938, 0.0385742, -0.5517578, 11.4024391, 64.2682953, 14.2682934, 0.0198062
0.5766602, 0.0463867, -0.5087891, 8.4146347, 62.3780518, 13.9024391, 0.0070497
0.5917969, 0.0463867, -0.4946289, 7.8048782, 61.7682953, 13.9634151, -0.0070497
0.6298828, 0.0395508, -0.4829102, 7.6829271, 60.3658562, 13.6585369, -0.0191348
0.6391602, 0.0302734, -0.4897461, 8.719512, 58.4146347, 12.6829271, -0.0218204
0.6464844, 0.0097656, -0.5092773, 8.9634151, 57.8658562, 12.0731707, -0.0285344
0.6342773, 0.0063477, -0.5117188, 9.2073174, 56.8902435, 10.6707315, -0.0500191
0.597168, 0.0146484, -0.4970703, 8.6585369, 56.2195129, 10.2439022, -0.0708324
0.574707, 0.0209961, -0.4838867, 7.6829271, 54.5121956, 10.3658543, -0.0903029
0.5625, 0.0322266, -0.4584961, 6.9512196, 53.7804909, 10.5487804, -0.115816
0.5874023, 0.0087891, -0.4438477, 6.890244, 51.5853653, 10.7317076, -0.1292439
0.6040039, -0.0039062, -0.4428711, 7.3780489, 50.0609779, 10.6707315, -0.1131304
0.6235352, -0.0258789, -0.4624023, 8.2317076, 48.2317085, 11.0365858, -0.1131304
0.6303711, -0.0263672, -0.4697266, 8.5975609, 47.3170738, 10.9146347, -0.1030594
0.6201172, -0.0200195, -0.4589844, 8.6585369, 46.6463432, 10.9756098, -0.0889601
0.609375, -0.0161133, -0.4433594, 9.1463413, 44.7560997, 11.7073174, -0.0755322
0.5917969, -0.0039062, -0.4091797, 9.3292685, 43.3536606, 11.7073174, -0.0621042
0.5976562, 0.0039062, -0.3979492, 8.9634151, 41.1585388, 11.9512196, -0.0547189
0.6137695, 0.0107422, -0.3613281, 8.5365858, 40.4268303, 11.8902445, -0.0439765
0.6303711, 0.0063477, -0.3422852, 8.0487804, 39.9390259, 12.5, -0.0412909
0.6708984, 0, -0.3071289, 8.1097565, 39.5121956, 12.9268293, -0.0433051
0.7128906, -0.0092773, -0.324707, 9.7560978, 39.0243912, 13.5975609, -0.0406195
0.7197266, -0.0307617, -0.3569336, 11.9512196, 38.841465, 13.5975609, -0.0500191
0.7109375, -0.0751953, -0.4365234, 17.7439022, 36.8902435, 12.4390249, -0.0433051
0.6821289, -0.0864258, -0.4672852, 19.8170738, 35.7926826, 11.6463413, -0.0218204
0.5864258, -0.0634766, -0.4829102, 21.280489, 33.0487823, 11.0975609, -0.0224918
0.5424805, -0.0395508, -0.465332, 19.6341476, 30.1219521, 12.3780489, -0.0318914
0.5083008, 0.012207, -0.4018555, 18.780489, 28.0487804, 13.3536587, -0.0271916
0.5200195, 0.0297852, -0.3779297, 18.5365849, 23.1097565, 14.6341467, -0.0292058
0.5986328, 0.0366211, -0.3769531, 19.0243912, 20.5487804, 14.7560978, -0.0191348
0.6450195, 0.0419922, -0.3896484, 18.8414631, 18.780489, 14.9390249, -0.0070497
0.6982422, 0.0498047, -0.4067383, 17.6829281, 18.5365849, 14.4512196, -0.0224918
0.6987305, 0.0595703, -0.4116211, 13.780488, 17.9878044, 13.5365858, -0.0184634
0.6938477, 0.0581055, -0.4101562, 12.1951218, 17.1951218, 13.2317076, -0.0050355
0.6787109, 0.0483398, -0.3955078, 9.1463413, 15.1829271, 11.7682934, -0.0030213
0.6665039, 0.0463867, -0.3862305, 7.5, 13.7195129, 11.0365858, -0.0157778
0.6518555, 0.0664062, -0.362793, 3.2317073, 12.3170738, 10.3048782, -0.0164492
0.6538086, 0.0737305, -0.3422852, -2.4390244, 11.219512, 10.3658543, -0.0127565
0.6801758, 0.0649414, -0.3061523, -4.5731707, 10.4878054, 10.4268293, -0.0090639
0.6992188, 0.0546875, -0.3056641, -6.2195125, 8.1097565, 9.6951218, -0.0077211
0.7294922, 0.0112305, -0.3520508, -6.1585369, 6.8292685, 9.0853662, -0.0070497
0.7329102, -0.012207, -0.3842773, -5.4268293, 4.5731707, 7.8048782, -0.0184634
0.7104492, -0.0600586, -0.4189453, -4.8170733, 4.0853658, 7.6219516, -0.0224918
0.6367188, -0.0839844, -0.4150391, -4.1463413, 1.7682927, 7.0121951, -0.0124208
0.6005859, -0.074707, -0.4018555, -4.4512196, 0.4268293, 7.0121951, -0.0231632
0.5561523, -0.0356445, -0.375, -5.4878049, -3.5365853, 9.0853662, -0.0342412
0.5610352, -0.0141602, -0.3676758, -6.6463418, -5.7926831, 10.4268293, -0.0433051
0.6157227, 0.012207, -0.3398438, -8.1097565, -10.060976, 12.2560978, -0.0584115
0.6523438, 0.019043, -0.3129883, -10.6707315, -12.6829271, 13.2317076, -0.0809033
0.7216797, 0.0307617, -0.2651367, -11.4634151, -13.1097565, 12.9268293, -0.0856031
0.7416992, 0.0317383, -0.2573242, -11.8292685, -13.1097565, 12.0121956, -0.0889601
0.7661133, 0.0332031, -0.2929688, -11.219512, -13.3536587, 11.7682934, -0.0869459
0.7587891, 0.0307617, -0.3222656, -10.4878054, -14.4512196, 10.9146347, -0.0862745
0.7275391, 0.0175781, -0.3676758, -10.4268293, -15.6707325, 10.1219511, -0.0607614
0.6787109, -0.0073242, -0.34375, -11.0365858, -18.2317085, 8.4146347, -0.0614328
0.6572266, -0.0209961, -0.3173828, -11.341464, -19.4512196, 7.5, -0.0691539
0.6376953, -0.0195312, -0.2719727, -10.6097565, -22.3780499, 6.7073174, -0.0681468
0.6455078, -0.0039062, -0.2744141, -9.8170738, -23.780489, 6.5853658, -0.073518
0.6835938, 0.0249023, -0.3115234, -8.841464, -26.3414631, 6.7073174, -0.0674754
0.7036133, 0.0302734, -0.3261719, -8.9024391, -28.2926826, 6.0975609, -0.0694896
0.7216797, 0.0253906, -0.328125, -9.4512196, -28.9634151, 5.1829271, -0.0641184
0.7192383, 0.0239258, -0.3115234, -11.280488, -30.1219521, 3.5975611, -0.0607614
0.7080078, 0.0180664, -0.2973633, -11.8292685, -30.8536587, 3.2926829, -0.0493477
0.6982422, 0.0205078, -0.3066406, -12.0731707, -32.5, 2.6829269, -0.0459907
0.6889648, 0.0058594, -0.3642578, -11.341464, -33.5365868, 2.6829269, -0.0560616
0.6723633, -0.0366211, -0.4350586, -10.7926836, -37.0731697, 2.9268293, -0.0557259
0.6538086, -0.0605469, -0.4672852, -10.7926836, -38.7804871, 3.4756098, -0.0527047
0.612793, -0.0874023, -0.4819336, -10.9756098, -42.2560997, 5.0609756, -0.0459907
0.5917969, -0.1000977, -0.4545898, -12.2560978, -44.4512215, 6.0365853, -0.0433051
0.5830078, -0.0883789, -0.3676758, -14.3902445, -49.3292694, 7.5, -0.0419623
0.5927734, -0.0668945, -0.3364258, -14.6341467, -53.841465, 9.4512196, -0.0466621
0.6357422, -0.0141602, -0.3417969, -13.9634151, -55.3658562, 10.3658543, -0.0500191
0.6650391, 0.0151367, -0.3706055, -13.1707315, -57.4390259, 10.9756098, -0.0392767
0.6938477, 0.0410156, -0.4399414, -13.4756098, -58.7804909, 10.7317076, -0.0271916
0.6879883, 0.0400391, -0.4643555, -15.4268293, -60.8536606, 10.1829271, -0.0151064
0.6547852, 0.0175781, -0.4628906, -16.4634151, -62.2560997, 9.7560978, -0.0057069
0.6171875, -0.0058594, -0.4008789, -18.2926826, -66.0365906, 8.5975609, -0.0043641
0.6118164, -0.0112305, -0.3657227, -19.0853672, -67.9268341, 8.1097565, -0.017792
0.6328125, -0.0019531, -0.3237305, -19.6951218, -71.4634171, 8.0487804, -0.0147707
0.6572266, 0.0131836, -0.3217773, -20.3048782, -72.2560959, 7.9878049, -0.0104067
0.7045898, 0.0395508, -0.3266602, -21.2195129, -72.9268341, 7.9878049, -0.0157778
0.7231445, 0.0454102, -0.3422852, -22.439024, -73.4756088, 7.5, -0.0204776
0.7260742, 0.0444336, -0.3725586, -23.0487804, -74.0243912, 6.9512196, -0.0124208
0.7177734, 0.0361328, -0.3847656, -23.8414631, -75.0609741, 4.9390244, -0.0198062
0.6743164, 0.0258789, -0.3916016, -24.1463413, -76.2804871, 3.9634147, -0.0231632
0.6508789, 0.0214844, -0.3833008, -25.7926826, -78.2317123, 2.7439024, -0.0093996
0.6191406, 0.03125, -0.3666992, -26.1585369, -79.2073212, 2.0121951, -0.0224918
0.6191406, 0.027832, -0.3710938, -26.6463413, -81.8292694, 1.5243902, -0.0292058
0.628418, 0.0112305, -0.3808594, -26.0365868, -83.2317123, 1.1585366, -0.0513619
0.6513672, -0.0449219, -0.4033203, -23.2926826, -86.7073212, 0.9146342, -0.0688182
0.6547852, -0.0756836, -0.4150391, -21.5243912, -88.0487823, 0.1829268, -0.0674754
0.6259766, -0.1181641, -0.4414062, -17.1341476, -90.7317123, -0.9756098, -0.0610971
0.6010742, -0.1123047, -0.4555664, -14.1463413, -93.6585388, -1.097561, -0.0540475
0.5478516, -0.0688477, -0.4804688, -13.2926836, -94.9390259, -0.8536586, -0.0661326
0.5297852, -0.034668, -0.4794922, -14.3292685, -97.4390259, 0.6097561, -0.0681468
0.5239258, 0.0170898, -0.4570312, -15.3658543, -98.9024429, 0.9146342, -0.0594186
0.534668, 0.0273438, -0.4575195, -16.280489, -102.2561035, 1.7073171, -0.0503548
0.5698242, 0.0302734, -0.5092773, -15.8536587, -104.0243912, 2.2560976, -0.0520333
0.6030273, -0.0004883, -0.5634766, -14.8170738, -105.7317123, 2.0121951, -0.0436408
0.5957031, -0.0170898, -0.5771484, -15.4268293, -106.2195129, 1.8292683, -0.0500191
0.5546875, -0.0410156, -0.5717773, -17.8048782, -107.0731735, 1.3414634, -0.0557259
0.5385742, -0.046875, -0.5566406, -20.2439022, -109.8780518, 2.5609756, -0.0621042
0.5239258, -0.0439453, -0.5415039, -20.9146347, -111.8902435, 3.5975611, -0.073518
0.5327148, -0.0361328, -0.5444336, -22.1341476, -115.36586, 5.1219511, -0.076875
0.5571289, -0.015625, -0.5527344, -23.3536587, -116.7073212, 5.7317076, -0.0721752
0.5703125, -0.0009766, -0.5595703, -25.4878063, -117.0121994, 6.5853658, -0.0788891
0.5771484, 0.0224609, -0.5688477, -26.8292694, -116.9512253, 6.7073174, -0.1013809
0.5727539, 0.03125, -0.5688477, -29.2682934, -118.5365906, 7.1341467, -0.1050736
0.5576172, 0.0195312, -0.5825195, -29.5731716, -119.8170776, 7.0731707, -0.0976883
0.5654297, -0.0332031, -0.6054688, -27.7439022, -123.9024429, 5.9146342, -0.0852674
0.5610352, -0.0600586, -0.6069336, -26.7682934, -125.8536606, 5, -0.070161
0.5336914, -0.0771484, -0.5927734, -26.0365868, -127.9268341, 4.2073174, -0.0466621
0.512207, -0.0708008, -0.574707, -26.7073174, -129.0243988, 4.0243902, -0.0392767
0.4907227, -0.0400391, -0.5600586, -26.5853672, -130.0609741, 4.5121951, -0.0396124
0.4921875, -0.0229492, -0.5629883, -25.6097565, -132.5609741, 5.1829271, -0.021149
0.5239258, -0.0009766, -0.5712891, -25.8536587, -133.4756165, 5.2439027, 0.0023499
0.5395508, 0.0073242, -0.5615234, -26.2195129, -134.8780518, 4.6341462, 0.0201419
0.5722656, 0.0185547, -0.5043945, -26.9512196, -134.9390259, 3.9024391, 0.0184634
0.5952148, 0.0327148, -0.4604492, -26.6463413, -134.0243988, 1.4634147, 0.0251774
0.6044922, 0.0371094, -0.4506836, -25.7317085, -133.7804871, 0, 0.0231632
0.6220703, 0.0371094, -0.4584961, -22.8048782, -132.7439117, -3.2317073, 0.024506
0.6254883, 0.0288086, -0.4726562, -21.2195129, -132.3780518, -5.3048782, 0.0339055
0.6079102, -0.0073242, -0.5068359, -17.6829281, -132.1341553, -8.841464, -0.0020142
0.5981445, -0.0273438, -0.5288086, -13.5365858, -132.6829224, -12.2560978, -0.011078
0.5551758, -0.0551758, -0.574707, -11.7073174, -132.5, -13.780488, -0.0124208
0.5263672, -0.0610352, -0.6005859, -9.8170738, -132.4390259, -15.6707325, -0.0298772
0.4506836, -0.0576172, -0.6586914, -9.6341467, -132.4390259, -15.8536587, -0.0328985
0.4262695, -0.0488281, -0.6767578, -11.6463413, -132.4390259, -13.6585369, -0.024506
0.3959961, -0.0205078, -0.6572266, -14.0243902, -132.0731812, -12.4390249, -0.0305486
0.4125977, -0.0024414, -0.6069336, -20.1219521, -131.8902435, -9.6951218, -0.0345769
0.4355469, -0.0004883, -0.6015625, -22.560976, -132.1341553, -8.2317076, -0.0305486
0.5014648, 0.0053711, -0.6704102, -24.2073174, -132.5, -5.670732, -0.0392767
0.5224609, 0.0039062, -0.7368164, -24.4512196, -132.3170776, -4.7560978, -0.0446479
0.5268555, 0.0112305, -0.8579102, -26.7682934, -129.7561035, -3.5365853, -0.0446479
0.496582, 0.0161133, -0.8828125, -33.2317085, -127.9268341, -2.1341465, -0.0473335
0.4038086, 0.0244141, -0.8725586, -37.7439041, -127.5, -1.3414634, -0.0647898
0.3608398, 0.0146484, -0.8388672, -45.4268303, -130.2439117, 0.7926829, -0.0748608
0.328125, 0.0009766, -0.7724609, -48.3536606, -132.5, 1.5853659, -0.0862745
0.3320312, -0.0092773, -0.7626953, -49.5121956, -137.1951294, 2.4390244, -0.0997024
0.3754883, -0.0161133, -0.8178711, -48.5975609, -138.9634247, 2.7439024, -0.102388
0.3945312, -0.0385742, -0.9179688, -44.9390259, -142.0731812, 3.1707318, -0.0997024
0.3881836, -0.0634766, -0.9609375, -42.5609779, -143.7804871, 2.6219513, -0.1117876
0.3276367, -0.105957, -0.9804688, -39.1463432, -147.9878082, 0.6707317, -0.1225299
0.2836914, -0.1176758, -0.9560547, -38.4146347, -150.8536682, -0.1219512, -0.1104448
0.2094727, -0.1274414, -0.8945312, -36.4634171, -156.2804871, -0.6707317, -0.1080949
0.1958008, -0.1279297, -0.8759766, -32.0731697, -161.2195129, 0.6707317, -0.1080949
0.2304688, -0.1274414, -0.8720703, -29.5121956, -162.7439117, 1.9512196, -0.0929885
0.2695312, -0.1254883, -0.8613281, -25.4268303, -165.1219482, 3.9634147, -0.0909743
0.3383789, -0.1347656, -0.8115234, -23.7195129, -165.7317047, 4.1463413, -0.0822461
0.3598633, -0.1386719, -0.7895508, -19.2073174, -167.7439117, 3.9024391, -0.0715038
0.4316406, -0.1293945, -0.7514648, -17.0121956, -167.9268341, 3.3536587, -0.0627756
0.4624023, -0.0820312, -0.6855469, -11.7682934, -165.5487823, 1.402439, -0.0822461
0.46875, -0.0537109, -0.6489258, -10.1829271, -163.7804871, 0.8536586, -0.0825818
0.4848633, -0.0029297, -0.605957, -7.6829271, -159.6951294, -0.5487805, -0.0661326
0.4926758, 0.0146484, -0.6181641, -6.0365853, -158.4756165, -0.7926829, -0.0473335
0.5092773, 0.0419922, -0.7451172, -2.3170731, -157.1951294, -2.9878049, -0.0379339
0.4995117, 0.0488281, -0.8422852, -0.7317073, -156.7073212, -4.5731707, -0.0238346
0.4204102, 0.0634766, -1.0366211, -1.8902439, -155.9756165, -5.1219511, -0.0198062
0.3544922, 0.0751953, -1.0976562, -8.780488, -154.7561035, -5.609756, -0.0070497
0.1943359, 0.0996094, -1.090332, -13.9024391, -155.4268341, -4.6341462, 0.0036927
0.1333008, 0.1020508, -1.0366211, -24.8170738, -159.0853729, -2.804878, 0.0073854
0.1020508, 0.0810547, -0.9091797, -29.3902454, -161.5853729, -2.0121951, 0.0171206
0.2001953, 0.0302734, -0.8232422, -35.5487823, -164.9390259, -0.7317073, 0.0251774
0.2763672, 0.0058594, -0.8100586, -37.6829262, -164.4512177, -0.6707317, 0.0265202
0.40625, -0.019043, -0.8330078, -40.2439041, -160.6097565, -1.097561, 0.0130922
0.4462891, -0.0053711, -0.8706055, -41.0975609, -158.1097565, -1.7073171, 0.0127565
0.4677734, 0.043457, -0.9614258, -42.9268303, -154.5731812, -2.195122, 0.0104067
0.4418945, 0.0722656, -0.9975586, -45.7317085, -153.4756165, -3.5365853, 0.0090639
0.3466797, 0.1030273, -1.0058594, -47.2560997, -153.9634247, -4.2073174, 0.0036927
0.2905273, 0.1035156, -0.9916992, -48.5975609, -156.2804871, -5.8536587, -0.0020142
0.2099609, 0.0463867, -0.965332, -48.3536606, -158.2926941, -6.6463418, 0.0003357
0.1914062, 0.0024414, -0.9594727, -46.1585388, -161.646347, -8.1097565, -0.0164492
0.1860352, -0.0932617, -0.925293, -45.2439041, -162.4390259, -8.4756098, -0.0137636
0.2050781, -0.1474609, -0.8598633, -44.6341476, -161.5853729, -7.8658538, -0.014435
0.2265625, -0.1547852, -0.824707, -44.6951218, -160.4268341, -7.0731707, -0.0251774
0.2822266, -0.1347656, -0.7963867, -42.0121956, -157.86586, -4.390244, -0.0386053
0.3237305, -0.121582, -0.8051758, -39.6951218, -156.5243988, -3.6585367, -0.0396124
0.3823242, -0.1025391, -0.8525391, -32.7439041, -154.0853729, -3.4146342, -0.0386053
0.3847656, -0.0966797, -0.890625, -25.6097565, -152.6219482, -4.1463413, -0.0426337
0.3393555, -0.0766602, -0.9951172, -21.7073174, -152.5, -4.8170733, -0.0399481
0.293457, -0.0556641, -1.043457, -15.4878054, -152.6219482, -6.7682929, -0.0594186
0.1567383, 0.0043945, -1.0883789, -14.1463413, -152.5, -7.4390244, -0.063447
0.0844727, 0.0375977, -1.0878906, -15.4878054, -154.0243988, -7.9268293, -0.0647898
-0.0048828, 0.0922852, -1.0546875, -17.8048782, -155.4878082, -7.7439027, -0.0647898
0.0253906, 0.1069336, -1.0151367, -22.8658543, -158.8414612, -6.2195125, -0.0681468
0.0776367, 0.0966797, -1.0009766, -25.3048782, -160.5487823, -5.7317076, -0.0627756
0.2119141, 0.0424805, -0.9970703, -26.4024391, -163.0487823, -6.3414636, -0.0715038
0.2685547, 0.0146484, -1.0048828, -25.6097565, -164.0243988, -7.0731707, -0.0741894
0.3183594, -0.0283203, -1.0302734, -22.1951218, -165.36586, -9.3292685, -0.0678111
0.3154297, -0.0297852, -1.0498047, -19.8170738, -165.1829376, -12.2560978, -0.0647898
0.2299805, 0.0146484, -1.0893555, -20.3048782, -164.7561035, -13.4756098, -0.0755322
0.1640625, 0.0566406, -1.1040039, -24.5731716, -164.6341553, -14.1463413, -0.0748608
0.0375977, 0.1503906, -1.1225586, -28.1097565, -165.0609741, -13.5365858, -0.070161
-0.0024414, 0.184082, -1.1333008, -34.8780479, -169.6951294, -11.4634151, -0.0721752
-0.0063477, 0.1875, -1.1557617, -37.5, -172.9268341, -10.4878054, -0.0674754
0.0498047, 0.1010742, -1.1376953, -40.4878044, -180.3048859, -10.060976, -0.0782177
0.0791016, 0.0439453, -1.0961914, -41.0365868, -183.2317047, -10.7317076, -0.0849317
0.1318359, -0.0761719, -0.9921875, -41.0365868, -187.012207, -12.3170738, -0.0788891
0.1445312, -0.1147461, -0.9462891, -39.9390259, -187.1951294, -13.0487804, -0.0553902
0.1572266, -0.144043, -0.9111328, -34.6341476, -186.1585388, -13.3536587, -0.0352483
0.1591797, -0.1459961, -0.9282227, -26.8292694, -184.3902435, -12.0731707, -0.0332341
0.1450195, -0.1313477, -0.9916992, -22.9878063, -183.8414612, -11.1585369, -0.0090639
0.1289062, -0.1225586, -1.0253906, -17.9268303, -182.3170776, -9.0243902, 0.0070497
0.0654297, -0.0976562, -1.0556641, -16.8902435, -182.0121918, -7.7439027, 0.0265202
0.0322266, -0.0844727, -1.0390625, -16.7682934, -181.8902435, -4.8780489, 0.0292058
-0.0024414, -0.0522461, -0.9550781, -17.439024, -181.646347, -2.9268293, 0.0157778
0.0273438, -0.0185547, -0.8388672, -18.1097565, -180.5487823, -0.4878049, 0.0097353
0.0688477, 0.0004883, -0.7905273, -17.8658543, -179.4512177, -0.0609756, -0.0073854
0.175293, 0.0292969, -0.7495117, -15.9146347, -174.9390259, 0, -0.0218204
0.2260742, 0.0415039, -0.746582, -14.8780489, -171.5853729, -0.5487805, -0.0439765
0.2753906, 0.0732422, -0.7451172, -12.560976, -163.7804871, -2.3170731, -0.0406195
0.2700195, 0.0878906, -0.7539062, -10.2439022, -157.1341553, -5.0609756, -0.0345769
0.2158203, 0.109375, -0.8212891, -8.841464, -154.5121918, -6.0365853, -0.0352483
0.1689453, 0.1074219, -0.9023438, -5.4268293, -152.8048859, -7.1951222, -0.027863
0.0625, 0.0825195, -1.105957, -5, -153.0487823, -7.3780489, -0.0083925
-0.0043945, 0.0698242, -1.1953125, -8.1097565, -153.9024353, -7.3170733, -0.0016785
-0.1821289, 0.0478516, -1.2885742, -11.5243902, -154.6951294, -6.7073174, -0.0030213
-0.3496094, 0.0405273, -1.3056641, -20.2439022, -159.5121918, -3.5365853, -0.011078
-0.3916016, 0.0356445, -1.3066406, -23.9024391, -163.5975647, -1.0365853, -0.0218204
-0.3945312, 0.0351562, -1.2939453, -30.3658543, -173.2926941, 2.6219513, -0.0198062
-0.3505859, 0.0410156, -1.2636719, -34.3292694, -177.3170776, 4.0853658, -0.03122
-0.2460938, 0.0698242, -1.1772461, -42.8048782, -182.5, 5.7317076, -0.0399481
-0.1875, 0.0834961, -1.1401367, -49.1463432, -184.8170776, 7.0731707, -0.0627756
-0.0585938, 0.0834961, -1.1191406, -50.3048782, -185.9756165, 7.4390244, -0.0715038
-0.0053711, 0.0615234, -1.1318359, -46.4024391, -188.5975647, 6.9512196, -0.0822461
0.0610352, -0.0288086, -1.1665039, -43.0487823, -190.1219482, 5.9146342, -0.0772107
0.050293, -0.0756836, -1.1616211, -38.841465, -192.5, 2.7439024, -0.0852674
-0.0507812, -0.1176758, -1.105957, -38.2317085, -193.4756165, 1.7682927, -0.0788891
-0.1728516, -0.074707, -1.043457, -38.2317085, -194.3902435, 1.7682927, -0.1040665
-0.2138672, -0.0332031, -1.0229492, -38.3536606, -193.9634247, 2.6219513, -0.1567712
-0.2421875, 0.043457, -0.9736328, -38.2926826, -191.0975647, 5.4268293, -0.1789273
-0.2290039, 0.0742188, -0.953125, -38.5975609, -190.1829376, 6.1585369, -0.1920195
-0.1660156, 0.0820312, -0.9018555, -39.2682953, -189.3902435, 7.4390244, -0.1742275
-0.1206055, 0.0629883, -0.8818359, -38.6585388, -188.0487823, 7.0731707, -0.1524071
-0.0385742, -0.0107422, -0.8583984, -36.9512215, -186.8292694, 6.4024391, -0.1228656
-0.0161133, -0.0600586, -0.8618164, -29.9390259, -184.2682953, 5.0609756, -0.1010452
-0.0317383, -0.137207, -0.9389648, -24.0243912, -183.2317047, 4.1463413, -0.0849317
-0.0688477, -0.1645508, -1.0136719, -9.9390249, -182.86586, 2.9268293, -0.0802319
-0.2070312, -0.1958008, -1.152832, -2.9268293, -183.0487823, 2.6829269, -0.0835889
-0.4057617, -0.1748047, -1.2021484, 5, -183.5975647, 2.6829269, -0.063447
-0.4975586, -0.1425781, -1.1943359, 5.1219511, -184.2682953, 3.5975611, -0.0480049
-0.6005859, -0.0473633, -1.1635742, 0.4878049, -186.646347, 6.7073174, -0.0406195
-0.5961914, 0.0102539, -1.152832, -3.6585367, -187.5, 9.1463413, -0.0637827
-0.4990234, 0.121582, -1.1142578, -13.780488, -188.4146423, 13.841464, -0.0647898
-0.4204102, 0.1708984, -1.0839844, -25.060976, -187.0731812, 17.3170738, -0.0584115
-0.234375, 0.2382812, -0.980957, -30.060976, -186.1585388, 18.2317085, -0.0493477
-0.144043, 0.2416992, -0.9360352, -35.9146347, -183.9024506, 17.0731716, -0.0298772
0.003418, 0.1962891, -0.8896484, -36.0975609, -182.1341553, 15.3048782, -0.0181277
0.046875, 0.1577148, -0.887207, -34.5121956, -178.5365906, 9.5731707, -0.0154421
0.0170898, 0.0908203, -0.9296875, -33.5365868, -176.4024506, 6.4634147, 0.0043641
-0.1347656, 0.0766602, -0.9848633, -33.1097565, -170.9146423, 1.2804878, 0.021149
-0.2421875, 0.0917969, -1.0166016, -33.841465, -168.4146423, -0.4268293, 0.0157778
-0.449707, 0.1552734, -1.0844727, -37.5, -164.8780518, -1.0365853, 0.0218204
-0.5224609, 0.1948242, -1.1108398, -44.8780479, -164.6951294, 0.8536586, 0.0345769
-0.5952148, 0.2270508, -1.1474609, -49.6951218, -165.7317047, 2.3170731, 0.0473335
-0.5976562, 0.2114258, -1.1533203, -57.8048782, -169.2682953, 4.390244, 0.0574044
-0.5644531, 0.0898438, -1.1748047, -58.841465, -171.7682953, 5.3048782, 0.0772107
-0.5327148, -0.0009766, -1.2006836, -54.5731735, -177.6219482, 6.4024391, 0.0788891
-0.4916992, -0.1665039, -1.2124023, -50.9756126, -179.8170776, 6.280488, 0.0674754
-0.4902344, -0.2260742, -1.1850586, -43.7804871, -182.2561035, 6.2195125, 0.0607614
-0.5117188, -0.2514648, -1.0800781, -41.2195129, -182.4390259, 6.1585369, 0.0527047
-0.5336914, -0.2036133, -0.9960938, -35.4268303, -182.7439117, 7.4390244, 0.0305486
-0.5253906, -0.1767578, -0.9853516, -31.8292694, -182.2561035, 8.6585369, 0.0057069
-0.4741211, -0.1396484, -1.0107422, -24.2682934, -181.5853729, 11.7073174, -0.0083925
-0.4472656, -0.1342773, -1.0166016, -18.3536587, -180.6707306, 13.4146347, -0.0238346
-0.4316406, -0.1166992, -0.9824219, -16.0975609, -180.1219482, 14.0853662, -0.0392767
-0.4282227, -0.0981445, -0.9555664, -11.1585369, -179.5731812, 15.060976, -0.0500191
-0.4155273, -0.0512695, -0.8916016, -9.0243902, -178.9634247, 15.1219511, -0.0882887
-0.409668, -0.0224609, -0.8647461, -5.4268293, -175.6707306, 14.9390249, -0.0956741
-0.3955078, 0.0375977, -0.8457031, -4.390244, -173.5975647, 14.2682934, -0.094667
-0.3891602, 0.0771484, -0.8803711, -2.1341465, -170.0609741, 13.4756098, -0.0929885
-0.3950195, 0.0849609, -0.9091797, -1.2195122, -167.9878082, 12.8048782, -0.0822461
-0.4467773, 0.1005859, -0.96875, -1.3414634, -164.8780518, 11.8292685, -0.063447
-0.4868164, 0.1049805, -1.0043945, -1.0365853, -163.4146423, 11.5853662, -0.0584115
-0.578125, 0.1269531, -1.0859375, -2.2560976, -162.8048859, 11.4024391, -0.0651255
-0.6176758, 0.1352539, -1.1308594, -5.0609756, -163.4146423, 11.341464, -0.0688182
-0.6870117, 0.1352539, -1.1850586, -7.7439027, -164.2682953, 11.7073174, -0.0728466
-0.7124023, 0.1259766, -1.1948242, -14.0853662, -167.6219482, 12.9878054, -0.0795605
-0.7231445, 0.0952148, -1.1865234, -17.560976, -169.8780518, 13.6585369, -0.0748608
-0.7177734, 0.0805664, -1.1791992, -22.8658543, -174.0243988, 14.7560978, -0.0674754
-0.6845703, 0.0649414, -1.1523438, -24.6341476, -175.36586, 15.3048782, -0.0755322
-0.6533203, 0.0869141, -1.0830078, -28.4756107, -175.4268341, 15.7926836, -0.0664683
-0.6264648, 0.1098633, -1.0390625, -30.8536587, -175.3048859, 15.9756098, -0.0587472
-0.5732422, 0.1655273, -0.9511719, -36.0365868, -173.4146423, 15.4878054, -0.0486763
-0.5473633, 0.1899414, -0.909668, -39.5121956, -172.1951294, 15, -0.0621042
-0.4946289, 0.2192383, -0.8417969, -46.0365868, -168.6585388, 13.841464, -0.0755322
-0.4697266, 0.2250977, -0.8261719, -49.6951218, -164.3902435, 11.7682934, -0.0627756
-0.4414062, 0.1992188, -0.8393555, -50.3048782, -162.5, 10.7926836, -0.056733
-0.4472656, 0.1704102, -0.8520508, -48.7195129, -159.9390259, 8.719512, -0.0285344
-0.5009766, 0.1000977, -0.8740234, -47.1951218, -159.3292694, 7.5, -0.0147707
-0.5424805, 0.0493164, -0.8798828, -44.5731735, -158.7804871, 5.1829271, 0.0077211
-0.6337891, -0.0375977, -0.9321289, -42.6829262, -158.7804871, 3.9634147, 0.027863
-0.7319336, -0.1293945, -1.0566406, -36.5243912, -160.36586, 4.0243902, 0.0466621
-0.7832031, -0.1601562, -1.1210938, -33.1707306, -161.646347, 4.9390244, 0.0590829
-0.8676758, -0.1860352, -1.1845703, -28.2317085, -164.3902435, 8.5365858, 0.0587472
-0.9057617, -0.1782227, -1.1660156, -28.2317085, -165.6707306, 11.1585369, 0.0530404
-0.9350586, -0.1083984, -1.0371094, -31.5853672, -166.9512177, 15.8536587, 0.0292058
-0.9091797, -0.0493164, -0.9599609, -36.8292694, -167.2561035, 20.5487804, 0.0251774
-0.7768555, 0.0625, -0.8676758, -38.7195129, -167.0121918, 22.560976, 0.0208133
-0.6855469, 0.1005859, -0.8574219, -39.0243912, -166.2804871, 24.7560978, 0.0104067
-0.5107422, 0.1210938, -0.887207, -37.3780479, -166.0975647, 24.8780499, 0.0083925
-0.4545898, 0.109375, -0.9091797, -31.5853672, -166.4634247, 22.9878063, 0.014435
-0.4384766, 0.0595703, -0.956543, -28.4146347, -167.3780518, 21.0975609, 0.0070497
-0.5595703, 0.019043, -0.9667969, -21.5243912, -169.0243988, 15.4268293, -0.0077211
-0.6542969, 0.012207, -0.9619141, -19.0853672, -169.8170776, 12.9878054, -0.0083925
-0.8461914, 0.0200195, -0.9643555, -15.4268293, -172.2561035, 10.4878054, -0.0117494
-0.9150391, 0.027832, -0.9926758, -13.7195129, -173.4146423, 10.6707315, -0.0302129
-0.9760742, 0.0332031, -1.0766602, -11.5243902, -176.2195129, 13.4756098, -0.0533761
-0.9838867, 0.0424805, -1.1044922, -12.560976, -178.4146423, 16.8292694, -0.070161
-0.9853516, 0.081543, -1.0859375, -14.8780489, -179.3292694, 18.4146347, -0.0970169
-0.9716797, 0.1220703, -1.0371094, -21.5853672, -180.6097565, 20.5487804, -0.115816
-0.9150391, 0.1977539, -0.9228516, -24.2073174, -180.7926941, 21.3414631, -0.1460288
-0.8632812, 0.2270508, -0.8798828, -27.3780499, -181.0365906, 21.8902435, -0.148043
-0.737793, 0.2265625, -0.8637695, -28.0487804, -180.8536682, 21.5853672, -0.148043
-0.644043, 0.1625977, -0.8930664, -28.1097565, -179.3902435, 19.3292694, -0.1238727
-0.6269531, 0.128418, -0.9125977, -27.9878063, -178.8414612, 17.9268303, -0.1003738
-0.668457, 0.074707, -0.9453125, -27.1341476, -177.9878082, 15.3048782, -0.0728466
-0.7148438, 0.0615234, -0.9462891, -26.9512196, -177.6219482, 14.0853662, -0.0433051
-0.8491211, 0.0654297, -0.918457, -27.3170738, -177.0121918, 12.8658543, -0.0275273
-0.9072266, 0.0634766, -0.8896484, -27.9268303, -177.2561035, 13.1097565, -0.0234989
-0.9746094, 0.0566406, -0.8359375, -27.7439022, -178.0487823, 13.5975609, -0.027863
-0.9702148, 0.0351562, -0.8125, -28.1097565, -177.5609741, 15.5487804, -0.0285344
-0.9101562, 0.0039062, -0.777832, -28.4756107, -176.1585388, 15.8536587, -0.0386053
-0.8769531, 0, -0.7563477, -29.8780499, -170.5487823, 16.6463413, -0.0513619
-0.8256836, 0.0327148, -0.7070312, -30.5487804, -167.6219482, 17.1951218, -0.0463264
-0.7788086, 0.0874023, -0.6694336, -31.280489, -159.6951294, 17.9268303, -0.056733
-0.7675781, 0.1118164, -0.6591797, -31.4634151, -156.2195129, 17.9878044, -0.0476692
-0.7587891, 0.1386719, -0.659668, -31.9512196, -150.3048859, 16.8292694, -0.0379339
-0.7661133, 0.1386719, -0.6655273, -31.8292694, -148.0487823, 16.0975609, -0.0449836
-0.8046875, 0.1259766, -0.6831055, -31.8902454, -144.146347, 14.3902445, -0.0621042
-0.831543, 0.1137695, -0.6904297, -31.341465, -140.1829376, 12.3780489, -0.0540475
-0.8964844, 0.0874023, -0.7329102, -30.9756107, -138.4756165, 11.6463413, -0.0396124
-0.9287109, 0.0761719, -0.765625, -28.6585369, -136.4024353, 10.7317076, -0.0715038
-0.9980469, 0.0620117, -0.8300781, -27.6219521, -135.8536682, 10.4878054, -0.1453574
-1.034668, 0.0556641, -0.8579102, -26.5243912, -135.4878082, 10.6707315, -0.1997406
-1.0878906, 0.050293, -0.8935547, -25.6707325, -135.6707306, 11.219512, -0.2051118
-1.1186523, 0.0375977, -0.934082, -23.5365868, -137.86586, 12.5, -0.1748989
-1.125, 0.034668, -0.9560547, -22.3170738, -139.3902435, 13.4756098, -0.1416648
-1.1225586, 0.0268555, -0.9658203, -21.2195129, -142.1951294, 15, -0.1238727
-1.1152344, 0.0302734, -0.9550781, -21.7073174, -143.4756165, 15.5487804, -0.0919814
-1.0839844, 0.0708008, -0.8969727, -23.9634151, -145.4878082, 17.0731716, -0.0674754
-1.0581055, 0.1030273, -0.8613281, -26.4024391, -145.7926788, 18.3536587, -0.0506905
-0.9951172, 0.1704102, -0.8144531, -27.8048782, -145.9146423, 18.780489, -0.0399481
-0.9580078, 0.1958008, -0.8081055, -29.3902454, -146.1585388, 18.6585369, -0.017792
-0.9082031, 0.2119141, -0.8359375, -29.3292694, -147.3170776, 17.6829281, 0.0050355
-0.8969727, 0.199707, -0.8720703, -27.0731716, -150.2439117, 15.7317076, 0.0184634
-0.9248047, 0.1445312, -0.9570312, -24.7560978, -152.1951294, 14.2682934, 0.0406195
-1.0410156, 0.0859375, -0.9819336, -20.4878044, -156.4024353, 11.9512196, 0.0647898
-1.109375, 0.0678711, -0.9599609, -18.9024391, -158.4756165, 10.9756098, 0.0869459
-1.206543, 0.0561523, -0.8691406, -18.4146347, -162.1951294, 11.0365858, 0.0882887
-1.2246094, 0.0615234, -0.8183594, -19.2073174, -163.2317047, 12.0731707, 0.0772107
-1.168457, 0.0737305, -0.7651367, -20.6707325, -164.5121918, 14.9390249, 0.0694896
-1.1049805, 0.0771484, -0.7646484, -19.1463413, -164.3902435, 18.1097565, 0.0503548
-0.9682617, 0.0839844, -0.7612305, -17.3780499, -163.7804871, 18.9634151, 0.0345769
-0.9213867, 0.0961914, -0.7333984, -15.9756098, -160.7926941, 18.4756107, 0.017792
-0.8789062, 0.1591797, -0.6279297, -16.7682934, -158.5975647, 17.2560978, 0.0164492
-0.8681641, 0.2016602, -0.5732422, -18.9634151, -152.9268341, 13.7195129, 0.0104067
-0.8691406, 0.2788086, -0.5087891, -19.939024, -149.4512177, 12.1341467, 0.0050355
-0.8369141, 0.3149414, -0.5009766, -22.439024, -143.3536682, 10.6707315, 0.0023499
-0.8178711, 0.3027344, -0.5048828, -24.2682934, -140, 9.5731707, 0.0030213
-0.8022461, 0.2524414, -0.512207, -28.2317085, -134.0243988, 7.2560978, 0.0114137
-0.8129883, 0.2260742, -0.5141602, -30, -130.6097565, 5.5487804, 0.0097353
-0.862793, 0.2041016, -0.5439453, -31.9512196, -124.3292694, 2.3780489, 0.0016785
-0.9003906, 0.2084961, -0.5678711, -32.5, -119.0243912, 0.4268293, -0.0271916
-0.9794922, 0.2241211, -0.6206055, -33.4146347, -116.646347, -0.7317073, -0.0513619
-1.0102539, 0.2333984, -0.6445312, -35.7926826, -114.0853653, -1.2804878, -0.0480049
-1.0532227, 0.2163086, -0.6826172, -36.7682953, -113.7804871, -1.402439, -0.0359197
-1.0717773, 0.1894531, -0.7016602, -37.0121956, -114.9390259, -0.9146342, -0.0315557
-1.065918, 0.1142578, -0.7270508, -36.6463432, -115.5487823, -0.4878049, -0.0073854
-1.0561523, 0.0551758, -0.7207031, -36.0365868, -116.1585388, 0.4878049, -0.0097353
-1.0512695, 0.0449219, -0.7011719, -35.6707344, -116.3414688, 0.6097561, -0.010071
-1.0405273, 0.0664062, -0.6567383, -35.6707344, -114.6951218, 1.0365853, -0.0036927
-1.0268555, 0.0986328, -0.6318359, -35.8536606, -113.8414688, 1.2804878, 0.0090639
-0.9868164, 0.168457, -0.5976562, -36.6463432, -111.0365906, 2.1341465, 0.0023499
-0.9594727, 0.1933594, -0.5839844, -37.8048782, -109.4512253, 2.6829269, -0.0063783
-0.9057617, 0.2045898, -0.5820312, -37.9268303, -109.3292694, 2.6219513, 0.0073854
-0.8891602, 0.1904297, -0.5864258, -35.5487823, -109.3292694, 1.9512196, -0.0016785
-0.8769531, 0.1328125, -0.6264648, -33.2317085, -110.18293, 1.3414634, -0.0124208
-0.8935547, 0.0922852, -0.6655273, -28.2317085, -111.9512253, -0.1219512, -0.0258488
-0.9438477, 0.0268555, -0.7333984, -25.6707325, -112.9268341, -0.9146342, -0.0681468
-1.0356445, 0.0083008, -0.7470703, -22.8048782, -115.36586, -1.8292683, -0.0983597
-1.0810547, 0.0224609, -0.7304688, -22.3170738, -116.2195129, -1.5853659, -0.109102
-1.1123047, 0.0791016, -0.6733398, -22.9268303, -118.0487823, 0.6707317, -0.1037308
-1.0996094, 0.1088867, -0.6430664, -23.780489, -118.2926865, 2.7439024, -0.0950027
-1.0307617, 0.1538086, -0.6196289, -24.5731716, -118.5975647, 6.0365853, -0.0748608
-0.9775391, 0.1640625, -0.6245117, -24.3902435, -118.3536606, 8.4756098, -0.0493477
-0.8979492, 0.159668, -0.644043, -23.5975609, -118.7195129, 8.4146347, -0.0419623
-0.8803711, 0.1557617, -0.65625, -20.9146347, -119.9390259, 7.0121951, -0.0466621
-0.8930664, 0.1425781, -0.6518555, -19.939024, -120.4878082, 5.609756, -0.0339055
-0.9199219, 0.1416016, -0.628418, -19.0853672, -122.0121994, 3.6585367, -0.0352483
-0.9848633, 0.1459961, -0.5693359, -19.3902435, -122.3780518, 2.5609756, -0.0406195
-1.0244141, 0.1499023, -0.5141602, -20.3048782, -121.9512253, 2.0121951, -0.0325628
-1.0229492, 0.1523438, -0.496582, -20.8536587, -120.8536606, 2.5, -0.0308843
-0.9951172, 0.1635742, -0.4580078, -21.8292694, -117.1951218, 3.6585367, -0.03122
-0.9746094, 0.1777344, -0.4399414, -22.439024, -114.7561035, 3.9634147, -0.0359197
-0.9384766, 0.2094727, -0.4331055, -23.8414631, -109.5731735, 3.4756098, -0.070161
-0.9238281, 0.2255859, -0.440918, -24.8170738, -104.8780518, 2.6219513, -0.1272297
-0.9213867, 0.2436523, -0.4580078, -25, -103.0487823, 1.9512196, -0.1453574
-0.9311523, 0.2416992, -0.4589844, -26.9512196, -100.4268341, -0.0609756, -0.1507286
-0.9638672, 0.2338867, -0.4462891, -28.2317085, -99.5121994, -1.0365853, -0.1416648
-0.9775391, 0.2246094, -0.4375, -31.0365868, -96.7073212, -2.8658538, -0.1211872
-1.0087891, 0.2192383, -0.4272461, -32.6219521, -94.6341476, -3.8414636, -0.0983597
-1.0302734, 0.2255859, -0.449707, -35.0609779, -89.3902435, -5.1219511, -0.0882887
-1.0395508, 0.2231445, -0.4750977, -35.7317085, -87.1951218, -4.9390244, -0.0849317
-1.0546875, 0.1865234, -0.5415039, -34.8780479, -85.6707306, -4.1463413, -0.0772107
-1.0605469, 0.1538086, -0.578125, -32.2560997, -86.7073212, -2.7439024, -0.0835889
-1.0864258, 0.0571289, -0.609375, -31.4024391, -87.68293, -2.4390244, -0.0798962
-1.1015625, 0.0151367, -0.6049805, -30.8536587, -90.3658524, -1.7682927, -0.1013809
-1.1328125, -0.027832, -0.5629883, -30.5487804, -90.9756088, -1.402439, -0.1131304
-1.1450195, -0.0258789, -0.5419922, -29.4512196, -90.1219559, -0.4268293, -0.1117876
-1.144043, 0.0263672, -0.5146484, -28.841465, -88.5975647, 0.3048781, -0.1030594
-1.1391602, 0.0615234, -0.5136719, -27.1951218, -86.4024429, 2.2560976, -0.0963455
-1.109375, 0.1206055, -0.5327148, -26.280489, -86.0365906, 3.1707318, -0.0997024
-1.0771484, 0.1303711, -0.5727539, -23.5365868, -87.2560959, 4.6951222, -0.1050736
-1.0727539, 0.1176758, -0.5961914, -21.9512196, -88.5365906, 4.6951222, -0.1121233
-1.0908203, 0.078125, -0.6186523, -18.4756107, -91.8292694, 3.9634147, -0.1295796
-1.1088867, 0.0644531, -0.6132812, -15.9756098, -94.3902435, 3.1707318, -0.1312581
-1.159668, 0.0737305, -0.5737305, -15.8536587, -95.6097565, 2.804878, -0.1134661
-1.1787109, 0.0878906, -0.5390625, -15.9146347, -95.3658524, 3.4146342, -0.0956741
-1.1865234, 0.1313477, -0.4790039, -16.5853653, -94.4512253, 4.3292685, -0.0809033
-1.1704102, 0.1547852, -0.449707, -17.9268303, -91.5243912, 5.8536587, -0.0419623
-1.109375, 0.1953125, -0.4150391, -18.4756107, -89.6951218, 6.7682929, -0.0231632
-1.0429688, 0.2246094, -0.3945312, -18.8414631, -86.5853653, 7.1951222, -0.0036927
-1.0175781, 0.2275391, -0.3911133, -19.2682934, -84.8780518, 6.5243902, 0.0194705
-1.0097656, 0.2353516, -0.390625, -19.5731716, -82.1951218, 4.5121951, 0.0238346
-1.0224609, 0.234375, -0.3916016, -19.6341476, -80.9756088, 3.2317073, 0.0104067
-1.0673828, 0.2260742, -0.3969727, -19.939024, -78.3536606, 0.7926829, 0.0090639
-1.0888672, 0.2246094, -0.4033203, -20.6097565, -75.8536606, -0.7317073, 0.0224918
-1.1225586, 0.203125, -0.4082031, -21.4024391, -74.5731735, -1.097561, 0.0332341
-1.1313477, 0.1899414, -0.4145508, -22.2560978, -71.6463394, -0.7926829, 0.0527047
-1.125, 0.1660156, -0.434082, -22.439024, -70.2439041, -0.0609756, 0.066804
-1.1181641, 0.1518555, -0.4487305, -22.6219521, -67.9268341, 0.8536586, 0.070161
-1.112793, 0.1196289, -0.4643555, -22.439024, -67.3170776, 1.2195122, 0.0533761
-1.109375, 0.1044922, -0.4580078, -21.7682934, -66.4634171, 1.402439, 0.0406195
-1.1118164, 0.097168, -0.4516602, -21.5243912, -65.7926865, 1.4634147, 0.0352483
-1.1166992, 0.1030273, -0.4389648, -20.9756107, -64.5121994, 1.402439, 0.0439765
-1.1171875, 0.1113281, -0.4316406, -20, -63.3536606, 1.3414634, 0.0305486
-1.1142578, 0.1416016, -0.4238281, -18.7195129, -61.4634171, 1.7073171, 0.0050355
-1.1040039, 0.15625, -0.4243164, -17.8658543, -60.3658562, 1.9512196, -0.0352483
-1.0883789, 0.1625977, -0.4282227, -17.560976, -59.5731735, 2.0731707, -0.0916457
-1.0800781, 0.159668, -0.4370117, -16.4024391, -58.5365868, 2.3170731, -0.1376364
-1.0688477, 0.1381836, -0.4555664, -16.0365849, -58.4756126, 2.2560976, -0.1950408
-1.0761719, 0.1220703, -0.4609375, -14.4512196, -58.2317085, 2.2560976, -0.1943694
-1.0898438, 0.0864258, -0.4804688, -13.4146347, -58.6585388, 2.2560976, -0.1681849
-1.112793, 0.0541992, -0.5043945, -11.341464, -58.7804909, 2.3170731, -0.1604639
-1.1293945, 0.0532227, -0.5175781, -10.6097565, -58.5975609, 2.5609756, -0.1379721
-1.1508789, 0.0766602, -0.5161133, -9.3292685, -58.5365868, 4.0243902, -0.1097734
-1.1557617, 0.0957031, -0.4941406, -9.2073174, -57.9878044, 4.6341462, -0.102388
-1.1357422, 0.1508789, -0.434082, -10.1829271, -56.6463432, 6.280488, -0.1218585
-1.112793, 0.1762695, -0.4042969, -10.1219511, -54.3292694, 7.9878049, -0.1285725
-1.0400391, 0.1982422, -0.3657227, -10, -52.8048782, 8.3536587, -0.1376364
-0.9975586, 0.1987305, -0.3540039, -9.1463413, -50.4878044, 7.9878049, -0.1453574
-0.9487305, 0.1748047, -0.3413086, -8.3536587, -49.2682953, 7.4390244, -0.1362936
-0.9438477, 0.1679688, -0.3325195, -6.4024391, -46.6463432, 5.2439027, -0.1232013
-0.9702148, 0.1601562, -0.3266602, -5.5487804, -45.1219521, 3.9634147, -0.1359579
-1.0092773, 0.1591797, -0.3408203, -4.5121951, -41.0975609, 2.6829269, -0.1272297
-1.027832, 0.1586914, -0.3569336, -4.2073174, -39.3902435, 2.1341465, -0.0943313
-1.0458984, 0.1694336, -0.3833008, -5.0609756, -35.6097565, 2.195122, -0.0594186
-1.0478516, 0.1699219, -0.4003906, -5.0609756, -33.7804871, 2.5609756, -0.0204776
-1.0361328, 0.1821289, -0.4155273, -5.670732, -30.7317085, 2.8658538, 0.0298772
-1.0283203, 0.1791992, -0.4135742, -7.1341467, -28.1707325, 2.804878, 0.066804
-1.0024414, 0.1757812, -0.40625, -8.1707315, -27.0121956, 2.5609756, 0.0715038
-0.9946289, 0.1748047, -0.4013672, -9.5731707, -24.3902435, 2.0731707, 0.0762036
-0.9755859, 0.1806641, -0.3857422, -9.8780489, -22.9268303, 1.7073171, 0.1003738
-0.9638672, 0.1899414, -0.3745117, -10.6097565, -19.4512196, 0.6707317, 0.1232013
-0.9550781, 0.21875, -0.3549805, -10.8536587, -17.8048782, -0.2439024, 0.102388
-0.9545898, 0.2451172, -0.3574219, -11.4634151, -14.8170738, -1.402439, 0.0654612
-0.9536133, 0.2470703, -0.3686523, -11.6463413, -13.3536587, -2.2560976, 0.0359197
-0.9648438, 0.234375, -0.4042969, -11.8292685, -10.9146347, -3.2317073, 0.0332341
-0.9785156, 0.2202148, -0.4243164, -11.8902445, -9.7560978, -3.9634147, 0.0453193
-1.019043, 0.1860352, -0.4589844, -12.0121956, -8.1707315, -5.2439027, 0.0466621
-1.043457, 0.1650391, -0.4716797, -11.219512, -7.1341467, -5.1829271, 0.056733
-1.0830078, 0.1132812, -0.4990234, -10.5487804, -6.890244, -4.8170733, 0.063447
-1.0869141, 0.0893555, -0.5117188, -8.1097565, -5.7926831, -3.0487804, 0.070161
-1.090332, 0.046875, -0.5273438, -6.6463418, -5.670732, -2.0121951, 0.0775463
-1.0805664, 0.0307617, -0.5249023, -3.7195122, -5.7926831, 0.0609756, 0.0762036
-1.0585938, 0.0307617, -0.5141602, -2.5609756, -5.4878049, 0.7926829, 0.0540475
-1.0390625, 0.0673828, -0.4931641, 0.3048781, -4.9390244, 2.0731707, -0.0046998
-1.0263672, 0.0839844, -0.4887695, 1.097561, -4.8170733, 2.6219513, -0.0433051
-1.0024414, 0.1210938, -0.4726562, 1.8902439, -3.9634147, 4.390244, -0.0459907
-0.9936523, 0.1298828, -0.4594727, 1.7682927, -3.7804878, 4.7560978, -0.0473335
-0.972168, 0.140625, -0.440918, 1.5853659, -2.804878, 5.1829271, -0.0308843
-0.9633789, 0.1411133, -0.4428711, 2.1341465, -1.5853659, 5.5487804, -0.0167849
-0.9643555, 0.1254883, -0.4521484, 2.804878, -0.7926829, 6.0365853, -0.03122
-0.9638672, 0.1069336, -0.4614258, 4.2682929, -0.3658537, 5.9756098, -0.0332341
-0.9790039, 0.0830078, -0.4736328, 5.0609756, -0.2439024, 6.280488, -0.0292058
-0.9882812, 0.0825195, -0.4741211, 6.3414636, 1.402439, 6.3414636, -0.0352483
-1.0107422, 0.1142578, -0.4711914, 6.9512196, 2.5609756, 6.3414636, -0.0506905
-1.0083008, 0.1635742, -0.4599609, 6.3414636, 5.7926831, 7.4390244, -0.0527047
-0.9985352, 0.1918945, -0.4506836, 6.2195125, 6.9512196, 7.8048782, -0.0506905
-0.9648438, 0.2241211, -0.4394531, 5.0609756, 10.2439022, 8.780488, -0.0607614
-0.9453125, 0.2294922, -0.4326172, 4.5121951, 11.6463413, 9.0243902, -0.0688182
-0.9199219, 0.2143555, -0.4238281, 4.2073174, 13.9634151, 8.0487804, -0.0715038
-0.9179688, 0.2060547, -0.4204102, 4.9390244, 17.1951218, 6.0365853, -0.0718395
-0.9443359, 0.1918945, -0.4262695, 5.3658538, 19.1463413, 5.1219511, -0.0718395
-0.9609375, 0.1899414, -0.4360352, 6.1585369, 22.2560978, 3.4756098, -0.0715038
-1.0102539, 0.2050781, -0.4682617, 6.4024391, 24.2682934, 2.9878049, -0.0651255
-1.0322266, 0.2114258, -0.4853516, 6.4634147, 27.2560978, 1.5243902, -0.0647898
-1.0688477, 0.2255859, -0.503418, 5.9756098, 28.7195129, 1.2804878, -0.0795605
-1.0742188, 0.2192383, -0.4985352, 4.5731707, 31.2195129, 1.8902439, -0.0970169
-1.0629883, 0.2084961, -0.4833984, 3.4146342, 33.1097565, 2.195122, -0.102388
-1.0175781, 0.1948242, -0.4458008, 2.6829269, 36.8292694, 2.8658538, -0.0970169
-0.9833984, 0.1845703, -0.4384766, 2.9268293, 38.7195129, 3.2926829, -0.0929885
-0.9335938, 0.1552734, -0.4433594, 3.7195122, 43.1707344, 2.6829269, -0.1003738
-0.9287109, 0.1552734, -0.4511719, 5.1829271, 47.0121956, 0.8536586, -0.0956741
-0.9521484, 0.1762695, -0.4746094, 5.7926831, 48.9024391, -0.6707317, -0.0906386
-0.9760742, 0.1933594, -0.4882812, 6.2195125, 52.3780518, -2.195122, -0.0956741
-1.0292969, 0.2128906, -0.5073242, 6.5243902, 53.4756126, -2.5, -0.0916457
-1.0444336, 0.2099609, -0.5170898, 6.0365853, 55.18293, -2.3780489, -0.0715038
-1.0488281, 0.175293, -0.5288086, 5.4268293, 55.9756126, -2.1341465, -0.0621042
-1.027832, 0.128418, -0.5249023, 5.609756, 57.8658562, -0.8536586, -0.0433051
-1.0205078, 0.1142578, -0.5292969, 6.3414636, 58.7195129, -0.4878049, -0.0204776
-1.0180664, 0.1040039, -0.5483398, 9.3292685, 60.6707344, -0.6097561, -0.0137636
-1.0244141, 0.1147461, -0.5561523, 10.3048782, 61.8292694, -0.3658537, 0.0023499
-1.0322266, 0.140625, -0.5742188, 12.560976, 63.2317085, 0.0609756, 0.0077211
-1.0419922, 0.1508789, -0.5756836, 13.4146347, 64.0243912, 0.3048781, 0.0238346
-1.0576172, 0.1655273, -0.5649414, 12.7439032, 64.3292694, 0.7317073, 0.0238346
-1.0595703, 0.1645508, -0.5581055, 11.8902445, 65.3658524, 1.7682927, 0.0305486
-1.0478516, 0.1601562, -0.5712891, 12.0731707, 66.4024429, 2.1341465, 0.0258488
-1.0458984, 0.1499023, -0.5830078, 13.2317076, 68.1097565, 3.5365853, 0.0057069
-1.050293, 0.1289062, -0.6142578, 13.6585369, 68.4146347, 3.7804878, 0.0137636
-1.0732422, 0.1079102, -0.6367188, 14.4512196, 68.8414688, 4.5121951, 0.0137636
-1.0888672, 0.1137695, -0.637207, 14.8170738, 69.0243912, 4.6951222, 0.0016785
-1.105957, 0.1357422, -0.644043, 15.1829271, 69.8170776, 5.9146342, -0.0070497
-1.1040039, 0.1503906, -0.6464844, 15.6707325, 70.0609741, 7.0731707, -0.0238346
-1.0820312, 0.1621094, -0.6552734, 16.8292694, 70.3048782, 8.5975609, -0.042298
-1.0742188, 0.1591797, -0.6455078, 16.9512196, 70.7926865, 8.9634151, -0.0580758
-1.0668945, 0.1616211, -0.6025391, 16.4024391, 71.4024429, 8.5975609, -0.0607614
-1.0629883, 0.1738281, -0.5791016, 16.2195129, 73.9024429, 7.9878049, -0.0694896
-1.0541992, 0.2338867, -0.5522461, 15.9146347, 75.5487823, 7.8048782, -0.0795605
-1.0395508, 0.2680664, -0.550293, 14.8170738, 79.6341476, 7.6219516, -0.1359579
-1.0107422, 0.2949219, -0.5488281, 14.2682934, 81.3414688, 7.1951222, -0.1836271
-0.984375, 0.2753906, -0.5556641, 12.7439032, 84.0853653, 5.7926831, -0.1896696
-0.9775391, 0.2460938, -0.5600586, 12.7439032, 85.3048782, 5.0609756, -0.1467002
-0.9887695, 0.1938477, -0.5698242, 13.4756098, 87.3780518, 2.6829269, -0.1218585
-1.0009766, 0.1777344, -0.5786133, 14.2682934, 88.7195129, 1.7682927, -0.154757
-1.0419922, 0.1767578, -0.6010742, 14.8170738, 91.4024429, 0.2439024, -0.2541238
-1.0634766, 0.1928711, -0.609375, 14.2073174, 95.1219559, -0.3658537, -0.3743038
-1.0820312, 0.2407227, -0.6245117, 13.2317076, 97.1341476, -0.3048781, -0.3843748
-1.0800781, 0.2509766, -0.6313477, 11.7073174, 99.6341476, 1.4634147, -0.3165637
-1.0341797, 0.2158203, -0.6611328, 11.5853662, 99.8780518, 2.5, -0.2480812
-1.0117188, 0.1791992, -0.6728516, 12.3170738, 100.18293, 3.6585367, -0.1829557
-0.996582, 0.1054688, -0.6757812, 13.3536587, 100.1219559, 3.5975611, -0.105745
-1.03125, 0.0878906, -0.6665039, 16.280489, 100.2439041, 3.1707318, -0.0359197
-1.0556641, 0.1020508, -0.6601562, 17.2560978, 100.4878082, 3.0487804, 0.0372625
-1.0917969, 0.159668, -0.6230469, 18.780489, 102.4390259, 3.8414636, 0.0802319
-1.0898438, 0.1933594, -0.5966797, 18.5365849, 103.8414688, 4.2073174, 0.1107805
-1.0366211, 0.2519531, -0.5449219, 16.6463413, 107.68293, 6.0975609, 0.1218585
-0.987793, 0.2607422, -0.5415039, 16.280489, 111.4634171, 6.4634147, 0.1070878
-0.9038086, 0.2294922, -0.5859375, 17.5, 113.2317123, 6.0975609, 0.112459
-0.8891602, 0.1958008, -0.6147461, 20.4268303, 115.4268341, 3.8414636, 0.1272297
-0.9150391, 0.1323242, -0.6665039, 21.7682934, 115.9756088, 2.0731707, 0.1634852
-0.9663086, 0.1279297, -0.675293, 23.9634151, 116.646347, -0.4268293, 0.2118257
-1.0688477, 0.1533203, -0.675293, 24.2682934, 117.3780518, -1.0365853, 0.2547951
-1.1098633, 0.2099609, -0.6860352, 23.8414631, 119.6951218, -0.1829268, 0.2662089
-1.0996094, 0.2260742, -0.6923828, 22.8658543, 120.7926865, 0.6097561, 0.2581521
-1.0405273, 0.2324219, -0.6918945, 21.4634151, 122.8048782, 1.7073171, 0.2218967
-1.0043945, 0.2255859, -0.6831055, 21.0365868, 123.8414688, 1.5853659, 0.1634852
-0.9536133, 0.2036133, -0.6503906, 20.9146347, 124.6951218, 0.6707317, 0.1044022
-0.9345703, 0.1953125, -0.6572266, 22.1951218, 126.3414688, -0.9756098, 0.0352483
-0.9262695, 0.1748047, -0.6875, 23.1707325, 126.8292694, -1.8292683, 0.0130922
-0.9418945, 0.1616211, -0.7109375, 24.3292694, 127.4390259, -4.0243902, 0.0023499
-1.0058594, 0.1542969, -0.7255859, 24.3902435, 127.5609818, -4.4512196, 0.0030213
-1.0336914, 0.1635742, -0.7319336, 25.1219521, 128.2926788, -5.1829271, 0.0043641
-1.0581055, 0.1791992, -0.7407227, 25.1829281, 128.5975647, -5.1219511, 0.0046998
-1.0527344, 0.1879883, -0.7441406, 25.1219521, 128.9634247, -4.8780489, -0.0030213
-1.0395508, 0.1782227, -0.7416992, 25.1829281, 128.8414612, -4.7560978, -0.0409552
-1.0029297, 0.1508789, -0.7236328, 25.060976, 128.2317047, -5.0609756, -0.076875
-0.9863281, 0.1411133, -0.7148438, 25, 128.7195129, -5.9756098, -0.102388
-0.9702148, 0.137207, -0.6933594, 24.8170738, 129.4512177, -6.7073174, -0.1050736
-0.9648438, 0.1455078, -0.6889648, 25.3048782, 132.1951294, -8.1707315, -0.1238727
-0.9560547, 0.1616211, -0.6992188, 25.4878063, 133.7195129, -8.719512, -0.1265583
-0.9570312, 0.1630859, -0.706543, 25.2439022, 136.4024353, -9.2682924, -0.1292439
-0.9404297, 0.1479492, -0.7143555, 25.3658543, 137.0121918, -8.9634151, -0.1359579
-0.9331055, 0.1103516, -0.7060547, 25.3658543, 138.2926788, -9.0853662, -0.1470359
-0.9321289, 0.0961914, -0.6992188, 25.3658543, 139.3292694, -9.6951218, -0.1460288
-0.9414062, 0.1083984, -0.7016602, 25.8536587, 143.3536682, -10.8536587, -0.148043
-0.956543, 0.1279297, -0.7084961, 26.1585369, 145.2439117, -11.7682934, -0.1591211
-0.9711914, 0.1723633, -0.7338867, 26.5243912, 148.9024353, -12.560976, -0.154757
-0.9755859, 0.1953125, -0.7407227, 25.4878063, 151.1585388, -13.2926836, -0.1540856
-0.9716797, 0.2045898, -0.7519531, 24.2073174, 152.1951294, -13.841464, -0.1456931
-0.9663086, 0.2016602, -0.75, 21.8902435, 154.3902435, -15.1219511, -0.1816129
-0.9472656, 0.1904297, -0.7426758, 20.8536587, 155.7317047, -15.7317076, -0.2564736
-0.9370117, 0.1845703, -0.7451172, 19.2682934, 158.1097565, -16.8902435, -0.3954528
-0.9228516, 0.1616211, -0.7695312, 18.780489, 159.2073212, -17.3170738, -0.4394293
-0.9262695, 0.1582031, -0.7773438, 17.9878044, 161.4024353, -18.4756107, -0.383032
-0.9316406, 0.1479492, -0.7856445, 17.3780499, 162.0731812, -19.1463413, -0.3108568
-0.9482422, 0.1235352, -0.8139648, 17.8658543, 163.4146423, -20.5487804, -0.2192111
-0.9589844, 0.1152344, -0.8393555, 18.2317085, 163.8414612, -20.9756107, -0.0973526
-0.9921875, 0.0957031, -0.887207, 18.6585369, 164.6951294, -21.7073174, 0.0292058
-1.0102539, 0.0888672, -0.8974609, 17.9878044, 164.2073212, -21.0365868, 0.0674754
-1.03125, 0.0805664, -0.8828125, 17.560976, 163.7195129, -20.4878044, -0.0181277
-1.0263672, 0.074707, -0.8618164, 16.2195129, 163.1097565, -18.8414631, -0.1080949
-0.9829102, 0.0605469, -0.8422852, 15.8536587, 163.2926941, -17.9268303, -0.1178302
-0.9516602, 0.0478516, -0.8564453, 17.1341476, 164.146347, -17.5, -0.0795605
-0.9101562, 0.0258789, -0.9013672, 17.7439022, 164.6951294, -17.0731716, -0.0218204
-0.9189453, 0.0546875, -0.9106445, 19.5121956, 165.2439117, -16.7682934, 0.06009
-0.9365234, 0.0756836, -0.9013672, 19.7560978, 165.36586, -16.7682934, 0.1326009
-0.9682617, 0.1274414, -0.8657227, 18.4756107, 165.0609741, -17.0731716, 0.1863127
-0.9658203, 0.1459961, -0.8540039, 17.5, 165.4268341, -17.0121956, 0.1957122
-0.9360352, 0.1484375, -0.8813477, 15.3048782, 165.8536682, -16.8292694, 0.1889982
-0.9135742, 0.1269531, -0.9101562, 14.5731707, 165.36586, -16.280489, 0.1795987
-0.8769531, 0.0605469, -0.9599609, 15.1219511, 164.6341553, -16.2195129, 0.1681849
-0.8793945, 0.0307617, -0.9628906, 15.7926836, 162.8048859, -15.7317076, 0.1527428
-0.909668, 0.0141602, -0.9331055, 15.5487804, 161.5243988, -15.9146347, 0.1493858
-0.9257812, 0.0209961, -0.9130859, 15.1219511, 161.0975647, -15.7926836, 0.1097734
-0.9414062, 0.0664062, -0.8837891, 14.1463413, 161.1585388, -15.1219511, 0.0587472
-0.9086914, 0.0986328, -0.8901367, 12.1951218, 162.4390259, -14.0853662, 0.0117494
-0.8793945, 0.1010742, -0.8964844, 12.0121956, 163.0487823, -13.5975609, -0.0218204
-0.8183594, 0.0786133, -0.9160156, 11.0365858, 163.1707306, -13.2926836, -0.0449836
-0.8051758, 0.0712891, -0.921875, 11.0975609, 162.9878082, -13.7195129, -0.0755322
-0.8032227, 0.0556641, -0.9438477, 11.341464, 162.5609741, -15.060976, -0.1050736
-0.8105469, 0.0512695, -0.9511719, 11.1585369, 161.9512177, -15.9146347, -0.1265583
-0.8364258, 0.0742188, -0.9477539, 10.5487804, 162.1341553, -16.0975609, -0.1292439
-0.8457031, 0.0893555, -0.9394531, 8.3536587, 161.8902435, -16.4634151, -0.1305867
-0.8378906, 0.112793, -0.9155273, 7.0731707, 162.2561035, -16.4634151, -0.1416648
-0.8222656, 0.1147461, -0.9091797, 4.8170733, 162.9878082, -17.1951218, -0.1272297
-0.7705078, 0.1103516, -0.9267578, 4.0853658, 163.8414612, -17.9268303, -0.1033951
-0.7368164, 0.0947266, -0.9770508, 3.6585367, 164.7561035, -19.4512196, -0.0755322
-0.737793, 0.0908203, -1.0043945, 3.3536587, 165.0609741, -19.8170738, -0.0480049
-0.7548828, 0.0869141, -1.0390625, 2.6829269, 164.0853729, -20.2439022, -0.011078
-0.7714844, 0.0893555, -1.0395508, 1.7073171, 163.6585388, -20.9146347, 0.0325628
-0.8032227, 0.0883789, -1.0380859, 0, 162.0121918, -20.7926826, 0.0547189
-0.8125, 0.0771484, -1.0385742, -0.9756098, 160.2439117, -20.4878044, 0.0785534
-0.8037109, 0.0244141, -1.03125, -1.402439, 159.2682953, -20.060976, 0.0782177
-0.7871094, -0.0175781, -1.0151367, -1.3414634, 156.7682953, -19.0243912, 0.0681468
-0.7573242, -0.0883789, -0.9599609, -1.2804878, 155.6097565, -18.5365849, 0.0543832
-0.7387695, -0.0952148, -0.940918, -1.4634147, 156.7073212, -17.9268303, 0.0339055
-0.7211914, -0.046875, -0.9345703, -0.9756098, 158.7804871, -17.439024, -0.0083925
-0.7060547, 0.0327148, -0.9692383, 0.0609756, 162.3170776, -15.7926836, -0.0325628
-0.6992188, 0.0585938, -0.9838867, 0.4268293, 163.1097565, -15.060976, -0.0379339
-0.684082, 0.0683594, -1.0004883, -0.3658537, 162.7439117, -14.4512196, -0.0365911
-0.6826172, 0.0581055, -1, -1.0365853, 161.9512177, -14.6341467, -0.0325628
-0.6791992, 0.0498047, -1.0151367, -1.5853659, 161.7073212, -15.5487804, -0.0426337
-0.6791992, 0.0478516, -1.0200195, -1.097561, 161.7682953, -15.1829271, -0.0647898
-0.6831055, 0.0195312, -1.0141602, -0.3048781, 161.2195129, -15.3048782, -0.0950027
-0.6782227, 0, -1.0102539, -0.0609756, 160.1219482, -15.6097565, -0.1198444
-0.6757812, -0.0356445, -1.0009766, -0.2439024, 160.4878082, -15.6097565, -0.1661707
-0.6762695, -0.0454102, -1.0141602, 0, 161.646347, -15, -0.1695277
-0.6694336, -0.0415039, -1.0673828, 1.5243902, 162.1341553, -14.5731707, -0.1601282
-0.6772461, -0.0063477, -1.1196289, 3.9024391, 162.8048859, -12.0731707, -0.161471
-0.6767578, 0.0053711, -1.1201172, 4.7560978, 162.4390259, -10.9146347, -0.1990692
-0.6728516, 0.0078125, -1.0795898, 4.2073174, 159.8780518, -9.3902445, -0.2017548
-0.6616211, -0.0048828, -1.0463867, 3.4146342, 158.5975647, -8.5365858, -0.1467002
-0.6230469, -0.0268555, -0.9936523, 1.8292683, 158.1097565, -8.1097565, -0.0950027
-0.5976562, -0.0317383, -0.9921875, 1.5243902, 159.8780518, -7.6829271, -0.0275273
-0.5541992, -0.0302734, -1.0224609, 1.8292683, 160.9756165, -7.0121951, 0.03122
-0.5410156, -0.0327148, -1.0458984, 3.7804878, 162.3780518, -5.9756098, 0.0587472
-0.5439453, -0.0292969, -1.0825195, 4.8780489, 161.7682953, -5.609756, 0.0802319
-0.5566406, -0.034668, -1.0952148, 7.8048782, 158.5975647, -5.0609756, 0.1010452
-0.5932617, -0.0449219, -1.1098633, 9.2682924, 156.8292694, -4.6341462, 0.0936599
-0.6391602, -0.0424805, -1.097168, 11.7682934, 152.9878082, -3.8414636, 0.0835889
-0.6489258, -0.0244141, -1.0756836, 11.0975609, 151.7682953, -2.804878, 0.0802319
-0.6147461, 0.0209961, -1.0239258, 7.9878049, 151.2195129, -0.6707317, 0.0654612
-0.5693359, 0.0424805, -1.0195312, 5.9756098, 151.7073212, 0, 0.0396124
-0.4750977, 0.074707, -1.0322266, 3.4146342, 153.9024353, -0.1829268, -0.0050355
-0.4360352, 0.0810547, -1.0639648, 3.9634147, 154.0853729, -1.4634147, -0.0540475
-0.3881836, 0.0698242, -1.152832, 4.8170733, 154.2073212, -2.4390244, -0.1829557
-0.390625, 0.0556641, -1.1884766, 5.5487804, 153.5975647, -4.390244, -0.3054856
-0.4467773, 0.0268555, -1.184082, 5.5487804, 151.8902435, -5, -0.3226062
-0.4829102, 0.0214844, -1.1416016, 4.3292685, 148.3536682, -6.3414636, -0.2749371
-0.5214844, 0.0141602, -1.0268555, 3.0487804, 147.86586, -7.3170733, -0.1950408
-0.4980469, 0.0493164, -0.9785156, 0.3048781, 150.7317047, -8.9634151, -0.0876173
-0.4570312, 0.0634766, -0.9873047, -0.5487805, 153.2926941, -9.6341467, 0.003357
-0.3720703, 0.0717773, -1.0473633, -1.2804878, 158.0487823, -9.6341467, 0.0506905
-0.3334961, 0.0678711, -1.0751953, -1.3414634, 159.2073212, -9.8170738, 0.0923171
-0.3173828, 0.0644531, -1.0947266, -2.6219513, 159.2073212, -11.8292685, 0.1003738
-0.3227539, 0.0703125, -1.0952148, -4.1463413, 158.9634247, -13.780488, 0.0976883
-0.359375, 0.0717773, -1.0986328, -4.6951222, 158.9634247, -14.3292685, 0.0829175
-0.3774414, 0.0644531, -1.1132812, -4.8170733, 159.0243988, -15.6097565, 0.0718395
-0.3999023, 0.0322266, -1.1416016, -3.9634147, 158.7195129, -15.9146347, 0.0560616
-0.4082031, 0.0107422, -1.1489258, -3.6585367, 157.2561035, -16.2195129, 0.0469978
-0.421875, -0.0214844, -1.1191406, -4.0853658, 156.4634247, -15.9756098, 0.0416266
-0.4101562, -0.043457, -1.0859375, -5.4268293, 156.0975647, -15.5487804, -0.0083925
-0.394043, -0.0483398, -1.0825195, -6.2195125, 156.7073212, -15.1829271, -0.1386435
-0.347168, -0.0556641, -1.1108398, -6.0975609, 157.86586, -13.9634151, -0.2688945
-0.3295898, -0.0581055, -1.1347656, -5.609756, 158.6585388, -12.8658543, -0.2903792
-0.3237305, -0.0620117, -1.1660156, -4.390244, 158.4146423, -11.6463413, -0.2319677
-0.3349609, -0.0620117, -1.1547852, -4.390244, 156.4634247, -10.3658543, -0.1560998
-0.3520508, -0.0629883, -1.1132812, -3.5365853, 155.36586, -9.6951218, -0.1121233
-0.3535156, -0.0610352, -1.1123047, -1.7073171, 154.6951294, -9.9390249, -0.0681468
-0.3442383, -0.0708008, -1.1416016, -0.4268293, 155.4268341, -9.3902445, -0.0369268
-0.3447266, -0.0913086, -1.1489258, 1.9512196, 154.8170776, -8.2317076, -0.066804
-0.3427734, -0.1298828, -1.1186523, 2.8658538, 153.9634247, -7.5, -0.0976883
-0.3334961, -0.121582, -1.0649414, 3.1097562, 152.6829376, -6.3414636, -0.1104448
-0.3168945, -0.1040039, -1.0668945, 3.2926829, 153.2317047, -5.5487804, -0.0997024
-0.2817383, -0.0493164, -1.1132812, 4.2073174, 156.7073212, -3.4756098, -0.0802319
-0.2670898, -0.027832, -1.1401367, 4.390244, 157.9878082, -2.195122, -0.0436408
-0.2563477, -0.0224609, -1.1621094, 4.0243902, 157.0731812, -0.6707317, -0.0184634
-0.2573242, -0.0292969, -1.15625, 4.0243902, 153.8414612, -0.9756098, 0.014435
-0.265625, -0.0668945, -1.1367188, 4.5121951, 152.9268341, -1.5853659, 0.0580758
-0.2695312, -0.0742188, -1.1230469, 5.7926831, 152.9268341, -2.4390244, 0.1131304
-0.2802734, -0.0493164, -1.0917969, 5.609756, 153.5365906, -2.195122, 0.1755703
-0.2719727, -0.0273438, -1.081543, 4.0243902, 154.8780518, -1.2195122, 0.2225681
-0.2275391, 0.0151367, -1.0786133, 3.1097562, 155.6097565, -0.6707317, 0.2628519
-0.1787109, 0.043457, -1.0742188, 1.4634147, 157.5, -1.5243902, 0.2789654
-0.1577148, 0.059082, -1.0771484, 0.4268293, 158.2317047, -2.1341465, 0.281651
-0.1293945, 0.0581055, -1.0878906, -1.2195122, 159.3902435, -4.0243902, 0.2615091
-0.1235352, 0.0395508, -1.0942383, -1.3414634, 159.9390259, -5.3048782, 0.2373388
-0.1357422, 0.003418, -1.0966797, -0.8536586, 160, -8.2926826, 0.2081331
-0.1464844, -0.0117188, -1.0908203, 0.3658537, 159.2682953, -10.2439022, 0.1621424
-0.1708984, -0.0449219, -1.0854492, 0.3658537, 159.5121918, -10.9756098, 0.0681468
-0.171875, -0.0561523, -1.1000977, -0.0609756, 160.7926941, -12.3780489, -0.0198062
-0.1870117, -0.0566406, -1.1318359, -0.6097561, 161.9512177, -12.3170738, -0.076875
-0.1918945, -0.0551758, -1.1362305, -1.402439, 162.9268341, -10.7926836, -0.0674754
-0.1669922, -0.0712891, -1.140625, -1.402439, 162.3170776, -10.3048782, -0.0258488
-0.15625, -0.0917969, -1.1411133, -0.9146342, 161.8292694, -10.4878054, -0.1211872
-0.1572266, -0.1025391, -1.1362305, -0.7317073, 161.646347, -11.0365858, -0.4139162
-0.1689453, -0.0981445, -1.1367188, -0.8536586, 162.2561035, -10.7317076, -0.5737087
-0.1762695, -0.0893555, -1.140625, -1.1585366, 162.5, -9.2073174, -0.6072786
-0.1796875, -0.065918, -1.1386719, -1.2195122, 162.2561035, -8.1707315, -0.5535668
-0.1679688, -0.0595703, -1.1289062, -1.8292683, 161.4024353, -7.3170733, -0.4149233
-0.1323242, -0.0717773, -1.1289062, -2.0121951, 160.8536682, -7.2560978, -0.2584878
-0.1196289, -0.078125, -1.137207, -2.1341465, 160.2439117, -6.3414636, -0.0923171
-0.1054688, -0.0874023, -1.1484375, -2.3170731, 159.9390259, -5.9756098, 0.0453193
-0.1083984, -0.0952148, -1.144043, -3.1097562, 158.5365906, -4.5731707, 0.1463645
-0.1235352, -0.0952148, -1.112793, -3.9634147, 157.9878082, -4.5121951, 0.2423743
-0.1279297, -0.0727539, -1.0722656, -5.670732, 156.9512177, -3.3536587, 0.3279774
-0.1157227, -0.0708008, -1.0698242, -5.8536587, 156.9512177, -3.1707318, 0.3914244
-0.0820312, -0.1000977, -1.0961914, -5.1829271, 157.3780518, -2.6219513, 0.4092164
-0.0800781, -0.1176758, -1.0981445, -3.1707318, 156.7682953, -2.804878, 0.4374151
-0.0957031, -0.1274414, -1.0361328, -2.9878049, 155.9146423, -2.6219513, 0.4542
-0.1020508, -0.0981445, -0.9750977, -4.9390244, 155.4268341, -1.4634147, 0.4729992
-0.0522461, -0.0087891, -0.8740234, -6.5243902, 156.7073212, -0.6707317, 0.4870985
0.0043945, 0.0141602, -0.8618164, -7.6829271, 161.8902435, -0.3658537, 0.4652781
0.1323242, -0.0317383, -0.9243164, -6.7682929, 164.5121918, -1.1585366, 0.4145876
0.1601562, -0.1083984, -1.0014648, -2.8658538, 167.5609741, -4.4512196, 0.3481193
0.1176758, -0.1162109, -1.0166016, -1.4634147, 167.3170776, -5.9146342, 0.2863508
-0.0014648, -0.0664062, -1.0166016, -0.3658537, 165.36586, -7.6219516, 0.218204
-0.0444336, -0.0385742, -1.0424805, -0.1829268, 165.3048859, -7.9268293, 0.148043
-0.090332, -0.0644531, -1.1240234, -0.3048781, 166.0975647, -7.1341467, 0.0882887
-0.0908203, -0.1123047, -1.1352539, -0.2439024, 164.5731812, -6.5243902, 0.0023499
-0.0917969, -0.1860352, -1.0664062, -1.0365853, 162.5, -6.1585369, -0.0718395
-0.0766602, -0.1845703, -1.0175781, -2.5609756, 160.4268341, -5.609756, -0.1373007
-0.0234375, -0.1279297, -0.9667969, -2.9878049, 161.5243988, -5.0609756, -0.1910124
0.0161133, -0.1000977, -0.9829102, -1.4634147, 167.0731812, -3.9634147, -0.2789654
0.0917969, -0.1040039, -1.0532227, -0.6707317, 169.4512177, -3.5365853, -0.4582284
0.112793, -0.1625977, -1.0795898, 0.7926829, 169.7561035, -3.2317073, -0.5810941
0.1035156, -0.1855469, -1.0620117, 1.3414634, 168.6585388, -3.7195122, -0.6113069
0.0566406, -0.1914062, -1.0253906, 2.5609756, 166.646347, -4.6341462, -0.5817655
0.0268555, -0.1699219, -1.0200195, 3.5365853, 166.4634247, -4.5121951, -0.54551
-0.0029297, -0.1269531, -1.0395508, 5.9756098, 167.1951294, -3.0487804, -0.4803845
0, -0.1186523, -1.0546875, 7.6829271, 165.9756165, -1.6463414, -0.4233158
0.0146484, -0.1210938, -1.0209961, 7.6829271, 164.7561035, -1.8902439, -0.372961
0.0214844, -0.1230469, -0.9824219, 5.8536587, 160.8536682, -2.2560976, -0.3353628
0.0546875, -0.1000977, -0.9140625, 5, 159.7561035, -2.4390244, -0.2836652
0.0864258, -0.0698242, -0.9018555, 4.390244, 160.36586, -2.5, -0.2192111
0.1616211, -0.0327148, -0.9394531, 4.5731707, 161.0975647, -2.3170731, -0.1413291
0.2104492, -0.0371094, -0.9829102, 5.8536587, 162.0121918, -2.6219513, -0.0782177
0.2143555, -0.0512695, -0.9868164, 6.280488, 161.2195129, -3.4756098, -0.0194705
0.1826172, -0.0751953, -0.9633789, 7.0121951, 157.7439117, -6.5243902, 0.0164492
0.1557617, -0.0693359, -0.9360352, 7.2560978, 155.8536682, -8.1707315, 0.0386053
0.1166992, -0.0253906, -0.8886719, 4.6951222, 153.5365906, -9.3292685, 0.0399481
0.1176758, 0.0009766, -0.8613281, -1.0365853, 152.7439117, -8.6585369, 0.0198062
0.1645508, 0.0253906, -0.7944336, -4.0853658, 153.0487823, -8.3536587, 0.0016785
0.2050781, 0.0175781, -0.769043, -7.3170733, 153.1097565, -9.4512196, -0.0151064
0.3178711, -0.046875, -0.7880859, -6.7073174, 153.0487823, -10.6097565, -0.0379339
0.3613281, -0.0874023, -0.8295898, -2.5, 153.2317047, -13.5975609, -0.0449836
0.3583984, -0.1425781, -0.9248047, -0.4878049, 153.5365906, -14.7560978, -0.0909743
0.2460938, -0.1245117, -0.9165039, 0.0609756, 154.5731812, -15.8536587, -0.1399863
0.1855469, -0.0947266, -0.8735352, -1.2195122, 154.3902435, -15.4268293, -0.1675135
0.1342773, -0.0717773, -0.7963867, -3.7804878, 152.6829376, -14.0243902, -0.1957122
0.1479492, -0.0834961, -0.793457, -4.5731707, 151.8292694, -13.4146347, -0.2017548
0.2294922, -0.1508789, -0.8491211, -4.7560978, 151.9512177, -11.341464, -0.1802701
0.2636719, -0.199707, -0.8798828, -3.0487804, 153.2926941, -7.9878049, -0.1362936
0.2954102, -0.2602539, -0.8676758, -2.0731707, 153.5975647, -6.7682929, -0.0721752
0.2885742, -0.2612305, -0.8237305, 0.1829268, 152.3170776, -5.1829271, -0.0486763
0.2578125, -0.2143555, -0.7553711, 1.2804878, 151.2195129, -4.3292685, -0.0352483
0.246582, -0.1777344, -0.7548828, 4.9390244, 149.6951294, -1.7073171, -0.0090639
0.2573242, -0.1157227, -0.8154297, 7.2560978, 149.5121918, -0.4878049, -0.0010071
0.2700195, -0.0996094, -0.8466797, 9.8170738, 148.4756165, 1.0365853, 0.0016785
0.2705078, -0.0966797, -0.8256836, 10.4878054, 147.0731812, 1.0365853, -0.0063783
0.2832031, -0.1098633, -0.7524414, 11.0365858, 143.4146423, 0.6707317, -0.0419623
0.2949219, -0.1176758, -0.7255859, 12.4390249, 141.5853729, 0, -0.1386435
0.3266602, -0.1210938, -0.7275391, 16.1585369, 139.7561035, -0.7317073, -0.2030976
0.3408203, -0.1064453, -0.7416992, 17.9268303, 139.6341553, -0.0609756, -0.2400244
0.371582, -0.0820312, -0.7324219, 18.1707325, 139.3292694, 0.4268293, -0.24271
0.3847656, -0.074707, -0.722168, 17.7439022, 137.6219482, 0.1219512, -0.2225681
0.4106445, -0.0732422, -0.6831055, 18.2317085, 136.0365906, -0.9756098, -0.1856413
0.4150391, -0.0708008, -0.6791992, 20.7317085, 133.8414612, -3.1097562, -0.1510643
0.4160156, -0.0512695, -0.6850586, 21.280489, 133.2926788, -3.9634147, -0.1225299
0.4145508, -0.0371094, -0.6860352, 22.3170738, 132.2561035, -4.9390244, -0.0862745
0.4199219, -0.0317383, -0.6713867, 22.1341476, 131.5243988, -5, -0.076875
0.4350586, -0.0424805, -0.6455078, 20.6097565, 129.2073212, -6.2195125, -0.1856413
0.4453125, -0.059082, -0.640625, 20.060976, 127.8048782, -7.0121951, -0.3346914
0.4570312, -0.0712891, -0.6674805, 20.3048782, 125.0609818, -8.3536587, -0.3628901
0.4619141, -0.0698242, -0.6865234, 19.2682934, 123.9024429, -9.5731707, -0.3494621
0.4399414, -0.0273438, -0.6899414, 17.6829281, 123.4146347, -9.6341467, -0.376318
0.4228516, 0.0048828, -0.6860352, 12.6829271, 122.3780518, -9.7560978, -0.3904173
0.4008789, 0.0317383, -0.684082, 10.060976, 120.9756088, -9.3902445, -0.3951171
0.4155273, 0.0185547, -0.6850586, 6.7682929, 118.1097565, -8.1707315, -0.3924315
0.4501953, -0.0498047, -0.6640625, 5.3048782, 116.3414688, -8.0487804, -0.376318
0.4750977, -0.1323242, -0.6547852, 5.4878049, 112.6219559, -9.2682924, -0.3256275
0.4697266, -0.1552734, -0.6679688, 7.0731707, 110.4268341, -9.9390249, -0.252781
0.4399414, -0.1572266, -0.7172852, 10.8536587, 107.1341476, -10.060976, -0.1923552
0.4165039, -0.1293945, -0.7167969, 11.7073174, 106.2195129, -9.6341467, -0.1607996
0.3608398, -0.0429688, -0.6538086, 8.0487804, 104.8170776, -9.0243902, -0.1319295
0.3432617, 0.0048828, -0.6010742, 2.9268293, 102.7439041, -7.9268293, -0.0862745
0.3725586, 0.0239258, -0.5522461, 2.2560976, 101.4634171, -6.7073174, -0.0339055
0.418457, -0.0131836, -0.5668945, 4.9390244, 98.9024429, -5.1219511, 0.027863
0.5185547, -0.1303711, -0.605957, 6.8292685, 97.6219559, -4.9390244, 0.1003738
0.5473633, -0.1850586, -0.6118164, 8.2317076, 95.9146347, -5.7317076, 0.1916838
0.5439453, -0.2329102, -0.5913086, 8.780488, 95.3048782, -5.9146342, 0.2759442
0.4873047, -0.1806641, -0.5541992, 10.8536587, 95.4878082, -4.5731707, 0.3165637
0.4570312, -0.1220703, -0.5410156, 11.7073174, 96.0365906, -3.4146342, 0.3259632
0.4223633, -0.0136719, -0.5366211, 12.8658543, 95.3658524, -2.0121951, 0.3192493
0.4248047, 0.0200195, -0.5449219, 12.8048782, 94.5121994, -1.7682927, 0.2930648
0.4458008, 0.027832, -0.5742188, 12.3780489, 92.1341476, -1.5853659, 0.2420386
0.4628906, -0.0009766, -0.5869141, 12.7439032, 89.0243912, -1.8902439, 0.1393149
0.5014648, -0.09375, -0.6020508, 13.4756098, 87.4390259, -1.8902439, 0.0292058
0.5126953, -0.1386719, -0.6044922, 14.8780489, 84.9390259, -2.3170731, -0.1654994
0.5083008, -0.1811523, -0.5717773, 15.4878054, 84.0853653, -2.1341465, -0.383032
0.4946289, -0.1694336, -0.5498047, 16.280489, 82.8658524, -1.3414634, -0.4461433
0.4638672, -0.0825195, -0.4946289, 16.1585369, 82.7439041, -0.6097561, -0.4065309
0.480957, 0.0200195, -0.4609375, 15.4268293, 82.4390259, 0.9756098, -0.3461051
0.5, 0.0507812, -0.4609375, 14.8780489, 81.9512177, 0.9756098, -0.2635233
0.5537109, 0.0429688, -0.4838867, 14.5121956, 80.18293, 0.1829268, -0.1574426
0.5751953, 0.0117188, -0.4985352, 14.8170738, 79.146347, -0.6707317, -0.0715038
0.5932617, -0.0703125, -0.5170898, 16.5243912, 77.0121994, -2.5, -0.056733
0.590332, -0.1010742, -0.5253906, 18.6585369, 75.2439041, -4.5731707, -0.056733
0.5585938, -0.1171875, -0.5234375, 19.8170738, 74.6951218, -5.2439027, -0.0234989
0.5317383, -0.0996094, -0.5205078, 20.7317085, 73.0487823, -5.670732, 0.0285344
0.4902344, -0.0610352, -0.5014648, 20.8536587, 71.8292694, -5.4268293, 0.0856031
0.4785156, -0.046875, -0.4941406, 20.5487804, 69.4512177, -5.3048782, 0.1607996
0.4790039, -0.0454102, -0.5004883, 20.1829281, 68.0487823, -4.8170733, 0.2212253
0.5083008, -0.0771484, -0.4951172, 19.1463413, 64.8780518, -3.2926829, 0.2568093
0.5292969, -0.1005859, -0.4829102, 18.3536587, 63.5365868, -2.804878, 0.2568093
0.5610352, -0.1079102, -0.4360352, 17.5, 61.1585388, -2.7439024, 0.2131685
0.5703125, -0.0898438, -0.4150391, 17.5, 60.7317085, -2.7439024, 0.1601282
0.5917969, -0.0415039, -0.3876953, 16.5853653, 60.18293, -2.3780489, 0.1030594
0.6020508, -0.0200195, -0.390625, 15.5487804, 60, -2.5, 0.0587472
0.6132812, -0.0097656, -0.402832, 15.1829271, 59.3902435, -2.3170731, -0.0097353
0.6176758, -0.0146484, -0.4174805, 14.1463413, 58.2926826, -2.5, -0.0822461
0.6259766, -0.0361328, -0.4272461, 12.8048782, 57.5609779, -2.6219513, -0.1228656
0.6196289, -0.0454102, -0.421875, 9.5121956, 56.7073174, -3.5365853, -0.1467002
0.6035156, -0.0419922, -0.3989258, 7.9878049, 56.0975609, -3.5365853, -0.1688563
0.597168, -0.0292969, -0.3891602, 6.280488, 54.8780518, -3.4146342, -0.1886625
0.5986328, -0.0195312, -0.3916016, 5.4268293, 53.9024391, -3.3536587, -0.2017548
0.6049805, -0.0205078, -0.4121094, 4.5121951, 51.7073174, -3.5975611, -0.2312963
0.6044922, -0.0229492, -0.4321289, 4.3292685, 50.2439041, -3.7195122, -0.2373388
0.6015625, -0.0532227, -0.4824219, 6.1585369, 46.9512215, -4.5731707, -0.235996
0.5952148, -0.065918, -0.4926758, 7.3170733, 42.9268303, -5.0609756, -0.232639
0.5683594, -0.0874023, -0.465332, 6.9512196, 41.341465, -5.8536587, -0.2531167
0.5507812, -0.0888672, -0.4282227, 5.4878049, 38.3536606, -6.4024391, -0.2776226
0.5390625, -0.0761719, -0.3754883, 5.3658538, 36.7682953, -5.8536587, -0.2970932
0.5493164, -0.0664062, -0.3652344, 7.4390244, 33.6585388, -4.8780489, -0.316228
