Application:, Trigno Discover (1.6.5)
Date/Time:, 05/02/2025 10:22:47
Collection Length (seconds):, 30.0915
wrist (81457), , , , , , bicep (81139)
sensor mode: 609, , , , , , sensor mode: 40
ACC X (G), ACC Y (G), ACC Z (G), GYRO X (deg/s), GYRO Y (deg/s), GYRO Z (deg/s), EMG 1 (mV)
370.3704 Hz, 370.3704 Hz, 370.3704 Hz, 370.3704 Hz, 370.3704 Hz, 370.3704 Hz, 2148.1481 Hz
0.9526367, -0.1552734, -0.2675781, -27.2560978, -10.3048782, 4.2682929, 0.0669718
0.9604492, -0.1640625, -0.2714844, -29.8170738, -10.6707315, 5.3658538, 0.0869459
0.9794922, -0.1723633, -0.265625, -30.9756107, -10.5487804, 6.0975609, 0.1065843
0.984375, -0.1733398, -0.2583008, -30.9146347, -9.7560978, 6.1585369, 0.1203479
0.9887695, -0.1933594, -0.2519531, -30.6097565, -7.8048782, 5.7926831, 0.1273976
0.9848633, -0.2094727, -0.2504883, -31.0365868, -6.5243902, 5.7926831, 0.1206836
0.9677734, -0.25, -0.2397461, -32.0731697, -4.6341462, 6.2195125, 0.1136339
0.956543, -0.2641602, -0.230957, -32.0731697, -4.2073174, 6.6463418, 0.1025559
0.9443359, -0.2768555, -0.2021484, -31.0975609, -3.2926829, 6.7682929, 0.0908064
0.9350586, -0.2724609, -0.1855469, -29.7560978, -3.1097562, 6.4024391, 0.0882887
0.9287109, -0.2368164, -0.1713867, -26.7682934, -2.8658538, 5.3658538, 0.0817426
0.9350586, -0.2084961, -0.1879883, -25.7926826, -2.9878049, 4.8780489, 0.064622
0.9404297, -0.1982422, -0.2060547, -25.9756107, -4.5121951, 3.9634147, 0.0454871
0.9550781, -0.1787109, -0.2436523, -28.1707325, -5, 4.5731707, 0.0287022
0.9667969, -0.1723633, -0.2597656, -29.9390259, -5.1829271, 5.4268293, -0.0030213
0.987793, -0.1782227, -0.2666016, -32.1341476, -4.1463413, 6.7073174, -0.0270237
0.9926758, -0.1811523, -0.2636719, -32.9268303, -3.3536587, 7.7439027, -0.043473
0.9916992, -0.1811523, -0.2490234, -33.5975609, -1.7073171, 8.6585369, -0.0475013
0.9848633, -0.1782227, -0.2368164, -33.5365868, -0.6097561, 9.0853662, -0.047837
0.9589844, -0.184082, -0.2280273, -33.9024391, 0.7926829, 9.2682924, -0.0464942
0.949707, -0.1875, -0.2265625, -34.5731697, 1.0365853, 9.3292685, -0.0454871
0.9238281, -0.1962891, -0.2265625, -35.0609779, 0.6707317, 9.5731707, -0.0449836
0.9243164, -0.2109375, -0.2197266, -35.6707344, 0.4878049, 9.7560978, -0.0431373
0.9277344, -0.2124023, -0.2124023, -35.2439041, -0.0609756, 9.4512196, -0.0384375
0.9443359, -0.2290039, -0.1923828, -33.1707306, 0.2439024, 9.5731707, -0.0391089
0.9545898, -0.2319336, -0.1835938, -32.1951218, 0.5487805, 9.2073174, -0.0384375
0.9677734, -0.2382812, -0.1811523, -30.3658543, 1.097561, 8.719512, -0.0325628
0.965332, -0.2407227, -0.1791992, -29.5121956, 1.3414634, 8.5975609, -0.0283665
0.9736328, -0.2387695, -0.1782227, -27.9268303, 1.4634147, 8.2926826, -0.0384375
0.9711914, -0.2412109, -0.1816406, -27.6219521, 1.2804878, 8.2317076, -0.0527047
0.9692383, -0.2363281, -0.1894531, -27.2560978, 0.9756098, 8.2926826, -0.0555581
0.9682617, -0.2319336, -0.1914062, -26.9512196, 1.0365853, 7.8658538, -0.0542153
0.9697266, -0.2348633, -0.1943359, -26.2195129, 0.5487805, 7.6219516, -0.0503548
0.9604492, -0.2382812, -0.1977539, -26.2195129, 0.6097561, 7.1951222, -0.0446479
0.9594727, -0.2353516, -0.2011719, -26.280489, 0.4878049, 7.1951222, -0.0404517
0.953125, -0.2348633, -0.1987305, -26.1585369, 0.7317073, 6.890244, -0.0344091
0.9516602, -0.2397461, -0.190918, -26.0975609, 0.7926829, 6.7073174, -0.0424659
0.9482422, -0.2519531, -0.1811523, -25.7317085, 0.4268293, 6.5243902, -0.0552224
0.9458008, -0.2587891, -0.1782227, -25, 0.4268293, 6.1585369, -0.0619364
0.9375, -0.2587891, -0.1621094, -23.9024391, 0.3048781, 5.8536587, -0.064622
0.9379883, -0.2617188, -0.1538086, -22.8048782, 0.0609756, 5.670732, -0.0681468
0.9379883, -0.2519531, -0.1591797, -22.0731716, -0.1829268, 4.6951222, -0.0572366
0.9316406, -0.2460938, -0.168457, -21.7073174, -0.9146342, 4.2073174, -0.0392767
0.9291992, -0.2348633, -0.1884766, -21.7073174, -2.2560976, 4.1463413, -0.023331
0.9331055, -0.215332, -0.1870117, -21.5853672, -2.3780489, 4.2073174, 0.0006714
0.9433594, -0.2089844, -0.1791992, -20.7926826, -3.4756098, 3.4146342, 0.0169528
0.9536133, -0.2143555, -0.1665039, -20, -3.7195122, 2.6219513, 0.0253452
0.9521484, -0.2216797, -0.1591797, -19.6341476, -3.4756098, 2.2560976, 0.0243381
0.9521484, -0.2255859, -0.152832, -19.2073174, -3.9024391, 2.0731707, 0.0253452
0.9467773, -0.2290039, -0.1542969, -18.780489, -4.390244, 1.7682927, 0.0288701
0.9384766, -0.2314453, -0.1669922, -18.1707325, -4.9390244, 1.2195122, 0.023331
0.9282227, -0.2363281, -0.1728516, -17.9268303, -5.2439027, 0.9756098, 0.0132601
0.9233398, -0.2402344, -0.1791992, -17.560976, -6.5243902, 0.8536586, 0.0023499
0.9287109, -0.2363281, -0.1821289, -17.3170738, -6.5853658, 0.3658537, -0.0283665
0.934082, -0.2338867, -0.1699219, -16.4634151, -7.3170733, -0.1829268, -0.0740215
0.940918, -0.2231445, -0.1665039, -16.0365849, -7.3780489, -0.6707317, -0.1126268
0.9423828, -0.2197266, -0.1694336, -14.9390249, -7.8048782, -1.2804878, -0.1250477
0.9482422, -0.21875, -0.1850586, -14.5121956, -8.841464, -1.7682927, -0.1210193
0.9482422, -0.2207031, -0.190918, -14.2073174, -8.9634151, -1.6463414, -0.1099413
0.9545898, -0.2294922, -0.215332, -13.780488, -9.2073174, -1.2195122, -0.0803998
0.953125, -0.2260742, -0.2285156, -13.4756098, -8.719512, -0.6097561, -0.0431373
0.9511719, -0.2060547, -0.2631836, -13.0487804, -7.1951222, -0.4268293, -0.0135958
0.9487305, -0.1899414, -0.2753906, -12.8048782, -6.280488, -0.4268293, 0.0038605
0.9521484, -0.1791992, -0.28125, -13.0487804, -5.2439027, 0.1219512, 0.0196384
0.9570312, -0.1748047, -0.2734375, -13.0487804, -4.7560978, 0.4878049, 0.0330663
0.972168, -0.1826172, -0.2490234, -14.2682934, -3.9024391, 0.6707317, 0.0325628
0.9702148, -0.1962891, -0.2197266, -14.8780489, -3.4756098, 0.7926829, 0.026688
0.9619141, -0.2060547, -0.2045898, -16.0975609, -2.195122, 1.1585366, 0.0273594
0.9462891, -0.2231445, -0.1894531, -16.6463413, -2.0731707, 1.5243902, 0.0057069
0.9404297, -0.2304688, -0.184082, -16.8902435, -2.6829269, 1.6463414, -0.0206455
0.9277344, -0.2285156, -0.1889648, -16.1585369, -4.1463413, 2.0121951, -0.0391089
0.9272461, -0.2231445, -0.1953125, -15.8536587, -4.8780489, 2.0731707, -0.0468299
0.9331055, -0.206543, -0.2148438, -16.1585369, -5.4878049, 2.0731707, -0.0508583
0.9375, -0.2006836, -0.2182617, -15.8536587, -5.3658538, 1.9512196, -0.0498512
0.9580078, -0.2041016, -0.2055664, -16.6463413, -5.9756098, 1.7682927, -0.0407874
0.965332, -0.2104492, -0.1914062, -16.9512196, -6.0365853, 1.5853659, -0.0253452
0.9731445, -0.2192383, -0.1791992, -17.1341476, -6.7073174, 1.3414634, -0.0162814
0.9584961, -0.2294922, -0.1787109, -16.9512196, -6.6463418, 1.2195122, -0.0115816
0.9467773, -0.2382812, -0.1787109, -17.6219521, -6.1585369, 1.5853659, -0.0035248
0.9370117, -0.2363281, -0.1787109, -18.0487804, -7.0731707, 2.2560976, -0.0028534
0.9370117, -0.2397461, -0.1738281, -17.6219521, -7.8658538, 2.2560976, -0.0095674
0.9404297, -0.2368164, -0.1708984, -16.6463413, -9.3902445, 1.6463414, -0.0176242
0.9462891, -0.2333984, -0.1728516, -16.3414631, -9.8780489, 1.3414634, -0.0270237
0.9550781, -0.2260742, -0.1865234, -15.9146347, -10.3048782, 0.7317073, -0.0404517
0.9619141, -0.2255859, -0.1918945, -16.0975609, -10.4878054, 0.4268293, -0.0595865
0.96875, -0.2280273, -0.2026367, -16.8902435, -10.3658543, 1.097561, -0.0773785
0.9741211, -0.2207031, -0.2080078, -16.9512196, -10.2439022, 1.097561, -0.0933242
0.9785156, -0.2114258, -0.2202148, -17.0121956, -9.7560978, 1.4634147, -0.090135
0.9799805, -0.1933594, -0.2260742, -17.0731716, -9.5731707, 1.7682927, -0.0632792
0.9770508, -0.1826172, -0.2290039, -17.560976, -9.4512196, 2.1341465, -0.0095674
0.9770508, -0.1728516, -0.2280273, -18.5365849, -9.3292685, 2.0121951, 0.0491798
0.9746094, -0.1743164, -0.2304688, -18.780489, -9.2073174, 2.2560976, 0.0656291
0.9829102, -0.2001953, -0.2211914, -20.3048782, -8.6585369, 2.9878049, 0.0605936
0.9863281, -0.215332, -0.2177734, -20.3658543, -8.2317076, 3.2317073, 0.0481727
0.987793, -0.2299805, -0.2114258, -20, -7.1341467, 3.4756098, 0.0273594
0.980957, -0.2338867, -0.2094727, -19.3292694, -6.8292685, 3.2926829, 0.0186313
0.9794922, -0.234375, -0.2104492, -17.6829281, -6.280488, 3.2317073, 0.0146029
0.972168, -0.2265625, -0.2084961, -17.0121956, -6.1585369, 3.3536587, 0.0119173
0.9775391, -0.199707, -0.2045898, -16.0365849, -5.7317076, 3.2317073, 0.0102388
0.9853516, -0.1875, -0.1987305, -16.4024391, -5.5487804, 3.1097562, 0.0031891
0.9882812, -0.1831055, -0.1977539, -16.8902435, -5.9756098, 2.3780489, -0.005539
0.9746094, -0.1796875, -0.2011719, -18.0487804, -6.2195125, 2.6219513, -0.0347448
0.9716797, -0.1806641, -0.2070312, -18.5365849, -5.9756098, 3.1097562, -0.0542153
0.9643555, -0.1914062, -0.2192383, -19.8170738, -5.7317076, 4.1463413, -0.0605936
0.9628906, -0.1967773, -0.2211914, -20.1829281, -5.4878049, 4.5121951, -0.0834211
0.9672852, -0.1987305, -0.2167969, -20, -5.3048782, 4.7560978, -0.10692
0.9697266, -0.2055664, -0.2167969, -19.6951218, -5.2439027, 4.5731707, -0.110277
0.972168, -0.222168, -0.2021484, -19.3902435, -5.4878049, 4.2682929, -0.1032273
0.9736328, -0.2329102, -0.1977539, -19.0853672, -5.670732, 4.0243902, -0.0908064
0.9755859, -0.2509766, -0.190918, -19.1463413, -5.609756, 3.9634147, -0.0663005
0.972168, -0.2475586, -0.1879883, -18.3536587, -5.2439027, 4.3292685, -0.0337377
0.9716797, -0.2353516, -0.1835938, -16.7073174, -5.3048782, 4.7560978, -0.0179599
0.9746094, -0.2026367, -0.1796875, -15.1219511, -5.1219511, 4.8780489, -0.0105745
0.9760742, -0.1889648, -0.1855469, -14.6951227, -5.670732, 4.5121951, -0.0015106
0.9799805, -0.1767578, -0.1943359, -15.5487804, -6.2195125, 4.4512196, 0.0125887
0.9814453, -0.1831055, -0.2001953, -16.8902435, -6.5853658, 4.6341462, 0.0209812
0.9838867, -0.2016602, -0.2084961, -19.2682934, -7.6219516, 5.1829271, 0.0256809
0.9799805, -0.2089844, -0.2084961, -19.8780499, -7.6219516, 5.4268293, 0.0260166
0.9873047, -0.2236328, -0.1958008, -19.8170738, -7.9268293, 5.9146342, 0.0196384
0.9858398, -0.2314453, -0.1958008, -19.1463413, -7.6829271, 6.0365853, 0.0166171
0.987793, -0.2485352, -0.199707, -17.8658543, -7.9268293, 6.0365853, 0.0124208
0.9868164, -0.2529297, -0.2011719, -17.1341476, -7.6219516, 5.9756098, 0.0078889
0.9838867, -0.2485352, -0.2045898, -17.0121956, -7.6829271, 5.7317076, 0.0031891
0.9892578, -0.2436523, -0.190918, -16.1585369, -7.4390244, 5.4878049, -0.0028534
0.9873047, -0.2441406, -0.190918, -15.8536587, -7.6829271, 5.1829271, -0.0058747
0.9863281, -0.2392578, -0.1933594, -15.2439032, -7.9268293, 4.7560978, -0.0082246
0.9868164, -0.2329102, -0.1972656, -15.3048782, -8.1097565, 4.7560978, -0.0129244
0.9838867, -0.2314453, -0.2011719, -15.3658543, -8.2317076, 4.3292685, -0.0219883
0.9853516, -0.2324219, -0.1958008, -15.4878054, -8.6585369, 4.2682929, -0.0263523
0.9892578, -0.230957, -0.1723633, -14.9390249, -9.3292685, 4.2682929, -0.0384375
0.987793, -0.2353516, -0.1674805, -14.2682934, -9.3292685, 3.8414636, -0.0439765
0.9726562, -0.2392578, -0.1708984, -13.6585369, -9.5121956, 3.7195122, -0.0458228
0.9511719, -0.2421875, -0.1977539, -12.9878054, -9.5731707, 3.7195122, -0.0417945
0.9462891, -0.2416992, -0.206543, -12.8658543, -9.7560978, 4.2073174, -0.0458228
0.9477539, -0.230957, -0.2109375, -13.0487804, -9.8170738, 3.9024391, -0.0532082
0.9526367, -0.2202148, -0.2084961, -12.6829271, -10.3658543, 3.9634147, -0.0569009
0.9731445, -0.2133789, -0.2026367, -11.8902445, -10.9756098, 3.1097562, -0.068986
0.9804688, -0.2138672, -0.2011719, -11.4024391, -10.9756098, 2.7439024, -0.0894636
0.9956055, -0.21875, -0.2050781, -11.341464, -11.0975609, 2.1341465, -0.0948348
0.9956055, -0.2260742, -0.2026367, -11.5243902, -10.7926836, 2.2560976, -0.1012131
1.0019531, -0.2358398, -0.2050781, -11.8292685, -10.060976, 2.9878049, -0.0944991
0.996582, -0.2436523, -0.2006836, -11.7073174, -9.7560978, 3.0487804, -0.0780499
0.9907227, -0.2480469, -0.2055664, -10.8536587, -9.9390249, 3.3536587, -0.064622
0.9829102, -0.25, -0.2041016, -9.3292685, -10.1219511, 3.1097562, -0.0475013
0.984375, -0.2504883, -0.1987305, -8.2926826, -10.3048782, 3.1097562, -0.0498512
0.9794922, -0.2470703, -0.1918945, -7.0121951, -9.6341467, 2.4390244, -0.0810712
0.9799805, -0.2421875, -0.1938477, -6.7073174, -9.5731707, 2.0731707, -0.1297475
0.9726562, -0.2431641, -0.2001953, -5.9146342, -9.8780489, 1.5243902, -0.160296
0.9711914, -0.2451172, -0.2021484, -5.7926831, -9.9390249, 1.4634147, -0.1795987
0.9697266, -0.2485352, -0.2026367, -5.670732, -10.1829271, 0.8536586, -0.1728847
0.9702148, -0.2475586, -0.1962891, -5.4268293, -10.3658543, 0.6097561, -0.1398184
0.9682617, -0.2509766, -0.1923828, -4.2073174, -10.6707315, 0.0609756, -0.0817426
0.9638672, -0.2495117, -0.1923828, -3.4146342, -10.7926836, -0.2439024, -0.0048676
0.9599609, -0.25, -0.1933594, -2.6219513, -9.8780489, -0.7317073, 0.0703288
0.9506836, -0.2441406, -0.1875, -1.5243902, -9.5731707, -0.9756098, 0.1206836
0.9467773, -0.2407227, -0.1806641, -1.3414634, -9.6951218, -1.2804878, 0.1582818
0.9418945, -0.2304688, -0.1601562, 0.1829268, -10.3658543, -1.5243902, 0.1764096
0.9433594, -0.2329102, -0.1518555, 0.8536586, -10.6097565, -1.7073171, 0.1700313
0.9472656, -0.2182617, -0.1362305, 2.5, -11.4024391, -2.3170731, 0.1508965
0.9511719, -0.2119141, -0.1323242, 2.7439024, -11.7682934, -2.9878049, 0.1206836
0.9418945, -0.2080078, -0.1386719, 2.9268293, -12.4390249, -3.1097562, 0.0787213
0.9453125, -0.2045898, -0.137207, 2.5, -13.0487804, -3.3536587, 0.0468299
0.9379883, -0.2045898, -0.144043, 1.402439, -14.2682934, -3.5975611, 0.0117494
0.9389648, -0.2182617, -0.1538086, 1.1585366, -14.8780489, -3.3536587, -0.0323949
0.940918, -0.2192383, -0.1704102, 0.1829268, -16.2195129, -3.7804878, -0.0587472
0.9389648, -0.215332, -0.206543, -0.4268293, -17.0121956, -3.2926829, -0.0777142
0.9414062, -0.2124023, -0.2270508, -1.097561, -16.8292694, -2.6829269, -0.0951705
0.9423828, -0.1992188, -0.2446289, -1.8292683, -16.4634151, -1.7073171, -0.0981918
0.9423828, -0.1855469, -0.25, -1.6463414, -16.1585369, -1.1585366, -0.0817426
0.9536133, -0.1723633, -0.2568359, -2.8658538, -15.2439032, -0.1829268, -0.0592508
0.956543, -0.1660156, -0.2636719, -3.4756098, -14.5121956, 0.2439024, -0.0431373
0.953125, -0.1523438, -0.277832, -5.7926831, -12.7439032, 0.9146342, -0.0176242
0.9487305, -0.1430664, -0.2827148, -6.890244, -11.6463413, 1.7682927, 0.0112459
0.934082, -0.144043, -0.284668, -9.2682924, -10.060976, 2.6829269, 0.0250095
0.9365234, -0.15625, -0.2680664, -10.060976, -9.6341467, 3.0487804, 0.0345769
0.9414062, -0.1650391, -0.2558594, -11.8292685, -9.0243902, 3.4146342, 0.0357519
0.9438477, -0.1884766, -0.2397461, -12.6829271, -8.6585369, 3.4756098, 0.0253452
0.9399414, -0.2011719, -0.2363281, -13.2317076, -8.0487804, 3.4146342, 0.005539
0.9350586, -0.2099609, -0.2319336, -13.4146347, -7.0121951, 3.9634147, -0.017792
0.9335938, -0.2045898, -0.2294922, -12.9878054, -6.6463418, 4.390244, -0.0276951
0.9428711, -0.2041016, -0.2226562, -12.560976, -6.4024391, 5.3658538, -0.008896
0.9467773, -0.2055664, -0.2192383, -12.5, -6.4024391, 5.609756, 0.0354162
0.9658203, -0.2094727, -0.1977539, -12.2560978, -6.5243902, 5.9146342, 0.072343
0.9692383, -0.2050781, -0.1850586, -12.3780489, -6.6463418, 5.9146342, 0.082414
0.9741211, -0.2041016, -0.1665039, -12.6219511, -6.6463418, 5.7926831, 0.082414
0.9663086, -0.2016602, -0.1582031, -12.5, -6.7073174, 6.0365853, 0.0629435
0.9589844, -0.1987305, -0.1606445, -12.7439032, -6.9512196, 6.2195125, 0.0360876
0.9487305, -0.206543, -0.1728516, -13.7195129, -7.8658538, 6.7073174, 0.0179599
0.9418945, -0.2124023, -0.1738281, -14.2682934, -8.6585369, 7.0121951, 0.0119173
0.9355469, -0.2246094, -0.1699219, -15.1829271, -10.3048782, 7.0731707, 0.0050355
0.9365234, -0.2333984, -0.1601562, -15.4268293, -10.9756098, 6.9512196, -0.0109102
0.9384766, -0.2475586, -0.1533203, -14.6951227, -11.4634151, 6.280488, -0.0243381
0.9384766, -0.25, -0.1557617, -14.5121956, -11.9512196, 6.0975609, -0.0303807
0.9360352, -0.2592773, -0.1816406, -13.9024391, -12.5, 5.3658538, -0.0354162
0.9335938, -0.2602539, -0.1914062, -14.0853662, -13.1097565, 5.0609756, -0.0364233
0.9370117, -0.2719727, -0.2084961, -13.780488, -14.3292685, 5, -0.04448
0.9521484, -0.2641602, -0.2006836, -13.3536587, -14.3902445, 5.0609756, -0.0580758
0.9589844, -0.2602539, -0.1992188, -11.9512196, -13.841464, 5.9146342, -0.0693217
0.9677734, -0.2382812, -0.2011719, -10.1829271, -12.8048782, 5.7317076, -0.0753643
0.972168, -0.2333984, -0.2094727, -9.9390249, -12.0121956, 5.3658538, -0.0820783
0.9667969, -0.2182617, -0.2363281, -10.9146347, -11.5243902, 4.9390244, -0.0780499
0.96875, -0.2119141, -0.2451172, -12.0731707, -11.7682934, 4.6951222, -0.0726787
0.96875, -0.2094727, -0.2451172, -14.0243902, -11.5853662, 5.3658538, -0.0632792
0.9760742, -0.2104492, -0.2392578, -14.3292685, -11.8902445, 5.670732, -0.051194
0.9868164, -0.2119141, -0.222168, -14.1463413, -11.5853662, 6.1585369, -0.0370947
0.9912109, -0.2172852, -0.2158203, -13.9024391, -10.7317076, 5.9146342, -0.0250095
0.9897461, -0.2104492, -0.2158203, -13.1707315, -9.2073174, 5.4878049, -0.018967
0.9697266, -0.2060547, -0.2407227, -13.3536587, -8.5365858, 5.670732, -0.0082246
0.965332, -0.2021484, -0.2460938, -14.3292685, -7.8658538, 6.5853658, -0.0015106
0.9628906, -0.2026367, -0.2456055, -15.6097565, -8.2926826, 7.1341467, 0.0008392
0.9672852, -0.2075195, -0.2358398, -15.9756098, -8.1097565, 7.3170733, 0.0068818
0.9736328, -0.2089844, -0.2138672, -16.280489, -7.8048782, 7.4390244, 0.0041962
0.9775391, -0.2158203, -0.2021484, -16.0365849, -7.4390244, 7.4390244, 0.0036927
0.9829102, -0.2231445, -0.2006836, -15.1219511, -7.1951222, 6.890244, 0.0015106
0.9790039, -0.2290039, -0.203125, -14.8780489, -7.1951222, 6.280488, -0.0114137
0.972168, -0.2436523, -0.206543, -15, -7.2560978, 5.5487804, -0.0229953
0.9677734, -0.2543945, -0.2094727, -14.9390249, -7.2560978, 5.2439027, -0.0290379
0.9599609, -0.2617188, -0.2084961, -14.7560978, -7.0731707, 5.609756, -0.0323949
0.9541016, -0.269043, -0.2084961, -14.5121956, -6.7682929, 5.8536587, -0.0337377
0.9536133, -0.2636719, -0.2036133, -13.6585369, -6.4024391, 5.9146342, -0.0364233
0.9555664, -0.2431641, -0.1992188, -13.0487804, -6.5243902, 5.4268293, -0.0431373
0.9550781, -0.2363281, -0.1977539, -12.7439032, -6.6463418, 5.2439027, -0.0471656
0.9584961, -0.2138672, -0.1948242, -12.6829271, -6.890244, 4.6341462, -0.0493477
0.9667969, -0.2060547, -0.1953125, -12.5, -6.9512196, 4.3292685, -0.0538796
0.9677734, -0.1904297, -0.1899414, -12.6829271, -7.0731707, 3.9024391, -0.0602579
0.9702148, -0.1918945, -0.1943359, -12.9878054, -6.9512196, 3.8414636, -0.0730144
0.9682617, -0.1967773, -0.2148438, -14.0243902, -7.0121951, 3.6585367, -0.0762036
0.9624023, -0.2080078, -0.2299805, -15, -7.0121951, 4.1463413, -0.0720073
0.9575195, -0.2270508, -0.2294922, -16.3414631, -6.7682929, 4.7560978, -0.0642863
0.9545898, -0.2441406, -0.2128906, -16.4634151, -6.6463418, 5.0609756, -0.0459907
0.956543, -0.246582, -0.1977539, -15.1219511, -6.5853658, 4.7560978, -0.0370947
0.9511719, -0.246582, -0.1831055, -12.9268293, -6.2195125, 4.1463413, -0.0290379
0.9467773, -0.2416992, -0.1826172, -11.6463413, -5.670732, 3.7804878, -0.0407874
0.9365234, -0.2226562, -0.1875, -10.5487804, -5.8536587, 3.4146342, -0.0592508
0.934082, -0.2133789, -0.1972656, -10.4268293, -6.2195125, 3.3536587, -0.0673075
0.9316406, -0.2070312, -0.2250977, -10.6097565, -6.890244, 3.4756098, -0.0656291
0.9365234, -0.2026367, -0.2333984, -11.219512, -7.4390244, 3.5975611, -0.0585794
0.9550781, -0.1923828, -0.2290039, -12.6829271, -7.3780489, 4.3292685, -0.0370947
0.9624023, -0.1865234, -0.2226562, -13.2926836, -7.1951222, 4.6951222, -0.0206455
0.9741211, -0.1762695, -0.2011719, -12.9878054, -6.7682929, 4.6341462, 0.0018463
0.9711914, -0.1816406, -0.203125, -13.0487804, -6.5243902, 5, 0.0209812
0.9682617, -0.1879883, -0.2119141, -13.7195129, -6.280488, 5.4268293, 0.026688
0.9594727, -0.2050781, -0.2299805, -15.4878054, -5.9756098, 6.5243902, 0.0347448
0.9570312, -0.2119141, -0.2358398, -15.9146347, -6.2195125, 6.890244, 0.0406195
0.9506836, -0.2211914, -0.2182617, -16.3414631, -5.9146342, 7.6219516, 0.0337377
0.9526367, -0.222168, -0.2114258, -15.6707325, -6.0365853, 7.5, 0.0280308
0.9624023, -0.222168, -0.1958008, -14.2682934, -5.7317076, 7.3780489, 0.01561
0.9702148, -0.2216797, -0.1958008, -13.7195129, -5.4878049, 7.0121951, 0.0008392
0.96875, -0.2290039, -0.1943359, -13.1097565, -5.2439027, 6.280488, -0.0109102
0.9667969, -0.2324219, -0.2006836, -13.780488, -5.2439027, 6.1585369, -0.0196384
0.9682617, -0.2368164, -0.2109375, -14.5121956, -5.670732, 6.0365853, -0.0229953
0.972168, -0.2480469, -0.2143555, -14.5121956, -5.9756098, 5.670732, -0.0246738
0.9716797, -0.2519531, -0.215332, -14.3292685, -5.7317076, 6.0975609, -0.0350805
0.9760742, -0.25, -0.2060547, -13.2926836, -5.3658538, 6.280488, -0.0466621
0.980957, -0.2402344, -0.1923828, -12.6829271, -5, 6.280488, -0.0560616
0.9858398, -0.2172852, -0.1860352, -11.4634151, -4.4512196, 6.0975609, -0.0610971
0.9824219, -0.2114258, -0.1923828, -11.0975609, -4.2682929, 5.4878049, -0.085771
0.9799805, -0.2104492, -0.2045898, -11.5853662, -4.7560978, 5.2439027, -0.1317617
0.9746094, -0.2143555, -0.2133789, -12.1951218, -4.7560978, 5.3658538, -0.1440146
0.9726562, -0.2167969, -0.2163086, -12.6829271, -4.2073174, 6.280488, -0.1317617
0.9711914, -0.206543, -0.2109375, -12.8658543, -3.7804878, 6.4634147, -0.1149767
0.972168, -0.2001953, -0.2084961, -12.3170738, -3.1097562, 6.280488, -0.0976883
0.9736328, -0.2016602, -0.2109375, -11.9512196, -3.1707318, 5.9756098, -0.0666361
0.9760742, -0.2128906, -0.2114258, -12.4390249, -3.7804878, 5.4878049, -0.0270237
0.9824219, -0.2314453, -0.2167969, -13.6585369, -3.2317073, 5.4268293, 0.0065461
0.9794922, -0.2397461, -0.215332, -14.2682934, -2.9878049, 5.670732, 0.0287022
0.9780273, -0.2573242, -0.203125, -14.4512196, -2.195122, 5.7926831, 0.0441444
0.9716797, -0.2563477, -0.2001953, -13.780488, -1.9512196, 6.0975609, 0.0495155
0.9741211, -0.2456055, -0.1923828, -11.9512196, -1.5853659, 5.7926831, 0.056733
0.9736328, -0.2397461, -0.1894531, -11.0975609, -1.6463414, 5.4878049, 0.0538796
0.9765625, -0.2363281, -0.1860352, -10.1829271, -2.6829269, 4.6341462, 0.0468299
0.9794922, -0.2368164, -0.1884766, -10.6097565, -2.7439024, 4.5731707, 0.0417945
0.9785156, -0.2324219, -0.1982422, -11.8902445, -3.1097562, 4.2073174, 0.036759
0.9794922, -0.2338867, -0.1928711, -12.1951218, -3.1097562, 4.5121951, 0.0288701
0.9765625, -0.2319336, -0.1860352, -12.9878054, -2.9878049, 4.4512196, 0.0169528
0.9760742, -0.2275391, -0.1708984, -12.2560978, -3.2317073, 4.9390244, 0.0078889
0.9785156, -0.2197266, -0.1640625, -12.1341467, -3.3536587, 5, -0.0015106
0.9697266, -0.206543, -0.1777344, -11.280488, -3.7195122, 4.5731707, -0.0164492
0.9702148, -0.2050781, -0.1870117, -11.8292685, -3.8414636, 4.4512196, -0.0198062
0.9672852, -0.2114258, -0.2055664, -14.0853662, -4.6341462, 4.0243902, -0.0263523
0.972168, -0.2133789, -0.2075195, -15.3658543, -5, 3.9634147, -0.0283665
0.9750977, -0.2236328, -0.2041016, -16.8902435, -5.609756, 4.4512196, -0.0265202
0.9750977, -0.2280273, -0.1987305, -16.9512196, -5.7926831, 4.5731707, -0.033402
0.984375, -0.2348633, -0.1904297, -14.8780489, -5.4878049, 4.4512196, -0.0466621
0.9921875, -0.2260742, -0.1855469, -13.9024391, -5.1829271, 4.5121951, -0.051194
0.9897461, -0.2231445, -0.1870117, -12.6829271, -4.3292685, 4.4512196, -0.0471656
0.9790039, -0.2167969, -0.1860352, -12.8658543, -3.4146342, 4.5731707, -0.047837
0.9628906, -0.2226562, -0.1918945, -13.1707315, -3.0487804, 4.6951222, -0.0448157
0.9511719, -0.230957, -0.1928711, -13.9024391, -3.1097562, 5.5487804, -0.0428016
0.9467773, -0.2270508, -0.1850586, -13.841464, -3.3536587, 5.9756098, -0.0414588
0.940918, -0.2138672, -0.1782227, -12.9878054, -4.0853658, 6.5853658, -0.0438087
0.9379883, -0.2084961, -0.1791992, -11.7682934, -4.390244, 6.5853658, -0.0414588
0.9375, -0.203125, -0.1782227, -10.3658543, -4.5121951, 6.0365853, -0.0411231
0.9433594, -0.2021484, -0.1845703, -10.1829271, -4.7560978, 5.7926831, -0.0397803
0.9526367, -0.2158203, -0.1918945, -11.1585369, -4.3292685, 6.0975609, -0.0317235
0.9560547, -0.2270508, -0.1948242, -11.8902445, -4.1463413, 6.0365853, -0.0229953
0.9545898, -0.2319336, -0.190918, -13.2926836, -3.5365853, 6.1585369, -0.0142672
0.9516602, -0.2436523, -0.1923828, -13.780488, -2.9268293, 6.1585369, -0.0062104
0.9467773, -0.2421875, -0.1933594, -13.2317076, -2.9878049, 6.2195125, -0.0031891
0.9331055, -0.2387695, -0.2011719, -12.7439032, -3.2317073, 6.4024391, -0.0119173
0.9355469, -0.2363281, -0.2045898, -12.9268293, -3.5365853, 6.4634147, -0.0135958
0.9443359, -0.237793, -0.2104492, -13.3536587, -3.3536587, 6.5243902, -0.0229953
0.9477539, -0.2407227, -0.2089844, -13.6585369, -3.2317073, 6.5853658, -0.026688
0.9575195, -0.2436523, -0.2060547, -14.3902445, -3.4756098, 6.1585369, -0.0223239
0.9589844, -0.2485352, -0.203125, -14.6341467, -3.5365853, 6.2195125, -0.0209812
0.9638672, -0.2485352, -0.1918945, -14.8170738, -3.1707318, 6.2195125, -0.0370947
0.9746094, -0.2480469, -0.1806641, -14.5731707, -2.6829269, 6.0975609, -0.0850996
0.9746094, -0.2504883, -0.1757812, -14.5121956, -2.8658538, 6.1585369, -0.1049058
0.9760742, -0.2416992, -0.1787109, -14.7560978, -2.8658538, 5.7317076, -0.117998
0.9702148, -0.2392578, -0.1801758, -14.3902445, -2.9268293, 5.5487804, -0.1433433
0.9648438, -0.2412109, -0.190918, -14.3902445, -3.4146342, 5.5487804, -0.1700313
0.9614258, -0.2397461, -0.1962891, -14.7560978, -3.7195122, 5.609756, -0.1579461
0.9521484, -0.2397461, -0.1948242, -15.6097565, -3.7195122, 5.8536587, -0.1129625
0.9472656, -0.2407227, -0.1860352, -15.7926836, -3.7804878, 6.0365853, -0.0468299
0.9414062, -0.2373047, -0.1704102, -15.6707325, -3.7804878, 6.5243902, 0.0186313
0.9404297, -0.2246094, -0.1743164, -15.1829271, -3.9024391, 6.280488, 0.0683146
0.9477539, -0.222168, -0.1831055, -14.5121956, -4.5121951, 5.5487804, 0.0911421
0.9521484, -0.2246094, -0.2148438, -15.6707325, -5.4268293, 5.4268293, 0.0958419
0.9550781, -0.2226562, -0.2216797, -16.6463413, -5.609756, 5.3658538, 0.0924849
0.96875, -0.2255859, -0.2280273, -18.7195129, -5.2439027, 6.0365853, 0.0852674
0.9716797, -0.2241211, -0.2250977, -19.3292694, -4.5731707, 6.4024391, 0.0582437
0.9731445, -0.2236328, -0.2050781, -20.4268303, -3.7804878, 6.890244, 0.0240024
0.9716797, -0.2177734, -0.1958008, -20.6097565, -3.4756098, 6.8292685, 0.0127565
0.9643555, -0.2099609, -0.1845703, -21.3414631, -3.5975611, 6.4634147, 0.0016785
0.9570312, -0.2050781, -0.1811523, -21.7682934, -3.7804878, 6.4024391, -0.0097353
0.9511719, -0.2089844, -0.1630859, -22.560976, -4.2682929, 6.280488, -0.0565652
0.9428711, -0.2158203, -0.1577148, -22.8048782, -4.390244, 5.8536587, -0.0988632
0.9370117, -0.2226562, -0.1586914, -23.2317085, -5.1829271, 5.7317076, -0.0995346
0.9331055, -0.2358398, -0.1728516, -23.0487804, -5.8536587, 5.9146342, -0.0928206
0.9316406, -0.2416992, -0.1835938, -22.9268303, -5.9146342, 5.9756098, -0.0699931
0.934082, -0.2446289, -0.1914062, -22.8658543, -5.7926831, 6.0365853, -0.0310521
0.9365234, -0.2456055, -0.1904297, -22.7439022, -5.8536587, 5.7926831, 0.0146029
0.9477539, -0.2470703, -0.1743164, -21.5853672, -6.2195125, 5.3048782, 0.068986
0.9511719, -0.2436523, -0.1674805, -20.9146347, -6.1585369, 5, 0.1153124
0.9550781, -0.2431641, -0.1650391, -19.3292694, -5.9756098, 4.5731707, 0.1324331
0.9541016, -0.2416992, -0.171875, -18.7195129, -5.9146342, 4.2682929, 0.1337758
0.9526367, -0.2480469, -0.1923828, -18.2926826, -5.3658538, 4.6951222, 0.1287404
0.9462891, -0.2456055, -0.2070312, -18.2926826, -5.1829271, 4.5731707, 0.1166552
0.9506836, -0.2402344, -0.2016602, -18.4756107, -4.5731707, 5.4878049, 0.1049058
0.9487305, -0.2290039, -0.1923828, -17.6829281, -3.9024391, 5.4878049, 0.0944991
0.9506836, -0.2216797, -0.1865234, -17.0731716, -3.8414636, 5.609756, 0.081239
0.9619141, -0.2275391, -0.1806641, -16.3414631, -3.9024391, 4.8170733, 0.0703288
0.9663086, -0.2324219, -0.1845703, -16.3414631, -4.0243902, 4.8780489, 0.0599222
0.9755859, -0.2348633, -0.1855469, -17.1951218, -4.5121951, 4.0853658, 0.0461585
0.9711914, -0.2436523, -0.1865234, -17.7439022, -4.6341462, 4.0243902, 0.0246738
0.96875, -0.2441406, -0.184082, -18.0487804, -4.4512196, 4.0243902, 0.010071
0.9672852, -0.2426758, -0.1821289, -17.9268303, -4.7560978, 3.9634147, -0.005539
0.965332, -0.2431641, -0.1806641, -17.8658543, -4.8780489, 4.2073174, -0.018967
0.9609375, -0.2333984, -0.1826172, -17.1951218, -4.9390244, 4.5121951, -0.0352483
0.9570312, -0.2246094, -0.1831055, -16.7682934, -4.4512196, 4.8780489, -0.0515297
0.9492188, -0.2124023, -0.1904297, -16.280489, -3.7195122, 5, -0.0699931
0.9428711, -0.2055664, -0.1982422, -16.4634151, -3.7804878, 4.6341462, -0.085771
0.9379883, -0.2006836, -0.2104492, -17.8048782, -3.4756098, 4.390244, -0.0864424
0.940918, -0.2041016, -0.2055664, -18.2317085, -3.4756098, 4.4512196, -0.076875
0.9477539, -0.2172852, -0.1889648, -18.2926826, -3.5365853, 4.0853658, -0.0693217
0.9511719, -0.2280273, -0.1762695, -18.3536587, -3.3536587, 4.0243902, -0.0622721
0.9570312, -0.2529297, -0.1538086, -17.560976, -3.8414636, 3.1707318, -0.0565652
0.9570312, -0.2587891, -0.1425781, -17.0731716, -3.9634147, 2.8658538, -0.0575723
0.9462891, -0.2626953, -0.1386719, -16.2195129, -3.8414636, 2.6829269, -0.0570687
0.9228516, -0.2563477, -0.1425781, -15.3048782, -3.7804878, 2.6219513, -0.0552224
0.9101562, -0.2436523, -0.1474609, -14.7560978, -4.0243902, 2.6829269, -0.0533761
0.9018555, -0.2319336, -0.1450195, -13.4146347, -4.9390244, 3.3536587, -0.0505226
0.8979492, -0.2250977, -0.1445312, -13.1707315, -5.4878049, 3.5365853, -0.0505226
0.8999023, -0.2216797, -0.1513672, -12.8658543, -6.5853658, 3.1707318, -0.0480049
0.9003906, -0.2246094, -0.1533203, -12.8048782, -6.7682929, 3.1097562, -0.0522011
0.8999023, -0.2216797, -0.1577148, -12.6219511, -7.0731707, 2.7439024, -0.0522011
0.9052734, -0.2211914, -0.1586914, -12.2560978, -7.5609756, 2.6829269, -0.0518654
0.9169922, -0.2167969, -0.1738281, -11.0975609, -7.9878049, 2.5609756, -0.051194
0.9238281, -0.2099609, -0.1860352, -11.341464, -8.4756098, 2.7439024, -0.0471656
0.9360352, -0.2075195, -0.2094727, -12.0731707, -8.1097565, 3.1707318, -0.0417945
0.9414062, -0.2167969, -0.2080078, -12.8658543, -7.8658538, 3.4146342, -0.0404517
0.9458008, -0.2231445, -0.2026367, -13.3536587, -7.0121951, 3.7195122, -0.0397803
0.9536133, -0.2353516, -0.1845703, -12.560976, -6.3414636, 3.4756098, -0.0382696
0.9526367, -0.2368164, -0.1757812, -12.2560978, -6.280488, 3.3536587, -0.043473
0.9418945, -0.2416992, -0.1704102, -10.1219511, -5.5487804, 2.9878049, -0.0861067
0.9360352, -0.237793, -0.1679688, -9.3292685, -5.2439027, 2.9268293, -0.1250477
0.9262695, -0.2358398, -0.1665039, -8.841464, -5.3658538, 3.0487804, -0.1579461
0.9248047, -0.2368164, -0.1655273, -8.6585369, -5.3048782, 2.804878, -0.1774166
0.9238281, -0.2280273, -0.1699219, -8.4756098, -5.2439027, 3.0487804, -0.16701
0.9272461, -0.2265625, -0.1728516, -8.5975609, -5.1219511, 3.1097562, -0.1384756
0.9375, -0.2177734, -0.1806641, -8.4756098, -4.8780489, 3.1707318, -0.096849
0.9487305, -0.21875, -0.175293, -8.1097565, -4.9390244, 3.1097562, -0.0458228
0.9555664, -0.21875, -0.1713867, -7.6829271, -4.2073174, 3.4146342, -0.0099031
0.9594727, -0.2070312, -0.1567383, -7.6219516, -3.1097562, 2.9268293, 0.0166171
0.9570312, -0.2026367, -0.1586914, -7.6829271, -2.8658538, 2.4390244, 0.0428016
0.9384766, -0.1962891, -0.1738281, -7.5, -1.9512196, 1.7682927, 0.0501869
0.9326172, -0.2016602, -0.1870117, -7.9878049, -1.8902439, 1.9512196, 0.0468299
0.9223633, -0.2119141, -0.2197266, -8.719512, -1.8902439, 2.0121951, 0.0404517
0.921875, -0.2241211, -0.2275391, -8.9024391, -2.1341465, 2.3170731, 0.0270237
0.9326172, -0.2460938, -0.2250977, -8.4146347, -1.402439, 1.9512196, 0.0035248
0.9418945, -0.2524414, -0.2182617, -7.7439027, -0.4268293, 1.8902439, -0.0135958
0.9560547, -0.2529297, -0.1972656, -5.5487804, 1.8902439, 1.402439, -0.0283665
0.9628906, -0.2470703, -0.175293, -4.3292685, 2.6219513, 1.0365853, -0.0417945
0.9677734, -0.2421875, -0.1723633, -1.8902439, 3.2317073, 0.7317073, -0.0411231
0.9663086, -0.2290039, -0.1796875, 0.4878049, 3.9634147, 0, -0.0313878
0.9648438, -0.2177734, -0.1884766, 0.7317073, 3.9024391, -0.3048781, -0.0151064
0.9482422, -0.2207031, -0.203125, 0.0609756, 3.8414636, -0.4268293, -0.0008392
0.9506836, -0.2202148, -0.2104492, -1.0365853, 4.0243902, -0.2439024, 0.0105745
0.9433594, -0.2329102, -0.2050781, -2.8658538, 4.0243902, 0.3658537, 0.0045319
0.9414062, -0.230957, -0.1953125, -3.0487804, 4.2073174, 0.8536586, -0.0271916
0.9467773, -0.2241211, -0.175293, -1.5853659, 4.3292685, 1.097561, -0.057908
0.9521484, -0.2207031, -0.1704102, -0.7926829, 4.1463413, 1.0365853, -0.0619364
0.9594727, -0.2045898, -0.175293, 0.6707317, 3.9634147, 0.5487805, -0.0475013
0.9614258, -0.2075195, -0.1894531, 0.5487805, 3.5365853, 0.3048781, -0.0078889
0.96875, -0.2128906, -0.1992188, -1.5243902, 2.6219513, 0.3658537, 0.0414588
0.9755859, -0.2231445, -0.1958008, -3.5975611, 2.2560976, 0.4878049, 0.0663005
0.980957, -0.2246094, -0.1904297, -4.4512196, 2.0121951, 0.4268293, 0.0683146
0.9750977, -0.2290039, -0.1777344, -4.6341462, 2.3170731, 0.4878049, 0.0616007
0.9663086, -0.2231445, -0.1708984, -4.4512196, 2.6829269, 0.9756098, 0.0433051
0.9541016, -0.2021484, -0.1655273, -4.390244, 3.1707318, 1.8902439, 0.0229953
0.9458008, -0.1831055, -0.1635742, -4.6951222, 3.4756098, 2.3780489, 0.0109102
0.9389648, -0.1503906, -0.1630859, -6.2195125, 2.9268293, 2.804878, 0.0052033
0.940918, -0.1347656, -0.1689453, -7.4390244, 2.195122, 2.9878049, -0.0073854
0.9550781, -0.1367188, -0.1699219, -10.4878054, 0.4878049, 3.0487804, -0.018967
0.9736328, -0.1552734, -0.1796875, -11.8902445, -0.3048781, 2.9268293, -0.0216526
0.9838867, -0.1689453, -0.1821289, -14.8170738, -1.1585366, 3.7195122, -0.0290379
0.9985352, -0.1865234, -0.1826172, -16.8902435, -0.9146342, 4.0243902, -0.0317235
1.0014648, -0.1938477, -0.1762695, -17.1341476, -0.3658537, 4.3292685, -0.0339055
1.003418, -0.2070312, -0.1728516, -16.8902435, -0.4878049, 4.7560978, -0.0392767
0.9985352, -0.21875, -0.1704102, -16.7073174, -0.3658537, 4.6951222, -0.0394446
0.9887695, -0.222168, -0.1640625, -16.4024391, -0.7317073, 4.8170733, -0.0431373
0.9848633, -0.2211914, -0.1650391, -16.0975609, -0.7317073, 4.6951222, -0.0592508
0.9760742, -0.2231445, -0.1879883, -17.560976, -0.6097561, 4.8780489, -0.0827497
0.9692383, -0.2260742, -0.1943359, -18.1097565, -0.5487805, 4.6951222, -0.1122911
0.9619141, -0.2333984, -0.2109375, -19.6341476, -0.9756098, 5.4268293, -0.1226978
0.9697266, -0.2416992, -0.2050781, -19.7560978, -0.7317073, 5.609756, -0.128069
0.9780273, -0.2421875, -0.2006836, -20.1219521, -0.4878049, 5.7317076, -0.114641
0.9814453, -0.253418, -0.1787109, -18.9634151, -0.1829268, 5.0609756, -0.0867781
0.9838867, -0.2573242, -0.1699219, -18.5365849, -0.1829268, 4.5731707, -0.0538796
0.9731445, -0.2592773, -0.1547852, -17.9268303, -0.1829268, 3.3536587, -0.0271916
0.9672852, -0.2548828, -0.159668, -18.1707325, -0.3048781, 3.2926829, -0.0256809
0.9550781, -0.2480469, -0.1650391, -18.780489, -0.6707317, 3.2926829, -0.0263523
0.9526367, -0.2451172, -0.168457, -19.1463413, -1.2195122, 3.3536587, -0.0246738
0.9521484, -0.237793, -0.1635742, -19.3902435, -1.8292683, 3.5975611, -0.0229953
0.9580078, -0.2358398, -0.1572266, -19.7560978, -2.2560976, 3.2926829, -0.0184634
0.9755859, -0.2421875, -0.1396484, -19.5121956, -3.0487804, 2.6219513, -0.0132601
0.9755859, -0.2407227, -0.1337891, -19.1463413, -3.2926829, 2.195122, -0.0063783
0.9702148, -0.237793, -0.1328125, -19.2682934, -2.8658538, 1.7682927, -0.0028534
0.9619141, -0.2270508, -0.1352539, -18.9024391, -2.5609756, 1.8902439, -0.002182
0.9594727, -0.2236328, -0.1391602, -19.0853672, -3.4146342, 2.1341465, 0.0045319
0.9594727, -0.2207031, -0.1464844, -19.2682934, -4.8170733, 1.7682927, 0.011078
0.9638672, -0.2182617, -0.1503906, -19.2073174, -5.609756, 1.5243902, 0.0243381
0.9594727, -0.21875, -0.1582031, -19.8780499, -6.7682929, 1.8902439, 0.0377661
0.9619141, -0.2197266, -0.1611328, -19.939024, -6.9512196, 1.7073171, 0.0488441
0.9682617, -0.2182617, -0.1577148, -20.2439022, -7.1341467, 1.402439, 0.0575723
0.9697266, -0.222168, -0.1572266, -20.4878044, -7.1341467, 1.2804878, 0.0589151
0.9624023, -0.2250977, -0.1606445, -20.2439022, -7.6219516, 1.402439, 0.0451514
0.9521484, -0.2138672, -0.1655273, -20.060976, -7.8048782, 1.7682927, 0.0285344
0.9487305, -0.2045898, -0.1650391, -19.8780499, -7.5, 2.3170731, 0.0058747
0.9516602, -0.1962891, -0.1816406, -19.939024, -6.890244, 2.195122, -0.0172885
0.9511719, -0.1943359, -0.1899414, -20.4268303, -6.890244, 2.0121951, -0.0572366
0.9575195, -0.2041016, -0.1889648, -21.4634151, -7.3780489, 1.9512196, -0.0948348
0.9599609, -0.2080078, -0.1865234, -21.8292694, -7.5609756, 2.0121951, -0.1015488
0.980957, -0.215332, -0.1777344, -22.0731716, -7.5, 2.195122, -0.0944991
0.9814453, -0.2148438, -0.1694336, -21.9512196, -7.5, 2.3780489, -0.0847639
0.9868164, -0.2114258, -0.1650391, -21.9512196, -6.7073174, 2.7439024, -0.0565652
0.9858398, -0.2045898, -0.1635742, -21.9512196, -6.280488, 3.1707318, -0.0246738
0.9819336, -0.2036133, -0.1708984, -21.7073174, -6.2195125, 3.4756098, 0.0092317
0.980957, -0.2094727, -0.1787109, -21.8292694, -6.4024391, 3.2926829, 0.033402
0.9838867, -0.2138672, -0.1787109, -22.6219521, -6.4634147, 3.9634147, 0.0515297
0.9868164, -0.2270508, -0.1723633, -23.2926826, -5.9756098, 4.2682929, 0.0522011
0.9848633, -0.2290039, -0.171875, -23.4756107, -5.7317076, 4.390244, 0.0525368
0.9833984, -0.2363281, -0.1713867, -23.6585369, -5.5487804, 4.390244, 0.0500191
0.9819336, -0.2368164, -0.1679688, -23.2926826, -5.1219511, 4.4512196, 0.0480049
0.9780273, -0.2333984, -0.1665039, -22.9268303, -5.0609756, 4.6341462, 0.0441444
0.9755859, -0.230957, -0.1679688, -22.9268303, -4.7560978, 4.6951222, 0.0280308
0.9760742, -0.2280273, -0.1601562, -22.8658543, -4.8170733, 4.8170733, 0.0159457
0.9731445, -0.2197266, -0.1582031, -23.1097565, -4.3292685, 4.9390244, 0.0130922
0.9697266, -0.2075195, -0.1635742, -23.9634151, -4.3292685, 5.1219511, 0.0038605
0.9785156, -0.2089844, -0.168457, -24.1463413, -4.390244, 5.0609756, -0.005539
0.9760742, -0.222168, -0.1674805, -25.2439022, -5.1829271, 4.6341462, -0.0142672
0.9741211, -0.2436523, -0.1650391, -26.1585369, -5.8536587, 4.6341462, -0.0169528
0.9736328, -0.2563477, -0.1572266, -26.6463413, -5.5487804, 4.8780489, -0.0182956
0.9633789, -0.2578125, -0.1425781, -26.5243912, -4.4512196, 4.8780489, -0.0240024
0.9545898, -0.2573242, -0.1401367, -25.7317085, -4.2682929, 4.8780489, -0.0397803
0.940918, -0.2524414, -0.1381836, -24.3292694, -4.0243902, 4.6951222, -0.0471656
0.9379883, -0.2431641, -0.1455078, -23.6585369, -4.5121951, 4.8170733, -0.0552224
0.9291992, -0.2402344, -0.1630859, -22.7439022, -5.7317076, 4.2682929, -0.0542153
0.9350586, -0.2426758, -0.1679688, -22.6829281, -6.280488, 4.2682929, -0.0552224
0.9560547, -0.2456055, -0.1572266, -21.9512196, -6.6463418, 3.9634147, -0.0595865
0.9736328, -0.2514648, -0.1435547, -20.7317085, -6.3414636, 3.4146342, -0.0679789
0.9770508, -0.2529297, -0.1430664, -19.939024, -6.1585369, 3.2317073, -0.0706645
0.9702148, -0.2519531, -0.1464844, -19.3902435, -5.5487804, 3.2926829, -0.0673075
0.9672852, -0.2543945, -0.1450195, -19.3902435, -5.7926831, 3.2317073, -0.0641184
0.9511719, -0.2431641, -0.1279297, -19.3292694, -6.0365853, 3.7804878, -0.0535439
0.9384766, -0.2329102, -0.1196289, -18.8414631, -6.5243902, 3.8414636, -0.0394446
0.925293, -0.2148438, -0.1166992, -18.5365849, -7.1951222, 3.9634147, -0.0184634
0.9223633, -0.2109375, -0.1176758, -18.1707325, -8.1707315, 3.9634147, -0.0015106
0.9194336, -0.2211914, -0.1303711, -18.7195129, -9.8170738, 3.4756098, 0.0038605
0.9257812, -0.2285156, -0.1298828, -19.0853672, -10.8536587, 3.4146342, 0.0052033
0.9448242, -0.2553711, -0.1279297, -19.7560978, -12.1341467, 3.5365853, 0.0058747
0.9643555, -0.2700195, -0.1254883, -19.2682934, -12.560976, 3.5975611, -0.0085603
0.9658203, -0.2758789, -0.1210938, -18.3536587, -12.7439032, 3.4146342, -0.0263523
0.9770508, -0.2768555, -0.1289062, -16.5853653, -13.1097565, 2.9268293, -0.057908
0.9775391, -0.2749023, -0.1396484, -15.9146347, -13.2317076, 2.6219513, -0.0820783
0.9746094, -0.2607422, -0.15625, -14.4512196, -13.4756098, 2.7439024, -0.0814069
0.9755859, -0.2568359, -0.1625977, -14.5121956, -13.5365858, 2.5, -0.0720073
0.9775391, -0.2504883, -0.1738281, -14.5121956, -14.1463413, 2.195122, -0.0538796
0.9790039, -0.2490234, -0.1757812, -15, -14.3902445, 2.2560976, -0.0290379
0.9829102, -0.25, -0.175293, -15.5487804, -14.4512196, 1.7682927, -0.0008392
0.9765625, -0.2539062, -0.1796875, -15.5487804, -14.0853662, 2.0121951, 0.0193027
0.972168, -0.2592773, -0.1831055, -15.9146347, -13.1707315, 2.0121951, 0.0369268
0.9702148, -0.2602539, -0.1879883, -16.280489, -12.6829271, 2.1341465, 0.0448157
0.9711914, -0.2583008, -0.1879883, -16.3414631, -12.2560978, 2.195122, 0.0475013
0.9692383, -0.2470703, -0.1748047, -16.3414631, -11.7073174, 2.3780489, 0.0464942
0.9736328, -0.2338867, -0.1674805, -16.4024391, -11.4634151, 2.195122, 0.040116
0.9858398, -0.2177734, -0.1586914, -16.4024391, -11.341464, 1.7073171, 0.0364233
0.9848633, -0.2163086, -0.1606445, -17.1341476, -11.5243902, 1.2804878, 0.0219883
0.9833984, -0.2231445, -0.1645508, -19.0853672, -11.8902445, 1.2195122, 0.0124208
0.9814453, -0.2294922, -0.1645508, -20.7926826, -12.0731707, 1.5853659, 0.0038605
0.9765625, -0.2373047, -0.1645508, -22.7439022, -12.0121956, 2.0121951, 0.0025177
0.9736328, -0.2265625, -0.1713867, -23.3536587, -12.3170738, 2.6829269, -0.0008392
0.9755859, -0.2207031, -0.1791992, -22.439024, -12.560976, 3.2926829, 0.0025177
0.9819336, -0.2143555, -0.1992188, -21.0365868, -12.6829271, 3.1097562, 0.0038605
0.9887695, -0.2109375, -0.2128906, -21.1585369, -12.3780489, 2.9268293, -0.0182956
0.9980469, -0.2294922, -0.2250977, -22.6219521, -11.6463413, 3.2317073, -0.0370947
0.9980469, -0.2412109, -0.2202148, -23.780489, -10.6707315, 3.1097562, -0.0518654
0.9926758, -0.2607422, -0.1967773, -25.2439022, -9.0853662, 3.2926829, -0.0622721
0.9824219, -0.2641602, -0.1801758, -25.4268303, -8.5365858, 3.4756098, -0.0679789
0.9682617, -0.2641602, -0.1601562, -24.4512196, -7.7439027, 3.2317073, -0.0669718
0.9580078, -0.2602539, -0.15625, -23.6585369, -7.9268293, 3.1097562, -0.0676432
0.9443359, -0.2436523, -0.1577148, -23.2317085, -9.0853662, 3.2317073, -0.0814069
0.9492188, -0.2275391, -0.1679688, -22.8658543, -9.2682924, 3.4146342, -0.096849
0.9584961, -0.2260742, -0.1699219, -22.9268303, -9.7560978, 3.3536587, -0.1072557
0.9829102, -0.2324219, -0.1738281, -22.9878063, -10.060976, 3.1097562, -0.0985275
0.9931641, -0.2436523, -0.1728516, -22.6829281, -9.9390249, 3.1097562, -0.0713359
1.0078125, -0.2568359, -0.1806641, -22.8048782, -9.0853662, 3.1707318, -0.0172885
1.0058594, -0.2597656, -0.1826172, -22.7439022, -8.3536587, 3.6585367, 0.0292058
0.9912109, -0.2490234, -0.1855469, -22.9268303, -7.0121951, 4.390244, 0.0488441
0.9829102, -0.2470703, -0.1831055, -22.5, -6.4634147, 4.6341462, 0.049012
0.9638672, -0.2392578, -0.1904297, -22.9878063, -6.5243902, 4.6341462, 0.0345769
0.9594727, -0.2407227, -0.2021484, -23.1707325, -6.8292685, 4.6341462, 0.0099031
0.9487305, -0.2382812, -0.215332, -24.0853672, -7.0121951, 4.6951222, -0.0082246
0.9472656, -0.2275391, -0.215332, -24.6341476, -7.1341467, 5.3658538, -0.0172885
0.9536133, -0.2246094, -0.1962891, -25.2439022, -7.1341467, 5.2439027, -0.0236667
0.9633789, -0.2202148, -0.1611328, -25.5487804, -7.0121951, 5.1219511, -0.0246738
0.9619141, -0.2231445, -0.1435547, -25.9146347, -6.8292685, 5.4268293, -0.0270237
0.949707, -0.2353516, -0.1279297, -26.7073174, -7.0121951, 5.2439027, -0.0310521
0.9453125, -0.2387695, -0.1279297, -26.8902454, -7.5, 5.3048782, -0.0377661
0.9306641, -0.2475586, -0.1298828, -27.4390259, -9.2682924, 5.5487804, -0.0527047
0.9301758, -0.2553711, -0.1313477, -27.560976, -10.4268293, 5.670732, -0.0699931
0.9433594, -0.2841797, -0.1367188, -26.7682934, -13.1707315, 6.0975609, -0.0777142
0.9482422, -0.2885742, -0.1376953, -26.0365868, -14.5121956, 5.8536587, -0.0773785
0.9599609, -0.2919922, -0.1474609, -24.3902435, -15.3048782, 6.0975609, -0.0829175
0.965332, -0.2827148, -0.1645508, -23.7195129, -15, 6.0365853, -0.0896315
0.9702148, -0.2792969, -0.1733398, -21.6463413, -15.3048782, 5.4878049, -0.0807355
0.9755859, -0.2661133, -0.1811523, -19.8170738, -15.4268293, 5.670732, -0.0679789
0.9770508, -0.2573242, -0.1791992, -19.0243912, -15.6707325, 5.9756098, -0.0609293
0.9780273, -0.2275391, -0.168457, -18.1097565, -15.3658543, 6.5243902, -0.0471656
0.9819336, -0.2182617, -0.1674805, -18.2317085, -15.1829271, 6.4634147, -0.0323949
0.9746094, -0.2041016, -0.1835938, -18.6585369, -15.6707325, 5.9146342, -0.0297093
0.9663086, -0.2050781, -0.2036133, -20.3048782, -15.7317076, 5.670732, -0.047837
0.9506836, -0.2167969, -0.2504883, -23.780489, -16.5853653, 6.0365853, -0.0592508
0.9521484, -0.2197266, -0.2626953, -25.4878063, -16.4024391, 6.7073174, -0.0642863
0.9628906, -0.2363281, -0.2783203, -27.5, -15.9756098, 7.9878049, -0.0753643
0.9746094, -0.2524414, -0.2700195, -28.0487804, -15.8536587, 8.3536587, -0.0908064
0.9804688, -0.2529297, -0.2617188, -27.8048782, -13.6585369, 8.1097565, -0.0807355
0.9829102, -0.2426758, -0.2294922, -26.8292694, -11.7682934, 7.9268293, -0.0632792
0.9746094, -0.2392578, -0.2216797, -26.7682934, -10.9146347, 7.9878049, -0.0433051
0.953125, -0.2421875, -0.222168, -28.1097565, -10.5487804, 7.9878049, -0.0176242
0.9453125, -0.2470703, -0.2348633, -29.2073174, -11.0365858, 8.4146347, 0.0025177
0.9379883, -0.2539062, -0.2680664, -31.280489, -12.0121956, 9.6951218, 0.0164492
0.9462891, -0.2573242, -0.28125, -32.1341476, -12.5, 10.3048782, 0.0186313
0.9702148, -0.2680664, -0.2905273, -32.5, -12.9878054, 10.6097565, 0.0206455
0.9916992, -0.2695312, -0.2866211, -32.6219521, -12.9878054, 10.7317076, 0.0317235
1.0214844, -0.2758789, -0.2675781, -32.4390259, -12.0121956, 10.1219511, 0.0253452
1.0205078, -0.2675781, -0.2426758, -33.1097565, -11.4634151, 10.4268293, 0.0172885
1.0185547, -0.2631836, -0.230957, -34.3292694, -10.6707315, 11.0365858, 0.0038605
1.0102539, -0.2543945, -0.2080078, -36.0365868, -11.4634151, 11.8902445, -0.0166171
0.9956055, -0.2485352, -0.2045898, -37.2560997, -12.3170738, 11.8292685, -0.0310521
0.9785156, -0.2426758, -0.206543, -39.7560997, -14.7560978, 12.560976, -0.0270237
0.972168, -0.2412109, -0.2094727, -41.0365868, -15.8536587, 12.9878054, -0.0176242
0.972168, -0.2529297, -0.1982422, -43.2926826, -18.1707325, 12.7439032, -0.0001678
0.9716797, -0.2705078, -0.1879883, -43.9024391, -19.2073174, 12.560976, 0.0102388
0.9663086, -0.3032227, -0.1601562, -44.7560997, -21.0975609, 12.3170738, 0.0151064
0.9599609, -0.3139648, -0.1455078, -44.8780479, -21.8292694, 12.3780489, 0.0146029
0.9394531, -0.3276367, -0.1186523, -43.5975609, -23.1097565, 12.3780489, 0.0139315
0.9135742, -0.3242188, -0.0996094, -43.0487823, -24.2073174, 12.3170738, 0.0109102
0.9047852, -0.3125, -0.0927734, -40.3658562, -27.1951218, 12.4390249, 0.0045319
0.8994141, -0.2954102, -0.0991211, -38.5975609, -31.341465, 12.0121956, 0.0048676
0.894043, -0.2827148, -0.1079102, -37.5609779, -33.2317085, 12.3170738, 0.0065461
0.9057617, -0.2768555, -0.1293945, -37.6219521, -37.1341476, 12.1341467, -0.0048676
0.9160156, -0.2734375, -0.1435547, -37.4390259, -39.0243912, 12.0731707, -0.0354162
0.9467773, -0.2851562, -0.1635742, -37.5, -42.3170738, 12.1341467, -0.0661326
0.9619141, -0.2924805, -0.175293, -37.1341476, -43.841465, 11.9512196, -0.076875
0.9916992, -0.3066406, -0.2001953, -36.2804871, -45.9756126, 11.6463413, -0.0760357
1.0058594, -0.3066406, -0.2128906, -35.6707344, -46.7682953, 11.4024391, -0.0713359
1.0161133, -0.3129883, -0.2294922, -34.7560997, -47.7439041, 11.280488, -0.0491798
1.019043, -0.3188477, -0.2382812, -33.6585388, -48.6585388, 11.4634151, -0.012253
1.0170898, -0.3168945, -0.2363281, -31.7073174, -49.6951218, 11.280488, 0.0146029
1.0112305, -0.315918, -0.2412109, -29.6341476, -50.6097565, 11.341464, 0.0354162
1.0053711, -0.3051758, -0.2490234, -28.841465, -50.9756126, 11.341464, 0.0525368
0.9799805, -0.2866211, -0.2734375, -28.2317085, -51.7682953, 11.1585369, 0.0626078
0.9692383, -0.2788086, -0.2856445, -27.9878063, -52.1951218, 11.4024391, 0.0585794
0.9760742, -0.2802734, -0.2963867, -27.9878063, -53.4146347, 11.7682934, 0.0491798
0.987793, -0.2836914, -0.2919922, -27.8658543, -54.2073174, 11.9512196, 0.0387732
1.0107422, -0.2983398, -0.2792969, -27.1951218, -55.1219521, 11.1585369, 0.0234989
1.0214844, -0.309082, -0.2729492, -26.9512196, -55.6097565, 10.2439022, 0.0102388
1.0297852, -0.3383789, -0.2841797, -26.9512196, -55.7926826, 8.719512, -0.0016785
1.0200195, -0.3432617, -0.3071289, -26.7073174, -56.2804909, 8.4146347, -0.0149386
1.0102539, -0.3388672, -0.315918, -25.8536587, -57.1341476, 8.3536587, -0.0209812
0.9951172, -0.3178711, -0.3291016, -24.3292694, -57.4390259, 9.9390249, -0.0182956
0.9902344, -0.3037109, -0.3398438, -23.8414631, -58.1097565, 10.8536587, -0.0179599
0.9921875, -0.2851562, -0.3666992, -23.7195129, -58.3536606, 11.4634151, -0.0149386
0.9921875, -0.2832031, -0.3813477, -24.7560978, -58.2926826, 11.5243902, -0.0157778
0.9873047, -0.2856445, -0.4038086, -27.5, -58.1097565, 11.219512, -0.01561
0.9936523, -0.293457, -0.3974609, -28.1707325, -57.8658562, 11.0975609, -0.0223239
0.9951172, -0.300293, -0.3652344, -28.780489, -57.5609779, 11.219512, -0.0297093
0.9975586, -0.3056641, -0.3496094, -28.4146347, -57.4390259, 10.7926836, -0.0303807
0.987793, -0.3027344, -0.3520508, -28.9634151, -57.4390259, 11.0975609, -0.0310521
0.9750977, -0.3037109, -0.3837891, -29.5731716, -57.68293, 11.4024391, -0.0377661
0.9736328, -0.3017578, -0.3950195, -31.341465, -58.3536606, 12.9878054, -0.0505226
0.9736328, -0.2958984, -0.4047852, -31.7682934, -59.3292694, 14.6341467, -0.0595865
0.9799805, -0.2880859, -0.4101562, -31.4634151, -59.5731735, 15.2439032, -0.0605936
0.9902344, -0.2841797, -0.4174805, -30.3048782, -59.3292694, 15.5487804, -0.0605936
0.9941406, -0.2851562, -0.4189453, -30.3048782, -58.7804909, 15.6097565, -0.0679789
0.9907227, -0.2924805, -0.4189453, -30.8536587, -57.9268303, 15.9756098, -0.0975204
0.9848633, -0.2919922, -0.4091797, -32.0121956, -57.68293, 16.280489, -0.1119554
0.980957, -0.2910156, -0.3637695, -32.7439041, -58.0487823, 17.1951218, -0.110277
0.9741211, -0.2900391, -0.3364258, -32.9268303, -58.4146347, 17.439024, -0.1075914
0.9575195, -0.2919922, -0.2900391, -32.0121956, -60.2439041, 17.3170738, -0.0985275
0.9384766, -0.3115234, -0.2993164, -31.5853672, -61.8902435, 17.3170738, -0.0746929
0.9208984, -0.3271484, -0.3217773, -31.0365868, -65.5487823, 16.8292694, -0.0407874
0.9003906, -0.3583984, -0.3769531, -30.1829281, -68.6585388, 17.439024, -0.014435
0.9018555, -0.371582, -0.4033203, -29.2682934, -69.4512177, 17.8048782, 0.0057069
0.9228516, -0.3828125, -0.4428711, -27.0731716, -69.6341476, 18.8414631, 0.0129244
0.9345703, -0.3808594, -0.4501953, -25.7317085, -68.9634171, 19.3292694, 0.0075532
0.9677734, -0.3642578, -0.456543, -23.5365868, -67.7439041, 19.8170738, -0.0102388
0.9814453, -0.347168, -0.4609375, -22.9878063, -66.8902435, 20.060976, -0.0223239
0.996582, -0.3134766, -0.4711914, -23.0487804, -66.1585388, 20.4878044, -0.0102388
1.0029297, -0.2998047, -0.4716797, -23.8414631, -66.6463394, 20.5487804, 0.0317235
1.0136719, -0.3012695, -0.4672852, -26.5243912, -68.7195129, 20.6707325, 0.0693217
1.0102539, -0.3212891, -0.4702148, -28.1097565, -69.6951218, 20.5487804, 0.0958419
1.0029297, -0.3398438, -0.4741211, -30.7926846, -70.9146347, 20.1829281, 0.1025559
0.987793, -0.3710938, -0.4711914, -31.5243912, -71.7682953, 20.3658543, 0.0814069
0.9814453, -0.3891602, -0.4707031, -30.7926846, -71.7073212, 20.1219521, 0.0602579
0.9731445, -0.4018555, -0.472168, -29.0853672, -72.3780518, 20.6707325, 0.04448
0.9736328, -0.4023438, -0.4750977, -28.1097565, -72.8048782, 20.7926826, 0.0337377
0.9794922, -0.3920898, -0.4887695, -27.3170738, -73.1707306, 21.4024391, 0.0236667
0.9838867, -0.3867188, -0.5102539, -28.0487804, -73.3536606, 21.9512196, 0.0045319
1.0004883, -0.3588867, -0.5200195, -29.9390259, -73.9024429, 22.560976, -0.0176242
1.0063477, -0.3417969, -0.5214844, -30.7926846, -73.7804871, 22.9268303, -0.0404517
1.019043, -0.3149414, -0.4956055, -33.4756088, -74.0853653, 22.8658543, -0.082414
1.0146484, -0.3115234, -0.4443359, -34.3902435, -74.3292694, 22.560976, -0.1082628
1.0131836, -0.3173828, -0.4321289, -36.4634171, -75.5487823, 22.0731716, -0.1143053
0.9863281, -0.3393555, -0.4545898, -38.1707344, -77.5, 21.280489, -0.1156481
0.9643555, -0.3525391, -0.4882812, -39.3902435, -78.2926865, 21.3414631, -0.1008774
0.9365234, -0.3808594, -0.5581055, -40.9756088, -80.3048782, 21.5853672, -0.0782177
0.9282227, -0.387207, -0.5708008, -41.341465, -80.5487823, 22.0121956, -0.0473335
0.9379883, -0.3920898, -0.5395508, -42.0121956, -80.4268341, 22.8048782, -0.0203098
0.9477539, -0.3862305, -0.4975586, -41.7682953, -79.6341476, 23.3536587, -0.0001678
0.9511719, -0.3583984, -0.4233398, -40.6097565, -77.8658524, 23.1707325, 0.0043641
0.9453125, -0.3442383, -0.4018555, -40.2439041, -77.9268341, 22.7439022, -0.005539
0.9057617, -0.3222656, -0.4116211, -39.6341476, -80.6097565, 22.3780499, -0.0270237
0.8588867, -0.3178711, -0.4716797, -40.1219521, -82.5, 22.439024, -0.0713359
0.8461914, -0.3188477, -0.5024414, -41.0975609, -87.2560959, 23.4756107, -0.1079271
0.855957, -0.3354492, -0.5458984, -41.8902435, -89.4512253, 25.5487804, -0.1272297
0.8696289, -0.34375, -0.5541992, -41.7073174, -89.3292694, 26.1585369, -0.1331044
0.9155273, -0.3588867, -0.5454102, -41.1585388, -88.2317123, 27.0731716, -0.1237049
0.9345703, -0.3657227, -0.5444336, -40.6707344, -87.5, 26.6463413, -0.1176623
0.9594727, -0.3666992, -0.5332031, -40.1829262, -86.9512253, 26.1585369, -0.0961776
0.9609375, -0.3554688, -0.5307617, -40.1829262, -87.1341476, 25.8536587, -0.0659648
0.9541016, -0.3388672, -0.5498047, -41.4024391, -88.4756088, 27.1951218, -0.0387732
0.9526367, -0.3261719, -0.5644531, -41.4024391, -89.3902435, 27.9268303, -0.0115816
0.949707, -0.296875, -0.5810547, -41.9512215, -90.4268341, 29.4512196, 0.0132601
0.9506836, -0.2890625, -0.5825195, -42.5609779, -91.4024429, 30.3658543, 0.0350805
0.9575195, -0.2919922, -0.5727539, -43.2926826, -91.5853653, 30.5487804, 0.0505226
0.9580078, -0.3100586, -0.5463867, -44.3902435, -92.5, 30.9756107, 0.0649577
0.9550781, -0.3178711, -0.53125, -44.9390259, -93.1097565, 30.6097565, 0.0782177
0.9414062, -0.3378906, -0.5229492, -45.3048782, -94.8170776, 30.1829281, 0.0864424
0.9267578, -0.3486328, -0.5273438, -45.3658562, -96.0365906, 29.9390259, 0.0844282
0.9101562, -0.3793945, -0.5629883, -45.6707344, -98.9634171, 29.6951218, 0.0783856
0.8999023, -0.3901367, -0.5883789, -45.5487823, -100, 29.7560978, 0.0575723
0.8989258, -0.418457, -0.6279297, -45.4268303, -101.0365906, 30.8536587, 0.040116
0.9125977, -0.4291992, -0.6420898, -45.6097565, -101.1585388, 31.280489, 0.0253452
0.9189453, -0.4296875, -0.6435547, -44.0243912, -99.5121994, 32.4390259, 0.0119173
0.9370117, -0.4067383, -0.6425781, -41.4024391, -97.4390259, 32.6219521, -0.0028534
0.9379883, -0.3950195, -0.6401367, -40.3658562, -96.5243912, 32.5, -0.0099031
0.9433594, -0.3852539, -0.6352539, -38.9024391, -96.0975647, 31.8292694, -0.021149
0.934082, -0.3842773, -0.6323242, -38.9634171, -96.3414688, 31.7682934, -0.0246738
0.9199219, -0.4003906, -0.6293945, -40.5487823, -97.1341476, 31.8292694, -0.0213169
0.9082031, -0.4038086, -0.6289062, -40.7926826, -97.3170776, 32.2560997, -0.0135958
0.8920898, -0.3881836, -0.640625, -41.0365868, -97.0731735, 32.8048782, -0.0243381
0.8847656, -0.3671875, -0.6469727, -40.5487823, -97.3780518, 33.2317085, -0.0374304
0.8852539, -0.3266602, -0.6479492, -39.8170738, -97.5609741, 33.9024391, -0.0391089
0.9018555, -0.3081055, -0.6225586, -40.1219521, -97.4390259, 34.3292694, -0.040116
0.9082031, -0.3110352, -0.6098633, -42.3780479, -98.2317123, 34.4512215, -0.0364233
0.9116211, -0.3427734, -0.5698242, -44.5121956, -100.0609818, 34.0243912, -0.0345769
0.9042969, -0.3618164, -0.5615234, -45.1219521, -101.7073212, 33.6585388, -0.033402
0.8735352, -0.3959961, -0.5673828, -44.8170738, -104.8780518, 33.1707306, -0.0263523
0.8618164, -0.4008789, -0.5825195, -44.3292694, -106.2804871, 33.1097565, -0.0219883
0.84375, -0.4067383, -0.6171875, -41.7682953, -108.5975647, 34.0853653, -0.0223239
0.8422852, -0.4047852, -0.6210938, -40.9146347, -109.4512253, 34.5731697, -0.0203098
0.859375, -0.3999023, -0.6210938, -39.5121956, -110.4268341, 35.1829262, -0.018967
0.8642578, -0.3945312, -0.609375, -38.9634171, -110.4268341, 35.4268303, -0.0203098
0.8730469, -0.3876953, -0.5854492, -37.6219521, -111.9512253, 35.3048782, -0.0182956
0.8764648, -0.3901367, -0.5869141, -37.0121956, -112.86586, 34.6951218, -0.0109102
0.8706055, -0.3852539, -0.6015625, -35.9146347, -116.0365906, 33.7195129, -0.0166171
0.8579102, -0.3916016, -0.6542969, -35.3658562, -119.5121994, 33.5975609, -0.0387732
0.8544922, -0.3920898, -0.6757812, -35.4268303, -120.9756088, 34.2073174, -0.0713359
0.8588867, -0.3891602, -0.6962891, -35.3048782, -122.6219559, 35.4268303, -0.0958419
0.8710938, -0.3823242, -0.6899414, -34.3902435, -122.6219559, 35.8536606, -0.0995346
0.8901367, -0.3696289, -0.6865234, -32.6829262, -122.6219559, 36.2195129, -0.0908064
0.8959961, -0.3657227, -0.6987305, -32.0731697, -122.5609818, 35.7926826, -0.0681468
0.8818359, -0.3583984, -0.7416992, -31.4024391, -123.3536606, 35.3658562, -0.0438087
0.8774414, -0.3623047, -0.7617188, -31.6463413, -123.7804871, 35.3658562, -0.0152743
0.8710938, -0.3769531, -0.7670898, -33.6585388, -124.7561035, 36.4634171, 0.0048676
0.8852539, -0.3857422, -0.7216797, -34.4512215, -125.0609818, 36.7682953, 0.0199741
0.8852539, -0.3886719, -0.6987305, -35.0609779, -124.5731735, 37.1951218, 0.0166171
0.8681641, -0.3828125, -0.6826172, -34.5121956, -124.5731735, 36.5853653, 0.0114137
0.855957, -0.3901367, -0.6953125, -33.7195129, -125.6097565, 36.1585388, 0.0045319
0.8334961, -0.4008789, -0.7519531, -32.0121956, -129.0853729, 35.9146347, -0.0041962
0.8286133, -0.4077148, -0.7773438, -31.6463413, -130.36586, 36.4634171, -0.0112459
0.8447266, -0.4238281, -0.7954102, -32.0731697, -130.8536682, 37.3780479, -0.0179599
0.8544922, -0.4262695, -0.7856445, -32.2560997, -130.1219482, 37.5, -0.0198062
0.871582, -0.4370117, -0.7543945, -31.6463413, -127.3170776, 37.3780479, -0.0229953
0.8759766, -0.4350586, -0.7412109, -30.8536587, -126.2804871, 37.3170738, -0.0270237
0.8642578, -0.418457, -0.7231445, -28.7195129, -125.9146347, 36.5243912, -0.0330663
0.8369141, -0.3842773, -0.7353516, -27.3170738, -126.7682953, 35.9756088, -0.0273594
0.8237305, -0.3681641, -0.7548828, -24.8780499, -128.8414612, 35.6097565, -0.0270237
0.8056641, -0.3457031, -0.8178711, -24.7560978, -129.4512177, 36.0975609, -0.0256809
0.7998047, -0.3432617, -0.8432617, -25.4268303, -129.4512177, 37.0121956, -0.0219883
0.8095703, -0.3564453, -0.8549805, -28.3536587, -128.4756165, 39.0243912, -0.0270237
0.8193359, -0.3647461, -0.840332, -29.9390259, -127.86586, 39.8170738, -0.0256809
0.8432617, -0.3588867, -0.8085938, -32.1951218, -126.0975647, 40.7926826, -0.0317235
0.8515625, -0.3388672, -0.7988281, -32.3170738, -125.3048782, 40.9756088, -0.0417945
0.8359375, -0.2978516, -0.8076172, -32.1951218, -124.9390259, 40.3048782, -0.0357519
0.8232422, -0.2875977, -0.8232422, -32.6219521, -125.5487823, 40.3048782, -0.0307164
0.8012695, -0.309082, -0.8374023, -35.1829262, -127.4390259, 41.0975609, -0.0290379
0.7949219, -0.3618164, -0.8129883, -36.8902435, -128.1707306, 42.4390259, -0.030045
0.7993164, -0.390625, -0.7973633, -39.4512215, -128.1097565, 44.8780479, -0.0246738
0.7895508, -0.4179688, -0.78125, -38.5975609, -126.9512253, 45.6097565, -0.0219883
0.7861328, -0.4257812, -0.7856445, -37.8658562, -127.4390259, 45.4878044, -0.018967
0.7763672, -0.4179688, -0.796875, -36.0365868, -129.3902435, 45.0609779, -0.0229953
0.7719727, -0.4042969, -0.7944336, -35.1829262, -130.2439117, 44.8170738, -0.0273594
0.7626953, -0.3911133, -0.7753906, -35.4268303, -131.0975647, 44.5731735, -0.0332341
0.7592773, -0.3833008, -0.7631836, -35.4878044, -131.3414612, 44.5121956, -0.0337377
0.7485352, -0.3754883, -0.7734375, -35.4268303, -132.5, 44.2682953, -0.0330663
0.7348633, -0.3813477, -0.8012695, -35.5487823, -133.5365906, 43.9024391, -0.0256809
0.7216797, -0.3886719, -0.8686523, -36.0975609, -136.3414612, 44.2682953, -0.0223239
0.7319336, -0.4169922, -0.9008789, -36.5243912, -137.86586, 44.9390259, -0.0240024
0.7407227, -0.4306641, -0.8969727, -36.8292694, -138.5365906, 46.341465, -0.0428016
0.7788086, -0.4448242, -0.8754883, -36.5243912, -136.0975647, 47.0121956, -0.0411231
0.7836914, -0.440918, -0.8569336, -35.9756088, -134.7561035, 46.7073174, -0.0370947
0.784668, -0.4238281, -0.8408203, -34.0243912, -133.3536682, 45.6097565, -0.0276951
0.769043, -0.4179688, -0.8334961, -33.2926826, -133.3536682, 44.6951218, -0.0223239
0.730957, -0.4067383, -0.8208008, -32.7439041, -135.2439117, 43.5365868, -0.0149386
0.7143555, -0.4077148, -0.8100586, -32.9268303, -136.4024353, 43.4756126, -0.0226596
0.6875, -0.4311523, -0.7978516, -33.3536606, -138.7804871, 43.2317085, -0.0397803
0.668457, -0.4394531, -0.800293, -33.4146347, -140.1829376, 43.2926826, -0.0458228
0.6357422, -0.4619141, -0.8393555, -32.4390259, -142.2561035, 43.1097565, -0.0558938
0.6206055, -0.4755859, -0.8920898, -31.2195129, -143.4146423, 43.1097565, -0.0746929
0.6254883, -0.4726562, -0.9125977, -28.2926826, -145.1219482, 43.841465, -0.0950027
0.6738281, -0.456543, -0.9199219, -25.7926826, -145, 43.9634171, -0.1089342
0.7016602, -0.4345703, -0.9169922, -24.8170738, -143.6585388, 43.5975609, -0.090135
0.7397461, -0.3759766, -0.9243164, -25, -140.1219482, 42.5609779, -0.0451514
0.7485352, -0.3383789, -0.9331055, -25.7926826, -138.2317047, 41.8902435, 0.0092317
0.730957, -0.2978516, -0.9516602, -27.9268303, -137.9268341, 40.6097565, 0.0518654
0.7211914, -0.2978516, -0.9516602, -29.0243912, -138.9024353, 40.3658562, 0.0760357
0.7026367, -0.3500977, -0.9199219, -31.4024391, -140.1829376, 42.0731735, 0.0827497
0.7001953, -0.3881836, -0.8930664, -32.4390259, -140.1829376, 43.3536606, 0.0760357
0.6772461, -0.4511719, -0.8408203, -32.3170738, -139.8170776, 44.6951218, 0.0642863
0.640625, -0.4604492, -0.8305664, -31.0975609, -139.6341553, 44.0243912, 0.0572366
0.6098633, -0.4458008, -0.8510742, -28.2317085, -141.4634247, 42.1951218, 0.0508583
0.5571289, -0.3916016, -0.9125977, -26.8902454, -143.9634247, 41.0365868, 0.0391089
0.5429688, -0.359375, -0.9394531, -27.2560978, -145.2439117, 40.6707344, 0.0236667
0.5507812, -0.3046875, -0.9682617, -29.8170738, -147.1951294, 40.8536606, 0.0058747
0.5742188, -0.2939453, -0.9599609, -31.2195129, -147.5609741, 40.9146347, -0.0041962
0.6293945, -0.3100586, -0.9321289, -35.1829262, -147.1951294, 41.0365868, -0.0135958
0.6401367, -0.3320312, -0.9150391, -36.7073174, -147.0731812, 41.2195129, -0.0458228
0.6479492, -0.3925781, -0.8984375, -38.9024391, -148.1707306, 42.1341476, -0.1243763
0.6401367, -0.4262695, -0.8999023, -39.2073174, -149.2073212, 42.5609779, -0.1990692
0.6220703, -0.4599609, -0.9091797, -36.2804871, -150.9146423, 42.8048782, -0.2626841
0.5947266, -0.4599609, -0.9492188, -34.0853653, -151.4024353, 42.5, -0.3083391
0.5869141, -0.4609375, -0.9858398, -29.1463413, -150.4878082, 41.4634171, -0.2989395
0.5810547, -0.4682617, -1.0356445, -25.7926826, -148.6585388, 41.1585388, -0.266041
0.5917969, -0.4711914, -1.0390625, -24.7560978, -147.86586, 41.2804871, -0.1978943
0.6274414, -0.4628906, -1.0249023, -24.3292694, -145.7926788, 39.7560997, -0.1089342
0.6411133, -0.4433594, -1.0151367, -24.6951218, -144.5731812, 38.3536606, -0.0135958
0.6333008, -0.4091797, -1.0200195, -25.3048782, -141.9512177, 34.8780479, 0.0696574
0.6210938, -0.3891602, -1.0209961, -25.9146347, -141.9512177, 33.4756088, 0.1354543
0.6000977, -0.3833008, -0.9746094, -27.6219521, -143.5365906, 32.7439041, 0.181445
0.5908203, -0.3886719, -0.9423828, -28.3536587, -144.146347, 32.7439041, 0.2046082
0.5688477, -0.3979492, -0.9038086, -29.2682934, -144.7561035, 32.8658562, 0.2046082
0.5205078, -0.3925781, -0.9311523, -29.1463413, -144.6341553, 32.9268303, 0.1950408
0.4936523, -0.3828125, -0.9526367, -27.3170738, -145.2439117, 33.3536606, 0.1707027
0.4755859, -0.3671875, -0.9667969, -25.2439022, -146.8902435, 34.5121956, 0.1408255
0.4775391, -0.3613281, -0.9536133, -24.6341476, -147.5609741, 34.6341476, 0.1085985
0.4970703, -0.3515625, -0.9443359, -25.9146347, -146.0975647, 34.2682953, 0.0763714
0.4960938, -0.3427734, -0.9672852, -27.8048782, -145.5487823, 33.7804871, 0.0535439
0.4736328, -0.3095703, -1.0473633, -33.0487823, -146.2804871, 33.2926826, 0.0387732
0.4658203, -0.2978516, -1.0800781, -35.7317085, -148.1097565, 33.7195129, 0.0290379
0.4931641, -0.2885742, -1.0703125, -38.9024391, -150.1219482, 35.1829262, 0.0231632
0.5175781, -0.2949219, -1.0302734, -39.6951218, -149.6341553, 35.7926826, 0.0125887
0.550293, -0.3374023, -0.953125, -40.6707344, -145.0609741, 35.8536606, 0.0028534
0.5175781, -0.3842773, -0.9306641, -40.9756088, -142.5609741, 35.4268303, -0.008896
0.4868164, -0.4121094, -0.940918, -39.9390259, -142.3170776, 35.6707344, -0.0258488
0.4345703, -0.4624023, -0.9614258, -37.1341476, -146.3414612, 36.9512215, -0.0417945
0.4238281, -0.4780273, -0.9643555, -34.9390259, -148.0487823, 37.6219521, -0.0532082
0.4179688, -0.4775391, -0.9750977, -30.7926846, -148.1707306, 36.9512215, -0.063447
0.4135742, -0.4658203, -0.9970703, -29.0853672, -146.7682953, 36.0975609, -0.0713359
0.3994141, -0.418457, -1.0356445, -26.8292694, -143.4756165, 33.7804871, -0.0706645
0.3999023, -0.3881836, -1.0380859, -26.2195129, -143.1097565, 32.8048782, -0.064622
0.4155273, -0.331543, -1.0078125, -26.2195129, -144.0243988, 31.4024391, -0.0532082
0.4282227, -0.3173828, -0.9858398, -26.8292694, -144.5121918, 30.7317085, -0.0495155
0.4399414, -0.3266602, -0.9682617, -29.1463413, -145.0609741, 29.6341476, -0.0485084
0.4238281, -0.3798828, -0.9892578, -30.4268303, -145.7926788, 30.4268303, -0.0471656
0.4150391, -0.4130859, -0.9980469, -31.5243912, -147.2561035, 32.2560997, -0.0481727
0.3974609, -0.4404297, -0.9946289, -28.9634151, -148.2926788, 33.5365868, -0.0485084
0.3911133, -0.4326172, -0.9829102, -26.6463413, -147.3170776, 33.5975609, -0.0454871
0.3691406, -0.3740234, -0.9780273, -21.8292694, -144.146347, 32.1951218, -0.0458228
0.3544922, -0.331543, -0.9980469, -20.2439022, -142.8048859, 31.8292694, -0.0411231
0.3330078, -0.2709961, -1.0610352, -21.2195129, -142.8048859, 31.0365868, -0.0391089
0.331543, -0.2563477, -1.0771484, -23.4146347, -143.7804871, 31.341465, -0.0350805
0.3535156, -0.2714844, -1.0839844, -29.2682934, -146.2195129, 32.9268303, -0.0325628
0.3725586, -0.2910156, -1.0727539, -32.0731697, -146.4634247, 34.3292694, -0.0394446
0.3891602, -0.3413086, -1.0522461, -34.6341476, -144.6341553, 35.8536606, -0.0394446
0.3852539, -0.3720703, -1.0209961, -34.2682953, -143.1707306, 36.6463432, -0.0391089
0.3691406, -0.3808594, -0.9931641, -31.0365868, -141.5853729, 37.0121956, -0.0394446
0.3334961, -0.3798828, -0.9760742, -27.7439022, -140.4878082, 36.341465, -0.0337377
0.3037109, -0.3686523, -1.0024414, -27.1341476, -140, 35.9756088, -0.0293736
0.2441406, -0.3427734, -1.0844727, -27.3780499, -140.0609741, 36.4634171, -0.0256809
0.230957, -0.3408203, -1.1147461, -27.9268303, -140.9756165, 37.5, -0.0283665
0.2539062, -0.347168, -1.1069336, -29.3292694, -143.1097565, 38.2317085, -0.0270237
0.2841797, -0.3579102, -1.0693359, -29.5121956, -143.4146423, 38.1707344, -0.0290379
0.3276367, -0.3862305, -0.9697266, -29.4512196, -141.3414612, 35.7317085, -0.0273594
0.3305664, -0.3920898, -0.9399414, -28.9634151, -140.0609741, 34.6951218, -0.0238346
0.2929688, -0.4038086, -0.9487305, -27.4390259, -139.4512177, 33.6585388, -0.0229953
0.2382812, -0.3974609, -1.0351562, -26.9512196, -140.1219482, 33.841465, -0.0216526
0.2207031, -0.3930664, -1.0825195, -25.3658543, -142.5, 34.6341476, -0.0176242
0.2280273, -0.3847656, -1.0922852, -24.0243912, -143.3536682, 34.6951218, -0.0149386
0.2529297, -0.3793945, -1.0493164, -23.3536587, -142.6219482, 33.9634171, -0.0149386
0.2807617, -0.3681641, -0.9355469, -23.1707325, -138.7195129, 30.7926846, -0.0176242
0.2631836, -0.3466797, -0.9145508, -24.0243912, -136.4024353, 29.2073174, -0.0203098
0.1821289, -0.2758789, -0.9672852, -27.2560978, -134.2073212, 27.7439022, -0.0240024
0.1352539, -0.2348633, -1.0219727, -28.841465, -135.6707306, 28.2926826, -0.0350805
0.1142578, -0.2021484, -1.112793, -31.8902454, -141.646347, 31.341465, -0.0392767
0.1386719, -0.2124023, -1.1147461, -33.4756088, -143.9024353, 32.6219521, -0.0417945
0.2216797, -0.2890625, -1.0532227, -36.5243912, -144.6341553, 34.6951218, -0.0404517
0.2753906, -0.3740234, -0.96875, -38.7804871, -139.7561035, 35.2439041, -0.0350805
0.2753906, -0.3969727, -0.9458008, -38.4756088, -137.0731812, 35, -0.0303807
0.2128906, -0.3876953, -0.9829102, -35.4878044, -134.9390259, 33.9634171, -0.0250095
0.1650391, -0.3662109, -1.0273438, -33.5365868, -135, 34.0243912, -0.0203098
0.112793, -0.3105469, -1.1015625, -31.4024391, -137.0121918, 34.6951218, -0.0198062
0.1030273, -0.293457, -1.1162109, -31.341465, -137.5, 35.1219521, -0.0198062
0.1303711, -0.2924805, -1.0878906, -32.6219521, -136.8902435, 35.5487823, -0.0179599
0.144043, -0.3071289, -1.0625, -33.6585388, -135.7317047, 35.2439041, -0.0182956
0.1523438, -0.3481445, -1.0195312, -35.6097565, -133.5365906, 34.9390259, -0.0203098
0.1455078, -0.359375, -1.0205078, -35.6097565, -133.1097565, 35.1219521, -0.0219883
0.1337891, -0.3696289, -1.0556641, -33.5365868, -133.7804871, 36.0365868, -0.0253452
0.1323242, -0.3837891, -1.0966797, -29.9390259, -134.6341553, 36.5243912, -0.0240024
0.140625, -0.3935547, -1.1225586, -28.7195129, -134.3902435, 36.8902435, -0.0293736
0.1513672, -0.4057617, -1.1665039, -27.560976, -132.0121918, 37.5609779, -0.042298
0.1616211, -0.3999023, -1.1635742, -27.7439022, -130.4878082, 37.8048782, -0.0458228
0.1928711, -0.3818359, -1.1181641, -26.0975609, -126.8902435, 36.5853653, -0.0480049
0.2006836, -0.362793, -1.0825195, -25.4268303, -125.18293, 35.3658562, -0.0448157
0.1875, -0.3208008, -1.0273438, -25.2439022, -122.3780518, 32.2560997, -0.0424659
0.1616211, -0.3076172, -1.0205078, -26.1585369, -121.646347, 31.341465, -0.0417945
0.1083984, -0.3032227, -1.0336914, -29.0243912, -122.5, 31.2195129, -0.0498512
0.0639648, -0.3193359, -1.0058594, -30.7926846, -123.4756088, 31.7073174, -0.0589151
0.0537109, -0.3242188, -0.9760742, -32.5, -125.2439041, 32.1341476, -0.064622
0.0297852, -0.309082, -0.9223633, -32.6219521, -124.6951218, 30.9756107, -0.0696574
0.0063477, -0.2875977, -0.9287109, -32.3780479, -123.5365906, 30, -0.0760357
-0.0473633, -0.237793, -0.9755859, -32.5, -123.7195129, 29.5731716, -0.0713359
-0.059082, -0.2290039, -0.9902344, -33.2926826, -125.4878082, 30.4878063, -0.0508583
-0.0400391, -0.2382812, -0.9580078, -36.0975609, -129.9390259, 32.3780479, -0.0397803
-0.0161133, -0.2558594, -0.9248047, -37.8658562, -131.4634247, 32.9878044, -0.0236667
0.0083008, -0.3007812, -0.8955078, -40.6707344, -130.9146423, 32.9878044, -0.0115816
0.0004883, -0.3232422, -0.9082031, -41.7073174, -130.36586, 33.0487823, 0.0038605
-0.0341797, -0.3461914, -0.9741211, -41.4024391, -131.0365906, 32.6219521, 0.018967
-0.0610352, -0.3393555, -1.0410156, -40.3048782, -131.5243988, 33.1097565, 0.0290379
-0.0625, -0.3256836, -1.0595703, -38.0487823, -132.2561035, 34.5121956, 0.0320592
-0.0336914, -0.2783203, -1.0585938, -36.4634171, -130.6707306, 35.1219521, 0.0323949
-0.0146484, -0.2636719, -1.0561523, -36.5853653, -129.3292694, 34.5121956, 0.0240024
0.0063477, -0.2602539, -1.0610352, -39.0853653, -127.0121994, 33.6585388, 0.0119173
0.0087891, -0.2749023, -1.0678711, -40.8536606, -126.8292694, 33.7804871, 0.0052033
0.0166016, -0.328125, -1.0576172, -44.0243912, -127.7439041, 35.7926826, 0.0003357
0.0200195, -0.347168, -1.0375977, -44.0243912, -127.9268341, 36.4634171, -0.0008392
0.0161133, -0.3657227, -1.0175781, -40.8536606, -125.7926865, 36.0975609, -0.0015106
0.0029297, -0.3652344, -1.0283203, -38.2317085, -124.0243912, 35.1219521, 0.0005035
-0.0449219, -0.3466797, -1.0634766, -34.2073174, -121.1585388, 34.0853653, 0.0048676
-0.0722656, -0.3417969, -1.0761719, -33.5365868, -120.6707382, 34.5731697, 0.0058747
-0.0737305, -0.3378906, -1.0649414, -32.8048782, -120.3048782, 35.1219521, -0.0035248
-0.059082, -0.3334961, -1.003418, -32.2560997, -119.6341476, 33.841465, -0.008896
-0.0551758, -0.3330078, -0.972168, -32.3780479, -119.0853653, 32.4390259, -0.0132601
-0.0717773, -0.3276367, -0.9462891, -31.9512196, -118.9634171, 30.6707325, -0.0186313
-0.0834961, -0.3198242, -0.956543, -31.8902454, -119.3902435, 30.3658543, -0.0270237
-0.112793, -0.3115234, -0.9780273, -31.7682934, -121.3414688, 30.060976, -0.0391089
-0.1157227, -0.3032227, -0.980957, -31.8292694, -122.3170776, 30.1829281, -0.0370947
-0.1137695, -0.2832031, -0.9560547, -31.6463413, -122.1341476, 30, -0.0293736
-0.112793, -0.2646484, -0.9370117, -32.0731697, -121.5243912, 29.2682934, -0.0229953
-0.1269531, -0.2094727, -0.9145508, -32.6829262, -119.4512253, 27.6219521, -0.0152743
-0.1572266, -0.1948242, -0.9365234, -33.7195129, -119.2682953, 27.1341476, -0.0072175
-0.1708984, -0.2084961, -0.9438477, -37.3780479, -121.0975647, 27.9268303, -0.0008392
-0.175293, -0.2451172, -0.9477539, -41.0365868, -124.3292694, 30.6707325, 0.0065461
-0.1689453, -0.2573242, -0.9477539, -42.3170738, -125.36586, 31.2195129, 0.0072175
-0.1635742, -0.2617188, -0.9711914, -42.5609779, -124.7561035, 31.4024391, 0.0045319
-0.1679688, -0.2568359, -0.9863281, -42.1341476, -124.2682953, 31.4634151, -0.0045319
-0.1635742, -0.2612305, -0.9975586, -42.0121956, -123.9024429, 32.2560997, -0.0364233
-0.1547852, -0.2631836, -0.9887695, -42.4390259, -124.2073212, 32.6219521, -0.0706645
-0.1381836, -0.2573242, -0.9570312, -44.2073174, -123.4146347, 33.2317085, -0.0817426
-0.1333008, -0.2412109, -0.9589844, -45.1219521, -122.3780518, 33.0487823, -0.0602579
-0.1586914, -0.2319336, -0.9921875, -45.7926826, -120.3048782, 32.6219521, -0.0169528
-0.1782227, -0.2456055, -1.0166016, -45.4268303, -120.0609818, 33.1097565, 0.0347448
-0.1782227, -0.2578125, -1.0219727, -44.8780479, -120.5487823, 34.8780479, 0.0696574
-0.1738281, -0.2875977, -1.0336914, -44.3292694, -119.2682953, 36.341465, 0.0782177
-0.1635742, -0.3022461, -1.0292969, -44.3902435, -118.2317123, 37.1341476, 0.0686503
-0.1474609, -0.3188477, -1.003418, -42.6829262, -116.0975647, 37.6219521, 0.0505226
-0.1455078, -0.3183594, -0.9926758, -41.6463432, -115.0609818, 37.1341476, 0.036759
-0.1547852, -0.3027344, -0.9726562, -39.6951218, -112.6219559, 34.8170738, 0.0263523
-0.1679688, -0.2880859, -0.9663086, -39.2682953, -111.5853653, 33.7804871, 0.0186313
-0.1967773, -0.2617188, -0.9384766, -38.841465, -110.8536606, 32.2560997, 0.0112459
-0.2216797, -0.2602539, -0.9135742, -38.5365868, -110.9756088, 31.7073174, -0.0025177
-0.2587891, -0.2797852, -0.8930664, -38.0487823, -111.4634171, 31.4024391, -0.018967
-0.2988281, -0.3120117, -0.9355469, -37.6219521, -111.7682953, 31.9512196, -0.0297093
-0.3105469, -0.3251953, -0.9702148, -36.1585388, -113.0487823, 33.1707306, -0.036759
-0.3027344, -0.3383789, -1.019043, -33.841465, -114.8780518, 34.3292694, -0.0411231
-0.2841797, -0.34375, -1.0107422, -32.5, -115.8536606, 34.2073174, -0.0438087
-0.2329102, -0.3310547, -0.9150391, -29.8780499, -115.18293, 33.2317085, -0.0458228
-0.2109375, -0.3017578, -0.8574219, -28.9024391, -113.2317123, 31.8292694, -0.04448
-0.2192383, -0.1967773, -0.7983398, -27.8048782, -108.1097565, 28.1097565, -0.0404517
-0.25, -0.1489258, -0.8120117, -28.1707325, -106.0975647, 26.6463413, -0.043473
-0.3354492, -0.1220703, -0.8930664, -32.3170738, -107.2561035, 26.6463413, -0.0391089
-0.3662109, -0.1474609, -0.9404297, -35.4268303, -110.36586, 28.7195129, -0.0370947
-0.3706055, -0.2431641, -0.9975586, -41.0975609, -117.0121994, 34.1463432, -0.0330663
-0.3110352, -0.3164062, -0.9960938, -42.8048782, -119.0243912, 36.4024391, -0.0391089
-0.2739258, -0.3232422, -0.9697266, -41.0975609, -117.9878082, 38.5365868, -0.0686503
-0.2075195, -0.2700195, -0.8671875, -35.6707344, -112.4390259, 35.3048782, -0.1028916
-0.1967773, -0.2294922, -0.8164062, -33.2317085, -109.0243912, 32.6219521, -0.1163195
-0.2441406, -0.1630859, -0.7695312, -33.4146347, -103.6585388, 27.9878063, -0.1121233
-0.2963867, -0.1542969, -0.7797852, -36.0365868, -103.4146347, 27.560976, -0.1015488
-0.3886719, -0.1870117, -0.8325195, -43.2926826, -107.9268341, 30.4268303, -0.0787213
-0.4194336, -0.2207031, -0.8652344, -45.7926826, -111.5243912, 32.6829262, -0.0498512
-0.4331055, -0.2817383, -0.9331055, -46.0365868, -117.1951218, 36.4024391, -0.0196384
-0.4169922, -0.3027344, -0.9658203, -44.6951218, -118.8414688, 37.0121956, 0.0065461
-0.3681641, -0.3139648, -0.9873047, -40.0609779, -119.0853653, 37.0121956, 0.0276951
-0.2866211, -0.3032227, -0.9326172, -37.6219521, -118.5365906, 36.5243912, 0.0374304
-0.2509766, -0.2895508, -0.8974609, -35.3048782, -114.8780518, 33.9634171, 0.0182956
-0.2314453, -0.2587891, -0.8598633, -35.5487823, -110.7317123, 31.280489, -0.0015106
-0.2480469, -0.2460938, -0.8671875, -36.5243912, -109.0853653, 30.4878063, -0.0045319
-0.3149414, -0.230957, -0.9277344, -37.5, -108.6585388, 30.6707325, -0.0082246
-0.340332, -0.2338867, -0.9589844, -37.1951218, -109.5121994, 31.280489, -0.0135958
-0.3579102, -0.2446289, -1.0009766, -35.5487823, -111.2804871, 32.9878044, -0.0078889
-0.359375, -0.2524414, -1.0083008, -34.6341476, -110.7926865, 33.4146347, -0.0028534
-0.3442383, -0.2602539, -0.9838867, -34.4512215, -108.1097565, 34.3292694, 0.0095674
-0.3339844, -0.2504883, -0.9560547, -34.1463432, -106.4024429, 34.6341476, 0.0206455
-0.3291016, -0.2163086, -0.8823242, -33.4146347, -103.0487823, 33.9024391, 0.0206455
-0.3457031, -0.1640625, -0.8457031, -33.4146347, -101.8292694, 32.8048782, 0.0246738
-0.3637695, -0.1352539, -0.8549805, -35.2439041, -100.3048782, 31.8902454, 0.0287022
-0.4145508, -0.090332, -0.8920898, -38.6585388, -100.7317123, 32.5609779, 0.0246738
-0.4335938, -0.0874023, -0.9057617, -40.1219521, -101.5853653, 33.4756088, 0.0129244
-0.4399414, -0.1337891, -0.8955078, -43.4146347, -103.2926865, 36.5243912, -0.0154421
-0.4360352, -0.1757812, -0.8828125, -43.9634171, -103.5365906, 37.9268303, -0.057908
-0.4194336, -0.2509766, -0.871582, -44.8780479, -103.1097565, 41.0365868, -0.0847639
-0.4082031, -0.2719727, -0.8730469, -44.6951218, -102.1341476, 41.9512215, -0.0928206
-0.4091797, -0.2626953, -0.862793, -42.6829262, -100.0609818, 42.4390259, -0.100206
-0.4145508, -0.2368164, -0.8579102, -41.1585388, -98.7195129, 41.4634171, -0.0881209
-0.4379883, -0.1606445, -0.8520508, -39.0243912, -95.7926865, 38.5365868, -0.068986
-0.4667969, -0.0786133, -0.8466797, -39.5731735, -94.5731735, 37.3780479, -0.0438087
-0.4863281, -0.0600586, -0.8300781, -43.2926826, -93.7804871, 36.6463432, -0.0135958
-0.4902344, -0.1064453, -0.7504883, -48.4146347, -97.1951218, 37.6829262, 0.008896
-0.4853516, -0.1582031, -0.7060547, -50.2439041, -99.5731735, 38.2926826, 0.0169528
-0.4833984, -0.2631836, -0.6958008, -51.0365868, -102.9268341, 38.9024391, 0.005539
-0.5, -0.2944336, -0.7299805, -49.3902435, -103.1097565, 38.9024391, -0.0182956
-0.5322266, -0.2944336, -0.8168945, -42.5, -102.1951218, 38.9024391, -0.0387732
-0.53125, -0.269043, -0.8417969, -38.0487823, -101.2195129, 38.5365868, -0.0438087
-0.5141602, -0.1987305, -0.8173828, -32.3780479, -97.9268341, 34.6951218, -0.0431373
-0.5048828, -0.1679688, -0.7885742, -32.0731697, -96.4024429, 32.2560997, -0.0488441
-0.5039062, -0.140625, -0.7216797, -35.6097565, -94.2682953, 28.6585369, -0.0454871
-0.5234375, -0.1323242, -0.7041016, -38.5975609, -94.2073212, 27.8658543, -0.0354162
-0.546875, -0.1367188, -0.7255859, -43.3536606, -96.5853653, 27.5, -0.0218204
-0.5825195, -0.1420898, -0.8071289, -44.1463432, -101.5853653, 29.0243912, -0.0139315
-0.5771484, -0.159668, -0.8579102, -44.0853653, -103.7804871, 30.4268303, -0.018967
-0.5366211, -0.1953125, -0.9360352, -43.0487823, -106.1585388, 33.7195129, -0.0256809
-0.5009766, -0.2114258, -0.9399414, -42.1341476, -105.4878082, 35.0609779, -0.0256809
-0.4189453, -0.1943359, -0.8745117, -38.9634171, -100.5487823, 35.3048782, -0.0176242
-0.3876953, -0.1660156, -0.8232422, -37.7439041, -96.2804871, 33.9024391, -0.0124208
-0.3803711, -0.0952148, -0.746582, -36.8292694, -87.3170776, 29.7560978, -0.0045319
-0.4086914, -0.0585938, -0.737793, -37.5, -84.0853653, 28.1097565, 0.0102388
-0.4916992, -0.0322266, -0.7451172, -41.5853653, -82.6219559, 27.9878063, 0.0172885
-0.5585938, -0.0605469, -0.7680664, -43.9024391, -84.2073212, 28.7195129, 0.0219883
-0.5849609, -0.0947266, -0.7788086, -48.1707344, -88.4146347, 32.0731697, 0.023331
-0.6020508, -0.1489258, -0.7749023, -50.1219521, -90.4268341, 35.4268303, 0.0115816
-0.6035156, -0.15625, -0.7753906, -49.3902435, -90.3658524, 36.4024391, -0.0035248
-0.5898438, -0.1474609, -0.7724609, -46.341465, -89.3292694, 36.2195129, -0.0159457
-0.5693359, -0.1357422, -0.7578125, -44.5731735, -88.7195129, 35.5487823, -0.0318914
-0.5336914, -0.1289062, -0.6899414, -43.4756126, -88.6585388, 33.2317085, -0.0438087
-0.5249023, -0.1328125, -0.6533203, -44.1463432, -88.5975647, 32.0731697, -0.0636149
-0.5405273, -0.1411133, -0.6323242, -46.341465, -87.6219559, 30.6097565, -0.0780499
-0.5620117, -0.1489258, -0.6635742, -47.0731735, -87.1951218, 30.3658543, -0.090135
-0.6186523, -0.1533203, -0.7719727, -46.7073174, -89.2682953, 32.3780479, -0.0894636
-0.6254883, -0.1533203, -0.8598633, -45.1829262, -91.0365906, 33.4756088, -0.0696574
-0.6049805, -0.1499023, -0.8681641, -42.1341476, -94.146347, 35, -0.018967
-0.5317383, -0.1459961, -0.8066406, -39.6341476, -93.1097565, 34.3902435, 0.0414588
-0.4990234, -0.1411133, -0.7548828, -38.4146347, -90.9756088, 33.4756088, 0.0837568
-0.4726562, -0.1132812, -0.6621094, -38.1097565, -85.4878082, 30.8536587, 0.1038987
-0.4833984, -0.0991211, -0.6474609, -38.6585388, -83.2926865, 29.5731716, 0.0991989
-0.5556641, -0.0761719, -0.7070312, -40.7317085, -81.4024429, 28.6585369, 0.0777142
-0.5942383, -0.074707, -0.7578125, -42.0121956, -82.3780518, 29.5731716, 0.0548867
-0.6342773, -0.0805664, -0.84375, -43.9024391, -86.7073212, 33.1707306, 0.0372625
-0.6259766, -0.090332, -0.8481445, -44.3292694, -88.5365906, 34.6951218, 0.0236667
-0.5717773, -0.1054688, -0.7885742, -44.5731735, -88.0487823, 34.8170738, -0.0038605
-0.5292969, -0.1064453, -0.7045898, -44.7560997, -85.9146347, 34.0243912, -0.0540475
-0.5283203, -0.1040039, -0.6796875, -45.2439041, -81.3414688, 31.0365868, -0.0780499
-0.5600586, -0.1000977, -0.6796875, -45.6707344, -79.2073212, 29.8780499, -0.085771
-0.5776367, -0.0957031, -0.7026367, -45.7926826, -79.146347, 29.9390259, -0.0928206
-0.6025391, -0.0883789, -0.7670898, -45.5487823, -80.3048782, 31.1585369, -0.0837568
-0.6035156, -0.0922852, -0.7861328, -45.7317085, -80.5487823, 32.3170738, -0.0616007
-0.5913086, -0.1000977, -0.793457, -44.5731735, -79.2073212, 33.4146347, -0.0453193
-0.5771484, -0.1040039, -0.793457, -43.4756126, -77.5, 33.9024391, -0.0528725
-0.5551758, -0.0820312, -0.7714844, -42.1341476, -73.1097565, 33.2926826, -0.0565652
-0.5512695, -0.0644531, -0.7524414, -41.8902435, -70.7317123, 32.8658562, -0.0488441
-0.5522461, -0.0332031, -0.6821289, -42.0731735, -66.2195129, 31.280489, -0.0337377
-0.5712891, -0.0507812, -0.5820312, -42.5609779, -64.6341476, 30.3048782, -0.0196384
-0.5883789, -0.0771484, -0.5395508, -44.0243912, -63.4756126, 29.2073174, -0.0075532
-0.6469727, -0.1289062, -0.5327148, -44.6951218, -63.7195129, 28.841465, -0.018967
-0.6879883, -0.1464844, -0.5771484, -43.5975609, -64.9390259, 29.1463413, -0.0352483
-0.7426758, -0.1518555, -0.6884766, -39.9390259, -69.1463394, 30.6707325, -0.0327306
-0.7387695, -0.1425781, -0.7270508, -37.1951218, -71.7073212, 31.4634151, -0.0347448
-0.6767578, -0.1015625, -0.7338867, -32.7439041, -74.2682953, 30.6097565, -0.0458228
-0.6425781, -0.0688477, -0.7138672, -32.1951218, -73.0487823, 29.4512196, -0.0565652
-0.5898438, -0.0195312, -0.6538086, -33.9634171, -67.9878082, 26.4024391, -0.0532082
-0.5795898, -0.0112305, -0.6162109, -35.5487823, -65.8536606, 25.1829281, -0.0370947
-0.5981445, -0.0170898, -0.5551758, -38.2317085, -64.3902435, 24.3292694, -0.0132601
-0.6254883, -0.050293, -0.5390625, -40, -65.5487823, 24.3292694, 0.0005035
-0.6469727, -0.0639648, -0.5683594, -40.1829262, -66.1585388, 24.9390259, 0.0105745
-0.690918, -0.0791016, -0.6601562, -39.1463432, -68.1707306, 26.4634151, 0.024506
-0.6948242, -0.0839844, -0.6889648, -37.6219521, -69.6341476, 27.1341476, 0.0253452
-0.6679688, -0.0703125, -0.7138672, -34.5121956, -71.9512177, 27.3780499, 0.0186313
-0.6455078, -0.0498047, -0.7192383, -34.0853653, -71.7073212, 26.9512196, 0.0115816
-0.6108398, -0.0117188, -0.7036133, -35.1219521, -69.2682953, 25.1219521, -0.0005035
-0.5942383, -0.0029297, -0.6826172, -36.4024391, -68.1097565, 24.3292694, -0.0109102
-0.5766602, -0.0087891, -0.6235352, -39.8170738, -67.0731735, 23.4756107, -0.0221561
-0.5878906, -0.0234375, -0.5727539, -40.9146347, -66.3414612, 23.4146347, -0.0323949
-0.6069336, -0.0239258, -0.5708008, -42.5, -64.4512177, 22.9268303, -0.0458228
-0.6713867, -0.0117188, -0.6201172, -43.7195129, -63.1097565, 24.1463413, -0.051194
-0.7001953, -0.003418, -0.6513672, -44.2073174, -63.7804909, 24.8780499, -0.047837
-0.7114258, -0.0112305, -0.6958008, -44.4512215, -66.9512177, 26.9512196, -0.0421302
-0.6933594, -0.0292969, -0.6967773, -43.7804871, -68.8414688, 27.3780499, -0.0464942
-0.6376953, -0.0581055, -0.6601562, -42.5609779, -69.0243912, 27.3780499, -0.0421302
-0.6103516, -0.0732422, -0.6391602, -41.7682953, -67.68293, 26.6463413, -0.0391089
-0.5947266, -0.0732422, -0.6083984, -41.5243912, -62.5609779, 24.7560978, -0.0458228
-0.5996094, -0.0585938, -0.6098633, -41.7682953, -60.2439041, 23.780489, -0.0448157
-0.6342773, -0.0073242, -0.6381836, -42.5, -57.5609779, 22.1341476, -0.0381018
-0.6791992, 0.0229492, -0.6757812, -43.2317085, -57.3170738, 21.7682934, -0.0381018
-0.6879883, 0.0107422, -0.6679688, -43.4146347, -57.6219521, 22.2560978, -0.0391089
-0.6821289, -0.0493164, -0.6020508, -41.7073174, -57.5609779, 24.0243912, -0.0565652
-0.6674805, -0.0776367, -0.5527344, -40.1219521, -56.6463432, 24.5121956, -0.0713359
-0.6630859, -0.0830078, -0.4887695, -36.2804871, -52.6219521, 23.4756107, -0.0830854
-0.6811523, -0.0605469, -0.4946289, -35.1219521, -50.7317085, 22.1951218, -0.1156481
-0.7382812, -0.0180664, -0.5820312, -33.9634171, -50.4268303, 21.3414631, -0.1592889
-0.7553711, -0.003418, -0.6318359, -34.9390259, -52.4390259, 21.9512196, -0.1968872
-0.7446289, -0.0087891, -0.6821289, -36.8292694, -56.7073174, 23.2317085, -0.1942016
-0.7192383, -0.0288086, -0.6748047, -37.1341476, -58.1097565, 23.6585369, -0.1700313
-0.6479492, -0.0698242, -0.6176758, -36.5243912, -56.8902435, 22.9878063, -0.139147
-0.6103516, -0.0742188, -0.5810547, -35.1829262, -54.3902435, 21.9512196, -0.0971847
-0.6113281, -0.0668945, -0.5722656, -32.8048782, -48.1707344, 19.2682934, -0.0498512
-0.6538086, -0.0405273, -0.5581055, -30.1219521, -43.4146347, 17.8048782, 0.0023499
-0.6782227, -0.0356445, -0.5458984, -28.9024391, -41.8292694, 17.8048782, 0.0438087
-0.7319336, -0.0302734, -0.5366211, -26.9512196, -40.0609779, 18.0487804, 0.0763714
-0.7509766, -0.0366211, -0.543457, -26.6463413, -39.5731735, 18.1707325, 0.0978561
-0.7729492, -0.0419922, -0.5771484, -26.5853672, -38.9024391, 18.9024391, 0.1099413
-0.7729492, -0.0415039, -0.5917969, -26.3414631, -39.2073174, 18.8414631, 0.1173266
-0.7460938, -0.0341797, -0.5786133, -26.4634151, -41.0365868, 17.7439022, 0.117998
-0.7314453, -0.0249023, -0.5541992, -25.9146347, -41.4634171, 16.7682934, 0.1085985
-0.7060547, -0.0063477, -0.4995117, -26.0365868, -39.3902435, 14.6951227, 0.0955062
-0.7045898, -0.0141602, -0.4501953, -26.3414631, -37.8658562, 13.6585369, 0.079057
-0.7231445, -0.0219727, -0.4331055, -27.0121956, -35.4268303, 12.7439032, 0.0676432
-0.7646484, -0.0341797, -0.4335938, -27.1951218, -35.6097565, 11.7073174, 0.0569009
-0.7890625, -0.0424805, -0.4501953, -27.3170738, -36.9512215, 11.4634151, 0.0387732
-0.8120117, -0.0527344, -0.4990234, -27.1341476, -40.9146347, 11.6463413, 0.0287022
-0.8095703, -0.0551758, -0.5317383, -26.7073174, -43.6585388, 12.2560978, 0.018967
-0.7675781, -0.0395508, -0.6015625, -26.2195129, -47.7439041, 12.3170738, 0.0085603
-0.7358398, -0.0209961, -0.6279297, -25.8536587, -48.1707344, 11.9512196, -0.0045319
-0.6748047, 0.0092773, -0.6293945, -25.7926826, -45.9756126, 10.6707315, -0.0169528
-0.6538086, 0.0219727, -0.5908203, -25.8536587, -43.1097565, 10, -0.0310521
-0.6347656, 0.015625, -0.5048828, -27.0731716, -35.6097565, 8.3536587, -0.0421302
-0.6831055, 0, -0.4580078, -27.5, -31.7682934, 7.9878049, -0.0488441
-0.7260742, -0.003418, -0.4550781, -28.1707325, -27.6829281, 7.8048782, -0.0475013
-0.8012695, 0.0166016, -0.4873047, -29.2073174, -28.6585369, 7.9268293, -0.0652934
-0.8266602, 0.0268555, -0.5185547, -30.1219521, -30.4268303, 8.3536587, -0.1005417
-0.8291016, 0.0249023, -0.5644531, -32.1341476, -35.1219521, 9.3902445, -0.1190051
-0.8125, 0.0146484, -0.5688477, -33.2317085, -36.8292694, 9.9390249, -0.1284047
-0.7587891, 0.0141602, -0.5483398, -34.0853653, -37.0121956, 10, -0.1371328
-0.7304688, 0.0136719, -0.5390625, -33.5975609, -35.6097565, 9.6341467, -0.1223621
-0.7080078, 0.0214844, -0.5537109, -33.6585388, -31.7682934, 8.2926826, -0.1062486
-0.7036133, 0.0253906, -0.5561523, -33.9024391, -30.060976, 8.1707315, -0.0871138
-0.7114258, 0.0097656, -0.5356445, -34.2682953, -27.4390259, 8.6585369, -0.0582437
-0.7290039, -0.0112305, -0.4750977, -33.7195129, -25.9146347, 8.9634151, -0.0323949
-0.7436523, -0.0175781, -0.4477539, -31.8902454, -22.0121956, 8.6585369, -0.0083925
-0.7895508, -0.0029297, -0.440918, -31.6463413, -19.0243912, 7.8658538, 0.0102388
-0.8183594, 0.0053711, -0.4555664, -32.1951218, -18.5365849, 7.6219516, 0.0176242
-0.8491211, 0.0161133, -0.4848633, -34.0243912, -21.7073174, 7.9878049, 0.0139315
-0.8383789, 0.0292969, -0.4882812, -34.8780479, -23.4756107, 8.1097565, 0.0072175
-0.7954102, 0.0463867, -0.4609375, -34.6951218, -24.4512196, 7.8658538, -0.0078889
-0.7871094, 0.0458984, -0.4355469, -34.0853653, -24.1463413, 7.3170733, -0.0223239
-0.7788086, 0.0229492, -0.3916016, -32.8658562, -22.0121956, 6.7682929, -0.0246738
-0.7851562, 0.0068359, -0.3935547, -33.2317085, -21.2195129, 7.2560978, -0.0095674
-0.7954102, -0.0170898, -0.4140625, -32.1341476, -21.3414631, 7.9878049, 0.0287022
-0.8046875, -0.0249023, -0.4326172, -31.0975609, -21.9512196, 7.7439027, 0.0663005
-0.8085938, -0.0229492, -0.449707, -28.1097565, -23.2926826, 7.0731707, 0.0803998
-0.7983398, -0.0068359, -0.5063477, -26.8902454, -22.5, 6.2195125, 0.0746929
-0.793457, 0.0131836, -0.5341797, -27.0121956, -21.4024391, 5.670732, 0.0548867
-0.7753906, 0.0488281, -0.5341797, -27.6219521, -19.2682934, 5.0609756, 0.0327306
-0.7661133, 0.0581055, -0.4956055, -27.6219521, -18.5975609, 4.5731707, 0.0099031
-0.7568359, 0.0380859, -0.4067383, -26.1585369, -15.6707325, 4.1463413, -0.0048676
-0.7680664, 0.0249023, -0.3930664, -25.2439022, -13.5975609, 4.4512196, -0.0135958
-0.8066406, 0.0083008, -0.5166016, -26.0365868, -11.8902445, 5.1219511, -0.0216526
-0.8251953, -0.0107422, -0.6557617, -28.6585369, -12.6219511, 5.8536587, -0.0250095
-0.8027344, 0.0454102, -0.5595703, -31.6463413, -13.3536587, 6.1585369, -0.0344091
-0.7392578, 0.1655273, -0.3701172, -29.3902454, -11.9512196, 5.5487804, -0.0359197
-0.7431641, 0.1738281, -0.3168945, -23.780489, -6.4024391, 2.9268293, -0.04448
-0.8188477, 0.0976562, -0.347168, -25.7926826, -2.195122, 4.1463413, -0.0501869
-0.8671875, 0.0522461, -0.387207, -28.9024391, -3.5975611, 5.7926831, -0.0464942
-0.9018555, -0.0048828, -0.4272461, -33.1097565, -10.4268293, 9.2073174, -0.0428016
-0.8842773, -0.0078125, -0.4375, -32.1951218, -13.7195129, 9.2682924, -0.0458228
-0.8134766, 0.0161133, -0.4663086, -27.6829281, -17.7439022, 6.890244, -0.043473
-0.7885742, 0.0249023, -0.4770508, -26.8292694, -17.5, 5.8536587, -0.0394446
-0.7700195, 0.0200195, -0.4682617, -26.8292694, -14.2682934, 5.4268293, -0.040116
-0.7646484, 0.0161133, -0.4575195, -26.5853672, -12.6219511, 5.1829271, -0.0431373
-0.769043, 0.0327148, -0.4453125, -24.3902435, -10.3048782, 3.9634147, -0.0485084
-0.7949219, 0.0615234, -0.4335938, -23.4756107, -9.8170738, 2.9878049, -0.0525368
-0.8081055, 0.0610352, -0.4194336, -23.4756107, -8.6585369, 2.3170731, -0.0433051
-0.8320312, 0.0541992, -0.3867188, -23.9024391, -8.780488, 2.1341465, -0.0377661
-0.8364258, 0.0375977, -0.3793945, -23.0487804, -9.7560978, 2.0121951, -0.0384375
-0.8505859, 0.0161133, -0.4130859, -22.0121956, -11.4634151, 1.7682927, -0.0397803
-0.8432617, 0.0092773, -0.4453125, -21.3414631, -12.1341467, 1.4634147, -0.0407874
-0.8144531, 0.027832, -0.4819336, -20.2439022, -14.2682934, 0.4878049, -0.0377661
-0.7954102, 0.0405273, -0.4750977, -19.5731716, -14.3902445, 0.1219512, -0.0344091
-0.7617188, 0.0595703, -0.4311523, -17.8048782, -12.9268293, -0.7926829, -0.0431373
-0.7592773, 0.0620117, -0.4174805, -16.8902435, -10.5487804, -0.7317073, -0.0481727
-0.7871094, 0.0786133, -0.4301758, -16.6463413, -6.7073174, -0.5487805, -0.0485084
-0.8198242, 0.0820312, -0.4677734, -17.1951218, -6.0975609, 0.0609756, -0.0491798
-0.8237305, 0.0766602, -0.480957, -17.2560978, -7.5, 0.8536586, -0.0480049
-0.8081055, 0.0493164, -0.5024414, -16.2195129, -8.9024391, 2.0121951, -0.0501869
-0.7910156, 0.0332031, -0.5039062, -15.2439032, -8.719512, 2.1341465, -0.0471656
-0.7568359, 0.0258789, -0.4824219, -11.9512196, -6.0975609, 2.8658538, -0.0431373
-0.7470703, 0.0356445, -0.4506836, -10, -3.9024391, 3.1707318, -0.0340734
-0.7558594, 0.0463867, -0.3959961, -6.4024391, 1.8902439, 2.4390244, -0.035584
-0.7749023, 0.0458984, -0.3881836, -5.4268293, 4.2682929, 2.5, -0.0317235
-0.8237305, 0.0458984, -0.4130859, -4.7560978, 6.280488, 2.1341465, -0.0256809
-0.8413086, 0.0415039, -0.4335938, -5.4268293, 5.7317076, 1.7682927, -0.0330663
-0.8427734, 0.0454102, -0.4541016, -5.9756098, 3.4146342, 1.7073171, -0.0303807
-0.8037109, 0.0424805, -0.4375, -6.0975609, 2.5, 1.1585366, -0.0270237
-0.7895508, 0.0405273, -0.4267578, -5.670732, 3.3536587, -0.1829268, -0.0182956
-0.7739258, 0.0576172, -0.434082, -5.1219511, 6.1585369, -1.3414634, -0.0102388
-0.7739258, 0.0541992, -0.4541016, -5.5487804, 7.6829271, -1.3414634, -0.0001678
-0.7827148, 0.0351562, -0.480957, -6.3414636, 8.719512, -1.5853659, 0.0112459
-0.777832, 0.0234375, -0.4819336, -6.280488, 8.9024391, -1.6463414, 0.0208133
-0.7563477, -0.012207, -0.4550781, -3.7804878, 9.8780489, -1.6463414, 0.0219883
-0.7480469, -0.0180664, -0.4350586, -1.4634147, 11.5853662, -1.7682927, 0.0146029
-0.7578125, 0.0205078, -0.394043, 2.3780489, 16.5243912, -2.7439024, 0.0078889
-0.7739258, 0.0532227, -0.3930664, 4.0243902, 19.0243912, -3.5365853, -0.0041962
-0.8178711, 0.1210938, -0.3969727, 3.1097562, 21.1585369, -4.2073174, -0.0028534
-0.8408203, 0.1318359, -0.4072266, 1.7073171, 20.6097565, -4.2682929, -0.005539
-0.8354492, 0.1083984, -0.4213867, -1.5853659, 17.560976, -4.3292685, -0.0095674
-0.8095703, 0.0551758, -0.4755859, -4.1463413, 15.6707325, -4.0853658, -0.023331
-0.7905273, 0.027832, -0.4980469, -4.4512196, 15.4268293, -3.9024391, -0.0350805
-0.7446289, 0.0083008, -0.4951172, -3.4146342, 17.7439022, -3.9024391, -0.0397803
-0.7260742, 0.0170898, -0.4750977, -2.3780489, 19.6951218, -4.2682929, -0.0379339
-0.7138672, 0.0561523, -0.4365234, 0.0609756, 25.7317085, -5.2439027, -0.0377661
-0.7270508, 0.0834961, -0.4291992, 0.9146342, 28.4756107, -5.2439027, -0.0302129
-0.7783203, 0.125, -0.4458008, -0.1219512, 32.1341476, -4.390244, -0.0325628
-0.7983398, 0.1220703, -0.4609375, -1.3414634, 32.6829262, -3.8414636, -0.0350805
-0.8037109, 0.0620117, -0.4731445, -3.3536587, 30.3658543, -1.6463414, -0.0471656
-0.7666016, 0.0102539, -0.4658203, -2.9878049, 28.780489, -1.2804878, -0.0874495
-0.7480469, 0.0078125, -0.4648438, -0.1829268, 28.1707325, -0.4268293, -0.1163195
-0.7197266, 0.0297852, -0.4804688, 2.4390244, 31.8902454, -0.9146342, -0.1324331
-0.7109375, 0.0507812, -0.4902344, 2.9878049, 33.7195129, -1.1585366, -0.1270619
-0.7172852, 0.1108398, -0.496582, 1.4634147, 36.8902435, -1.4634147, -0.0988632
-0.7207031, 0.128418, -0.4980469, 0.2439024, 37.8658562, -1.8292683, -0.0605936
-0.7299805, 0.1074219, -0.4951172, -2.5, 39.0853653, -1.7682927, -0.01561
-0.7304688, 0.0722656, -0.4926758, -2.8658538, 38.9024391, -1.097561, 0.0317235
-0.7177734, 0.0048828, -0.484375, -2.2560976, 39.4512215, -0.1219512, 0.0656291
-0.7089844, -0.0087891, -0.4765625, -0.8536586, 40.3048782, -0.0609756, 0.0861067
-0.7021484, -0.0131836, -0.4765625, 2.3170731, 43.2926826, -0.9146342, 0.0971847
-0.7055664, 0, -0.4858398, 3.5975611, 44.9390259, -1.4634147, 0.1000381
-0.7060547, 0.0141602, -0.4892578, 5.2439027, 47.0731735, -2.0731707, 0.0998703
-0.7109375, 0.0507812, -0.4711914, 6.0975609, 48.6585388, -3.2317073, 0.0963455
-0.7075195, 0.0654297, -0.4555664, 6.5243902, 49.6951218, -3.4756098, 0.0837568
-0.7202148, 0.0683594, -0.46875, 6.0365853, 51.2804909, -4.5731707, 0.0703288
-0.7226562, 0.0527344, -0.4892578, 5.5487804, 51.341465, -4.3292685, 0.0589151
-0.7104492, 0.0161133, -0.5112305, 5.3048782, 49.9390259, -3.5365853, 0.040116
-0.6899414, 0, -0.4980469, 6.1585369, 49.9390259, -3.1707318, 0.0258488
-0.65625, -0.0112305, -0.4384766, 10.060976, 52.5, -4.0243902, 0.0112459
-0.6508789, -0.0053711, -0.425293, 11.7073174, 54.8170738, -4.8780489, 0.0025177
-0.6757812, 0.0053711, -0.4399414, 13.841464, 58.2926826, -6.8292685, -0.0065461
-0.7158203, 0.015625, -0.4912109, 13.9634151, 59.0243912, -7.2560978, -0.0065461
-0.7255859, 0.0219727, -0.5180664, 12.4390249, 57.3780518, -7.3170733, -0.0151064
-0.7080078, 0.0253906, -0.5620117, 10.7926836, 55.2439041, -7.1341467, -0.0226596
-0.6865234, 0.0322266, -0.578125, 10.4878054, 55.0609779, -7.0731707, -0.0293736
-0.6425781, 0.0375977, -0.5834961, 12.0731707, 57.3170738, -6.6463418, -0.033402
-0.6210938, 0.0395508, -0.5717773, 12.8658543, 58.9634171, -6.4634147, -0.0357519
-0.5961914, 0.0234375, -0.5361328, 15.6707325, 64.5731735, -6.280488, -0.0384375
-0.5957031, 0.012207, -0.5136719, 17.0731716, 67.0121994, -6.0975609, -0.0451514
-0.6079102, 0.0019531, -0.4804688, 18.9024391, 70.7926865, -6.0365853, -0.0587472
-0.6269531, -0.0024414, -0.4677734, 19.6951218, 72.0731735, -6.4634147, -0.0736858
-0.6757812, 0, -0.4799805, 20, 72.9878082, -7.4390244, -0.085771
-0.7050781, 0.0083008, -0.5205078, 19.7560978, 72.1951218, -7.6829271, -0.0948348
-0.703125, 0.0073242, -0.5478516, 18.6585369, 69.5731735, -8.2317076, -0.0887922
-0.6748047, 0.0078125, -0.5888672, 17.2560978, 67.3170776, -8.4756098, -0.0780499
-0.6479492, 0.0063477, -0.5957031, 16.9512196, 67.2560959, -8.1707315, -0.0569009
-0.5952148, 0.0073242, -0.6049805, 17.0731716, 68.2926865, -8.0487804, -0.0317235
-0.5712891, 0.0141602, -0.597168, 18.0487804, 70.4268341, -8.2317076, -0.0062104
-0.5429688, 0.0371094, -0.5634766, 19.2073174, 76.2195129, -8.841464, 0.0124208
-0.5429688, 0.0449219, -0.5449219, 19.4512196, 79.2073212, -9.0243902, 0.0276951
-0.5795898, 0.0380859, -0.527832, 18.9024391, 83.6585388, -10, 0.0384375
-0.6010742, 0.0253906, -0.5341797, 18.5365849, 84.0243912, -9.3902445, 0.0387732
-0.6376953, -0.0195312, -0.5488281, 17.5, 82.3780518, -8.4146347, 0.0344091
-0.6357422, -0.0532227, -0.5649414, 17.1341476, 80.6097565, -7.8048782, 0.0199741
-0.6279297, -0.0605469, -0.5722656, 17.8048782, 80.0609741, -8.0487804, -0.0065461
-0.6035156, -0.0600586, -0.5942383, 18.7195129, 80.7926865, -9.2682924, -0.0347448
-0.5913086, -0.0498047, -0.6206055, 18.8414631, 81.2804871, -10.1219511, -0.0421302
-0.5600586, -0.0107422, -0.6782227, 18.1097565, 83.0487823, -11.280488, -0.0340734
-0.5473633, 0.0126953, -0.6938477, 17.560976, 84.4512253, -11.7682934, -0.0028534
-0.5170898, 0.0229492, -0.6640625, 16.2195129, 87.0121994, -12.8048782, 0.033402
-0.5014648, 0.0161133, -0.6298828, 16.1585369, 89.0243912, -13.1097565, 0.0407874
-0.5029297, -0.0136719, -0.5634766, 16.4024391, 93.4146347, -13.2317076, 0.0253452
-0.5336914, -0.0405273, -0.5629883, 16.2195129, 95.2439041, -13.4146347, 0.0072175
-0.5556641, -0.043457, -0.5795898, 17.0121956, 97.0731735, -13.9024391, -0.0041962
-0.5878906, -0.0454102, -0.6132812, 17.1341476, 95.6707306, -14.4512196, -0.0206455
-0.5947266, -0.0473633, -0.6113281, 17.5, 94.2073212, -15.060976, -0.030045
-0.5878906, -0.0820312, -0.5742188, 18.5975609, 91.7073212, -16.0365849, -0.0451514
-0.5786133, -0.1010742, -0.5615234, 19.8170738, 91.2195129, -16.5243912, -0.0706645
-0.5703125, -0.1201172, -0.5634766, 22.6829281, 91.4024429, -18.0487804, -0.0827497
-0.5683594, -0.1201172, -0.5756836, 23.9634151, 91.8902435, -18.8414631, -0.0874495
-0.5668945, -0.0898438, -0.6132812, 26.280489, 91.7682953, -20.9146347, -0.0894636
-0.5610352, -0.0732422, -0.6293945, 26.9512196, 91.5243912, -21.7682934, -0.0820783
-0.5458984, -0.0634766, -0.6577148, 26.4634151, 90.7926865, -23.3536587, -0.0699931
-0.5322266, -0.0732422, -0.6889648, 25.7926826, 90.6097565, -23.7195129, -0.0518654
-0.5244141, -0.0839844, -0.7006836, 23.6585369, 90.6707306, -22.8658543, -0.0323949
-0.5068359, -0.0932617, -0.7158203, 23.9024391, 91.9512253, -20.4878044, -0.0137636
-0.4936523, -0.0849609, -0.7265625, 25.1219521, 93.4756088, -19.5121956, -0.0048676
-0.4731445, -0.0522461, -0.7333984, 29.4512196, 97.8658524, -18.2317085, 0.0043641
-0.4711914, -0.0366211, -0.7285156, 31.1585369, 101.0975647, -18.0487804, 0.0058747
-0.4731445, -0.0400391, -0.6992188, 33.1707306, 107.0731735, -17.5, 0.0045319
-0.4765625, -0.0498047, -0.6889648, 33.3536606, 108.6585388, -17.1341476, 0.0011749
-0.4946289, -0.0698242, -0.6826172, 31.7073174, 109.8780518, -16.8902435, -0.0125887
-0.5039062, -0.0742188, -0.6870117, 30.7926846, 109.4512253, -16.7073174, -0.0287022
-0.5302734, -0.0585938, -0.7055664, 27.5, 108.5365906, -16.9512196, -0.0330663
-0.5380859, -0.0327148, -0.7177734, 25.9756107, 107.8048782, -16.5243912, -0.0381018
-0.5400391, -0.0239258, -0.7148438, 24.2682934, 105.7317123, -16.4634151, -0.0538796
-0.53125, -0.0058594, -0.7260742, 23.0487804, 104.4512253, -16.3414631, -0.0659648
-0.5244141, -0.0117188, -0.7446289, 22.3780499, 104.2073212, -16.2195129, -0.0807355
-0.5029297, -0.0424805, -0.7910156, 19.939024, 104.5121994, -15.7926836, -0.0914778
-0.4819336, -0.0727539, -0.8041992, 18.2317085, 104.5121994, -15.2439032, -0.0881209
-0.4296875, -0.1518555, -0.7910156, 16.5243912, 103.7195129, -15.1219511, -0.0767071
-0.4047852, -0.1875, -0.7631836, 16.8292694, 103.6585388, -16.0365849, -0.0627756
-0.3774414, -0.2104492, -0.7060547, 19.5121956, 105.7317123, -18.1707325, -0.0458228
-0.3886719, -0.1958008, -0.6904297, 21.2195129, 108.0487823, -19.939024, -0.0330663
-0.4462891, -0.1381836, -0.7001953, 23.3536587, 112.3780518, -23.0487804, -0.012253
-0.5175781, -0.0732422, -0.7602539, 23.5365868, 112.7439041, -24.2073174, -0.0001678
-0.5380859, -0.0551758, -0.7993164, 21.1585369, 110.9756088, -24.9390259, 0.0048676
-0.546875, -0.0546875, -0.8691406, 15.9146347, 106.2804871, -24.4512196, 0.0052033
-0.5229492, -0.0654297, -0.878418, 14.1463413, 104.0853653, -24.3902435, 0.0139315
-0.4511719, -0.1206055, -0.8339844, 13.841464, 100.9146347, -24.2682934, 0.0213169
-0.4130859, -0.1552734, -0.800293, 15.1829271, 101.2804871, -24.2073174, 0.0236667
-0.3637695, -0.1899414, -0.7675781, 20.7317085, 104.8170776, -24.3902435, 0.0186313
-0.3579102, -0.1884766, -0.7851562, 23.780489, 108.2926865, -24.2073174, 0.0159457
-0.3818359, -0.1743164, -0.871582, 27.2560978, 115.0609818, -23.2317085, -0.0203098
-0.3974609, -0.1694336, -0.9101562, 28.1707325, 117.4390259, -22.439024, -0.0696574
-0.4038086, -0.1855469, -0.9140625, 29.9390259, 120.9146347, -19.939024, -0.1176623
-0.3754883, -0.2304688, -0.8481445, 31.0975609, 122.5, -18.4146347, -0.1455253
-0.3671875, -0.2460938, -0.8183594, 33.841465, 127.0121994, -17.1951218, -0.152575
-0.3745117, -0.2260742, -0.8198242, 35.7317085, 132.86586, -18.1707325, -0.1312581
-0.3974609, -0.190918, -0.8378906, 36.4634171, 135, -19.8170738, -0.0906386
-0.4472656, -0.1064453, -0.8427734, 36.8902435, 134.146347, -23.1707325, -0.0411231
-0.4589844, -0.0727539, -0.8149414, 36.4024391, 132.1341553, -23.9024391, 0.0099031
-0.4648438, -0.0322266, -0.7612305, 33.9634171, 127.6219559, -23.780489, 0.0501869
-0.4624023, -0.0249023, -0.7607422, 32.1341476, 126.0975647, -23.2926826, 0.079057
-0.4575195, -0.0361328, -0.8408203, 26.0365868, 123.4146347, -22.1341476, 0.0958419
-0.453125, -0.0512695, -0.8964844, 22.1341476, 120.7317123, -21.8292694, 0.1015488
-0.418457, -0.0913086, -0.9506836, 14.8780489, 114.2073212, -20.7926826, 0.1032273
-0.3398438, -0.1445312, -0.8974609, 12.4390249, 111.0365906, -19.8170738, 0.0978561
-0.2924805, -0.1650391, -0.8476562, 11.1585369, 108.5975647, -19.2682934, 0.0810712
-0.2543945, -0.15625, -0.7866211, 12.560976, 112.1951218, -20.4268303, 0.0676432
-0.2685547, -0.1357422, -0.7836914, 12.9878054, 114.7561035, -22.0731716, 0.0446479
-0.3369141, -0.0805664, -0.8046875, 12.1951218, 115.8536606, -24.1463413, 0.0219883
-0.3745117, -0.0737305, -0.8242188, 10.6707315, 114.2682953, -24.4512196, 0.0090639
-0.4238281, -0.1025391, -0.8735352, 5.7317076, 108.5365906, -23.5975609, 0.002182
-0.4287109, -0.1328125, -0.8945312, 3.1097562, 105.7926865, -22.5, 0.0011749
-0.3964844, -0.203125, -0.9335938, 0, 102.1341476, -20.9146347, -0.0028534
-0.3701172, -0.2333984, -0.9404297, 0.0609756, 101.8292694, -20.6097565, -0.012253
-0.2988281, -0.2744141, -0.9350586, 2.6829269, 103.8414688, -20.3658543, -0.0149386
-0.2373047, -0.28125, -0.8994141, 5, 105.3658524, -20.7926826, -0.024506
-0.2143555, -0.2744141, -0.8808594, 10.1219511, 110.18293, -21.8292694, -0.0404517
-0.21875, -0.2485352, -0.8564453, 15.5487804, 115.4878082, -24.2073174, -0.0793927
-0.2382812, -0.2363281, -0.8447266, 17.8048782, 117.1341476, -25.1219521, -0.1121233
-0.2861328, -0.2368164, -0.8110352, 22.0121956, 116.5853653, -26.4634151, -0.1250477
-0.3100586, -0.2446289, -0.7963867, 24.1463413, 114.7561035, -26.5853672, -0.1238727
-0.3447266, -0.2480469, -0.8413086, 27.4390259, 112.1951218, -27.1951218, -0.1089342
-0.3583984, -0.2426758, -0.9038086, 28.4146347, 111.7682953, -27.2560978, -0.0938277
-0.3505859, -0.2216797, -1.078125, 28.4756107, 111.1585388, -26.9512196, -0.0693217
-0.3349609, -0.2119141, -1.1474609, 27.4390259, 110.7926865, -26.5243912, -0.0438087
-0.2387695, -0.2104492, -1.1728516, 25.4268303, 110.5487823, -25.1829281, -0.0216526
-0.1083984, -0.2050781, -1.050293, 24.7560978, 111.2804871, -24.3902435, -0.0048676
-0.0527344, -0.1894531, -0.9731445, 26.0365868, 117.0121994, -24.9390259, 0.0036927
-0.0351562, -0.128418, -0.8808594, 29.3292694, 127.1951218, -27.9878063, 0.0104067
-0.0737305, -0.0869141, -0.8862305, 29.2073174, 130.9146423, -29.6951218, 0.0099031
-0.1943359, -0.0073242, -0.9868164, 24.9390259, 132.6219482, -31.5243912, 0.0092317
-0.2509766, 0.015625, -1.0537109, 20.4268303, 130.2439117, -30.8536587, 0.0045319
-0.3037109, -0.0117188, -1.1357422, 8.719512, 122.3170776, -27.1951218, -0.0028534
-0.2856445, -0.0693359, -1.1303711, 3.2317073, 117.9878082, -24.7560978, -0.0068818
-0.1918945, -0.2021484, -1.0209961, -3.4756098, 111.0975647, -20.5487804, -0.0082246
-0.1352539, -0.2670898, -0.9414062, -4.2073174, 109.6341476, -19.939024, -0.0112459
-0.0595703, -0.3261719, -0.8422852, -1.2195122, 112.1951218, -21.4634151, -0.012253
-0.0810547, -0.2910156, -0.8701172, 1.097561, 115.5487823, -23.6585369, -0.0092317
-0.1176758, -0.2514648, -0.9101562, 4.6951222, 120.18293, -27.9268303, -0.0166171
-0.1860352, -0.1816406, -0.9638672, 4.6341462, 117.7439041, -30, -0.0223239
-0.1987305, -0.1655273, -0.9648438, 2.804878, 114.5731735, -29.8780499, -0.0370947
-0.1914062, -0.1611328, -0.956543, -2.1341465, 108.4146347, -28.9634151, -0.0585794
-0.1782227, -0.1650391, -0.9555664, -4.0853658, 106.9512253, -28.4146347, -0.064622
-0.1538086, -0.1791992, -0.9589844, -7.3780489, 106.7073212, -28.2317085, -0.063447
-0.1508789, -0.1923828, -0.9511719, -7.7439027, 106.4024429, -28.5975609, -0.0652934
-0.1230469, -0.2143555, -0.9550781, -5.609756, 104.146347, -28.6585369, -0.0616007
-0.1030273, -0.230957, -0.9882812, -3.2926829, 103.5975647, -28.2926826, -0.0622721
-0.0703125, -0.2695312, -1.1279297, 1.6463414, 104.7561035, -27.0121956, -0.0602579
-0.0249023, -0.3544922, -1.222168, 4.3292685, 106.0365906, -26.0365868, -0.0466621
0.0039062, -0.3979492, -1.2055664, 9.0853662, 108.7804871, -22.439024, -0.0330663
0.0888672, -0.4638672, -1.0512695, 16.6463413, 114.146347, -19.8780499, -0.0250095
0.1240234, -0.4716797, -0.956543, 21.7073174, 119.3292694, -20.060976, -0.0290379
0.1088867, -0.4018555, -0.828125, 33.7804871, 133.7195129, -25, -0.0223239
0.0527344, -0.3393555, -0.815918, 39.7560997, 139.4512177, -28.780489, -0.0166171
-0.1020508, -0.1992188, -0.8916016, 47.8048782, 142.2561035, -34.6341476, -0.0095674
-0.1767578, -0.1489258, -0.9594727, 48.6585388, 138.9634247, -35.9146347, -0.002182
-0.2475586, -0.1230469, -1.1083984, 42.4390259, 126.646347, -34.6341476, 0.0045319
-0.2329102, -0.1386719, -1.1547852, 36.4024391, 120.5487823, -32.5, 0.0065461
-0.1313477, -0.1977539, -1.1494141, 24.5121956, 114.3902435, -28.0487804, 0.0045319
0.0180664, -0.2260742, -1.0415039, 20.7317085, 114.3902435, -26.7682934, 0.0031891
0.0864258, -0.2143555, -0.9897461, 19.0853672, 117.5609818, -26.9512196, -0.0129244
0.1660156, -0.175293, -0.9418945, 23.5365868, 121.4024429, -30.6097565, -0.0377661
0.1665039, -0.1625977, -0.9453125, 24.6951218, 122.0731735, -32.6829262, -0.0552224
0.1166992, -0.1503906, -0.9770508, 23.4146347, 122.1341476, -34.1463432, -0.0552224
0.0834961, -0.1567383, -0.9746094, 20.6707325, 121.5243912, -33.2317085, -0.0359197
0.0170898, -0.1713867, -0.9375, 14.3292685, 119.0853653, -29.3902454, 0.0058747
-0.0053711, -0.1767578, -0.9140625, 11.7073174, 117.86586, -27.8048782, 0.0532082
-0.0366211, -0.168457, -0.9243164, 9.0853662, 114.9390259, -26.2195129, 0.0807355
-0.0488281, -0.1523438, -0.9584961, 7.8658538, 113.5975647, -26.3414631, 0.0881209
-0.0444336, -0.1342773, -1.0507812, 3.2926829, 110.3048782, -27.8658543, 0.072343
0.0009766, -0.1464844, -1.1396484, 0.1219512, 108.2926865, -28.4756107, 0.0414588
0.0371094, -0.1694336, -1.1782227, -7.5609756, 105.1219559, -28.841465, 0.0072175
0.1435547, -0.2470703, -1.2519531, -15.1829271, 103.7195129, -27.8048782, -0.0240024
0.2036133, -0.293457, -1.2822266, -17.9268303, 103.8414688, -27.0121956, -0.0574044
0.315918, -0.3754883, -1.2719727, -20.6097565, 105.9146347, -25, -0.085771
0.3657227, -0.3984375, -1.2353516, -19.5121956, 108.5975647, -24.3292694, -0.1022202
0.4282227, -0.40625, -1.0532227, -12.1341467, 117.1341476, -24.2682934, -0.1161517
0.4311523, -0.3813477, -0.9555664, -6.5853658, 123.8414688, -25.5487804, -0.1418326
0.3476562, -0.2895508, -0.8066406, 5.609756, 137.3170776, -30.8536587, -0.152575
0.2548828, -0.2382812, -0.7705078, 10.5487804, 142.4390259, -34.0243912, -0.1354543
0.027832, -0.1767578, -0.8266602, 15.2439032, 144.5731812, -38.1707344, -0.1045701
-0.1645508, -0.2016602, -0.9941406, 15.060976, 140.4268341, -38.2317085, -0.0679789
-0.2041016, -0.2456055, -1.0703125, 10.7926836, 122.9878082, -35.1219521, -0.0337377
-0.152832, -0.3735352, -1.1494141, 6.1585369, 103.8414688, -30.1829281, -0.0005035
-0.0766602, -0.4423828, -1.1474609, 6.0975609, 97.7439041, -28.2926826, 0.0323949
0.1235352, -0.5351562, -1.0917969, 12.0731707, 98.1097565, -25.8536587, 0.0565652
0.2231445, -0.5405273, -1.0649414, 18.2926826, 104.9390259, -25.9146347, 0.0666361
0.3701172, -0.4638672, -1.0917969, 32.1951218, 124.6951218, -27.6829281, 0.0696574
0.40625, -0.3916016, -1.1469727, 37.8048782, 133.1097565, -29.5121956, 0.0663005
0.4204102, -0.2285156, -1.2553711, 41.8292694, 141.5853729, -33.1097565, 0.0585794
0.4150391, -0.1586914, -1.2641602, 39.8170738, 141.5853729, -34.2682953, 0.0515297
0.4023438, -0.0878906, -1.1762695, 30.8536587, 137.9268341, -34.8170738, 0.0454871
0.3720703, -0.0830078, -1.0405273, 25.3048782, 136.8292694, -34.9390259, 0.0347448
0.3320312, -0.0947266, -0.9995117, 16.280489, 137.1951294, -34.3292694, 0.0260166
0.2084961, -0.140625, -1.0097656, 10.6707315, 136.1585388, -32.2560997, 0.0203098
0.1489258, -0.1484375, -1.0415039, 9.1463413, 133.9024353, -30.4268303, 0.0152743
0.0961914, -0.1733398, -1.0830078, 6.8292685, 125.7317123, -26.5243912, 0.0048676
0.1010742, -0.1835938, -1.0810547, 5.8536587, 121.8292694, -24.6951218, -0.0052033
0.1469727, -0.2246094, -1.0136719, 4.390244, 117.7439041, -22.560976, -0.0068818
0.1821289, -0.246582, -0.9667969, 4.2682929, 117.3780518, -22.6219521, -0.0229953
0.2353516, -0.2783203, -0.8808594, 3.7804878, 117.9878082, -24.2073174, -0.0417945
0.2475586, -0.2880859, -0.8632812, 3.8414636, 117.3170776, -25.9146347, -0.0498512
0.2426758, -0.2856445, -0.9277344, 3.1097562, 113.4146347, -29.2073174, -0.0575723
0.2285156, -0.2817383, -1.0966797, 2.195122, 110.6097565, -30.1829281, -0.0585794
0.230957, -0.2875977, -1.1850586, -0.7317073, 103.9634171, -29.8170738, -0.0508583
0.2978516, -0.3413086, -1.2797852, -3.6585367, 97.8658524, -26.6463413, -0.0407874
0.3554688, -0.3818359, -1.2739258, -4.3292685, 96.4634171, -24.8170738, -0.0370947
0.4921875, -0.4575195, -1.1772461, -2.5609756, 100.3048782, -22.7439022, -0.030045
0.5454102, -0.4726562, -1.1103516, 0.6707317, 105.5487823, -23.1707325, -0.0256809
0.5732422, -0.4384766, -1.0004883, 10.4268293, 121.2804871, -27.1951218, -0.0229953
0.5449219, -0.3876953, -0.9853516, 15.7926836, 128.4756165, -30.1219521, -0.0229953
0.4140625, -0.2539062, -1.0742188, 22.560976, 136.7073212, -35.9146347, -0.0209812
0.3300781, -0.1987305, -1.1484375, 23.0487804, 137.1951294, -37.2560997, -0.0203098
0.2104492, -0.1533203, -1.2421875, 17.0731716, 132.6219482, -36.2195129, -0.0253452
0.1972656, -0.2075195, -1.1733398, 8.1097565, 124.9390259, -32.6219521, -0.0283665
0.2231445, -0.25, -1.0917969, 4.5731707, 122.5, -30.8536587, -0.0290379
0.293457, -0.3325195, -0.9614258, 4.2682929, 122.3170776, -29.4512196, -0.0287022
0.3178711, -0.3632812, -0.9379883, 6.9512196, 124.0853653, -30.3658543, -0.0310521
0.3251953, -0.4169922, -0.980957, 14.0243902, 125.8536606, -31.5853672, -0.0313878
0.3198242, -0.4370117, -1.0131836, 17.560976, 124.6951218, -31.6463413, -0.0354162
0.3276367, -0.4702148, -1.0444336, 23.5975609, 121.1585388, -30.1829281, -0.0360876
0.3461914, -0.4697266, -1.046875, 25.7926826, 120.7926865, -29.2073174, -0.0404517
0.387207, -0.4370117, -1.0239258, 30.060976, 122.8048782, -28.2926826, -0.0532082
0.4013672, -0.4008789, -1.0039062, 32.0121956, 125.2439041, -29.0243912, -0.0688182
0.4003906, -0.300293, -0.953125, 35, 130.1829224, -31.7073174, -0.0827497
0.3735352, -0.1674805, -0.9555664, 34.2682953, 132.5609741, -34.6341476, -0.0864424
0.3588867, -0.1040039, -1.0053711, 31.7682934, 132.3170776, -36.0975609, -0.0854353
0.328125, -0.0297852, -1.1806641, 21.9512196, 128.5365906, -36.8292694, -0.0864424
0.324707, -0.0273438, -1.2539062, 14.4512196, 126.1585388, -35.7317085, -0.0787213
0.3911133, -0.0898438, -1.2587891, -1.0365853, 119.8780518, -32.0121956, -0.064622
0.4487305, -0.1386719, -1.1835938, -7.2560978, 117.3780518, -29.8170738, -0.0498512
0.5629883, -0.2661133, -0.9643555, -14.3902445, 116.9512253, -27.7439022, -0.0283665
0.59375, -0.3222656, -0.8730469, -15.1219511, 118.9634171, -27.6219521, -0.0137636
0.5585938, -0.387207, -0.7861328, -11.280488, 124.8780518, -30.3048782, 0.0008392
0.4306641, -0.3886719, -0.8291016, -7.6829271, 126.4024429, -32.0121956, 0.0166171
0.359375, -0.371582, -0.8896484, -0.6097561, 124.146347, -33.9024391, 0.0251774
0.2709961, -0.3286133, -1.0087891, 3.7195122, 117.2561035, -32.3780479, 0.0305486
0.2607422, -0.3115234, -1.0512695, 4.7560978, 113.5975647, -30.9146347, 0.0265202
0.3178711, -0.3115234, -1.1015625, 3.5365853, 110.9146347, -27.8658543, 0.0045319
0.3647461, -0.3208008, -1.1035156, 2.3780489, 111.0365906, -26.5243912, -0.0209812
0.4790039, -0.3481445, -1.0717773, 0.4878049, 113.7195129, -26.0365868, -0.0441444
0.5327148, -0.3652344, -1.0634766, 0.6707317, 115.7926865, -26.7682934, -0.0622721
0.6088867, -0.3930664, -1.090332, 2.4390244, 119.146347, -27.9878063, -0.0673075
0.6303711, -0.40625, -1.1230469, 3.4756098, 120.8536606, -28.2317085, -0.0632792
0.6694336, -0.4223633, -1.1962891, 6.280488, 123.0487823, -27.0731716, -0.0471656
0.7114258, -0.4262695, -1.2041016, 7.5, 124.2073212, -25.9756107, -0.0283665
0.7294922, -0.4262695, -1.1665039, 9.3902445, 127.68293, -24.1463413, -0.0236667
0.7514648, -0.4091797, -1.0185547, 12.7439032, 134.8780518, -24.5121956, -0.0364233
0.7421875, -0.3828125, -0.9228516, 15.5487804, 139.4512177, -25.7926826, -0.0337377
0.65625, -0.2919922, -0.7753906, 21.8292694, 146.9512177, -29.6341476, -0.0426337
0.5859375, -0.230957, -0.7358398, 24.3292694, 147.8048859, -31.6463413, -0.0438087
0.4194336, -0.1293945, -0.7402344, 26.7682934, 142.8048859, -35.4878044, -0.0404517
0.3422852, -0.0991211, -0.7714844, 25.1829281, 137.6219482, -35.9756088, -0.0344091
0.2338867, -0.0976562, -0.8647461, 16.4024391, 124.7561035, -32.9268303, -0.0209812
0.2192383, -0.1293945, -0.902832, 10.5487804, 118.0487823, -30.4268303, -0.002182
0.2763672, -0.2299805, -0.925293, 0.6097561, 107.5609818, -24.6341476, 0.0193027
0.4213867, -0.3496094, -0.8911133, -2.7439024, 103.4756088, -22.1951218, 0.0250095
0.496582, -0.3862305, -0.8730469, -3.2926829, 100, -20.2439022, 0.033402
0.6303711, -0.4213867, -0.8686523, 2.1341465, 101.5243912, -20.7926826, 0.0411231
0.6762695, -0.4130859, -0.8896484, 5.7926831, 103.5365906, -21.7682934, 0.0424659
0.734375, -0.359375, -0.9770508, 12.1951218, 107.5609818, -24.0243912, 0.0347448
0.7460938, -0.331543, -1.0258789, 13.5365858, 108.5365906, -25.1829281, 0.0193027
0.7631836, -0.3110352, -1.0844727, 11.7682934, 109.3902435, -26.280489, -0.0068818
0.7729492, -0.3237305, -1.090332, 9.3292685, 109.5121994, -26.3414631, -0.023331
0.7851562, -0.3505859, -1.0844727, 3.4146342, 111.8292694, -25.6707325, -0.0384375
0.7773438, -0.3623047, -1.0844727, 1.7682927, 113.9024429, -25.4268303, -0.0446479
0.7553711, -0.3408203, -1.1030273, 0.6097561, 120.2439041, -24.8170738, -0.0412909
0.7163086, -0.2641602, -1.1381836, 1.4634147, 123.6585388, -24.2682934, -0.0344091
0.7001953, -0.2255859, -1.1499023, 3.7804878, 129.0853729, -23.1707325, -0.0303807
0.6977539, -0.1743164, -1.1245117, 2.6219513, 132.1341553, -22.1951218, -0.0283665
0.703125, -0.1704102, -1.0908203, 0.1829268, 132.6219482, -21.6463413, -0.0370947
0.7075195, -0.2148438, -0.9912109, -6.0975609, 133.1707306, -21.4024391, -0.0605936
