Application:, Trigno Discover (1.6.5)
Date/Time:, 18/02/2025 16:47:02
Collection Length (seconds):, 38.9205
wrist (81457), , , , , , bicep (81139)
sensor mode: 609, , , , , , sensor mode: 40
ACC X (G), ACC Y (G), ACC Z (G), GYRO X (deg/s), GYRO Y (deg/s), GYRO Z (deg/s), EMG 1 (mV)
370.3704 Hz, 370.3704 Hz, 370.3704 Hz, 370.3704 Hz, 370.3704 Hz, 370.3704 Hz, 2148.1481 Hz
-0.6630859, 0.7431641, -0.3154297, -11.8292685, -11.8292685, 0.6707317, -0.0787213
-0.6538086, 0.7426758, -0.2958984, -11.9512196, -12.6219511, 0.6097561, -0.0914778
-0.6513672, 0.7431641, -0.2880859, -11.7073174, -12.8048782, 0.3658537, -0.1018845
-0.6425781, 0.734375, -0.2817383, -10.9146347, -13.1707315, 0.4878049, -0.1003738
-0.6352539, 0.7348633, -0.2817383, -10.6707315, -12.560976, 0.1829268, -0.0938277
-0.6235352, 0.7294922, -0.2832031, -10.060976, -11.6463413, 0.4268293, -0.0887922
-0.6240234, 0.7294922, -0.2841797, -10.060976, -11.4634151, 0.5487805, -0.0856031
-0.6137695, 0.7314453, -0.2880859, -10.3658543, -11.0365858, 0.7317073, -0.0814069
-0.6098633, 0.7392578, -0.2900391, -10.4268293, -11.0365858, 0.7926829, -0.0699931
-0.6083984, 0.7431641, -0.293457, -10.6097565, -10.4878054, 0.2439024, -0.061265
-0.6132812, 0.7431641, -0.2954102, -10.7317076, -9.7560978, -0.1219512, -0.0592508
-0.6152344, 0.7431641, -0.3081055, -10.7926836, -9.0243902, -0.2439024, -0.0557259
-0.612793, 0.7416992, -0.3154297, -11.1585369, -8.9024391, -0.1829268, -0.0525368
-0.6118164, 0.7441406, -0.3144531, -11.8292685, -9.2073174, -0.5487805, -0.04448
-0.6206055, 0.7368164, -0.3032227, -12.5, -9.0853662, -1.402439, -0.036759
-0.6230469, 0.7338867, -0.2973633, -12.9878054, -8.719512, -1.6463414, -0.023331
-0.6357422, 0.7324219, -0.3061523, -12.9268293, -8.4146347, -1.7073171, -0.005539
-0.6376953, 0.7329102, -0.3105469, -12.0731707, -8.4146347, -1.2804878, 0.0038605
-0.6494141, 0.7290039, -0.3261719, -12.1951218, -8.1097565, -1.097561, 0.0052033
-0.6552734, 0.7260742, -0.3212891, -12.4390249, -8.2926826, -1.1585366, 0.0011749
-0.6679688, 0.7270508, -0.3046875, -12.9878054, -8.0487804, -2.0121951, -0.0058747
-0.6757812, 0.7260742, -0.3012695, -13.2317076, -8.3536587, -1.5853659, -0.0099031
-0.6679688, 0.7382812, -0.309082, -11.6463413, -9.2073174, -0.0609756, -0.0132601
-0.6391602, 0.7460938, -0.3266602, -10.4268293, -10.4268293, 0.7317073, -0.0135958
-0.621582, 0.7446289, -0.3310547, -10.6097565, -11.0365858, 0.8536586, -0.0082246
-0.6069336, 0.737793, -0.3349609, -12.3170738, -9.9390249, -0.3658537, -0.0005035
-0.6069336, 0.7402344, -0.3291016, -13.1707315, -9.0243902, -0.9146342, 0.0005035
-0.6264648, 0.7358398, -0.3208008, -13.6585369, -7.8048782, -1.1585366, 0.0043641
-0.6347656, 0.734375, -0.3222656, -13.4146347, -7.5, -0.9756098, 0.0060426
-0.6533203, 0.7416992, -0.3295898, -12.4390249, -7.9268293, -0.1829268, 0.0065461
-0.6582031, 0.7436523, -0.3349609, -12.4390249, -8.2926826, 0.0609756, 0.0105745
-0.6645508, 0.7539062, -0.3364258, -12.0121956, -9.5121956, 0.0609756, 0.0115816
-0.6679688, 0.7553711, -0.3339844, -12.2560978, -9.7560978, 0.2439024, 0.0065461
-0.6694336, 0.7456055, -0.3374023, -12.2560978, -10.4878054, 0.5487805, 0.0031891
-0.6660156, 0.7314453, -0.3305664, -12.2560978, -10.5487804, 0.4878049, -0.0028534
-0.668457, 0.7202148, -0.3266602, -12.4390249, -10.6097565, 0.6707317, -0.0068818
-0.6635742, 0.7158203, -0.3027344, -12.0731707, -10.4268293, 0.6097561, -0.0095674
-0.6635742, 0.7143555, -0.2954102, -11.6463413, -10.3658543, 0.9756098, -0.0095674
-0.6499023, 0.7319336, -0.2924805, -10.3048782, -11.8292685, 1.6463414, -0.0082246
-0.628418, 0.7402344, -0.2973633, -9.5731707, -12.5, 1.9512196, -0.0105745
-0.5932617, 0.7490234, -0.3081055, -9.0853662, -12.8048782, 2.0731707, -0.0099031
-0.5839844, 0.7514648, -0.3164062, -9.8780489, -12.2560978, 1.402439, -0.0082246
-0.5844727, 0.7475586, -0.3129883, -12.0121956, -10, 0.2439024, -0.008896
-0.5917969, 0.7412109, -0.3115234, -12.8658543, -9.1463413, -0.4268293, -0.0095674
-0.6113281, 0.7387695, -0.3134766, -13.5365858, -7.8048782, -0.6707317, -0.0075532
-0.6347656, 0.7470703, -0.3203125, -13.4756098, -8.1097565, -0.9146342, -0.0048676
-0.6376953, 0.7548828, -0.3198242, -13.4146347, -8.6585369, -0.6707317, 0.005539
-0.6445312, 0.7568359, -0.3164062, -13.4146347, -9.3292685, -0.7317073, 0.0119173
-0.6425781, 0.7504883, -0.3168945, -13.7195129, -9.4512196, -0.9756098, 0.0149386
-0.6425781, 0.7402344, -0.3208008, -13.5975609, -9.3292685, -1.097561, 0.01561
-0.6420898, 0.7280273, -0.3198242, -13.5975609, -9.2073174, -0.7926829, 0.0151064
-0.6430664, 0.7133789, -0.3173828, -13.2926836, -8.9634151, -0.5487805, 0.0078889
-0.6464844, 0.7114258, -0.3105469, -13.0487804, -9.0853662, -0.7317073, -0.0038605
-0.6518555, 0.7197266, -0.3051758, -13.0487804, -9.0243902, -0.6707317, -0.0035248
-0.6464844, 0.7260742, -0.3041992, -12.6219511, -9.6341467, -0.4878049, 0.0223239
-0.6396484, 0.7270508, -0.3066406, -11.8292685, -10.4268293, 0.6097561, 0.0313878
-0.6240234, 0.7197266, -0.3154297, -11.7073174, -10.4878054, 0.8536586, 0.0146029
-0.6259766, 0.7114258, -0.3188477, -11.9512196, -9.8780489, 0.6097561, -0.0082246
-0.6376953, 0.7114258, -0.3193359, -11.7682934, -8.4756098, 0.4268293, -0.0313878
-0.6459961, 0.7182617, -0.3168945, -12.0731707, -8.719512, 0.7317073, -0.047837
-0.6533203, 0.7319336, -0.3208008, -11.341464, -9.6341467, 1.402439, -0.0585794
-0.6577148, 0.7373047, -0.3188477, -11.4634151, -10.1829271, 1.8902439, -0.0626078
-0.659668, 0.7392578, -0.3232422, -11.0365858, -10.7926836, 2.3780489, -0.0656291
-0.6611328, 0.7314453, -0.3222656, -11.0975609, -10.9146347, 2.3780489, -0.068986
-0.6645508, 0.7172852, -0.315918, -11.6463413, -10.9756098, 2.804878, -0.0775463
-0.6606445, 0.7109375, -0.3081055, -11.4024391, -10.7317076, 2.6829269, -0.082414
-0.6611328, 0.7099609, -0.3144531, -10.5487804, -11.0975609, 3.3536587, -0.0817426
-0.6523438, 0.7255859, -0.3168945, -9.4512196, -11.7073174, 3.9634147, -0.068986
-0.6484375, 0.7368164, -0.3178711, -8.9634151, -12.0731707, 3.9634147, -0.0438087
-0.6303711, 0.7529297, -0.3105469, -9.4512196, -13.0487804, 3.7804878, -0.0236667
-0.621582, 0.7587891, -0.3066406, -9.6951218, -12.8658543, 3.5365853, -0.0196384
-0.5981445, 0.7529297, -0.2905273, -10, -12.6219511, 3.3536587, -0.0218204
-0.5839844, 0.7480469, -0.2890625, -10, -12.1951218, 2.9268293, -0.0260166
-0.5678711, 0.7451172, -0.2983398, -9.9390249, -11.5243902, 2.804878, -0.0305486
-0.5634766, 0.7363281, -0.3061523, -10.2439022, -10.7926836, 2.3780489, -0.0263523
-0.5800781, 0.7373047, -0.3061523, -11.7073174, -9.2073174, 1.0365853, -0.0229953
-0.6074219, 0.7436523, -0.3027344, -12.560976, -8.2317076, 0.6097561, -0.0273594
-0.6210938, 0.7460938, -0.296875, -13.780488, -7.3780489, 0.4878049, -0.0337377
-0.6293945, 0.7382812, -0.2924805, -14.6341467, -7.9878049, 0.1829268, -0.0339055
-0.6313477, 0.7348633, -0.2949219, -14.6341467, -7.9878049, -0.1219512, -0.0219883
-0.6357422, 0.7358398, -0.2978516, -13.9634151, -7.6219516, -0.1829268, -0.0203098
-0.6323242, 0.7387695, -0.2993164, -13.5365858, -7.6219516, -0.2439024, -0.0256809
-0.6220703, 0.7495117, -0.3144531, -13.2317076, -7.1951222, 0.7317073, -0.030045
-0.6186523, 0.7436523, -0.324707, -13.780488, -7.2560978, 0.7926829, -0.0297093
-0.6206055, 0.734375, -0.3334961, -14.9390249, -6.2195125, 0.2439024, -0.018967
-0.628418, 0.7250977, -0.3393555, -15.3658543, -5.609756, -0.0609756, -0.012253
-0.6625977, 0.7080078, -0.3452148, -15.3658543, -5.5487804, 0.2439024, -0.0246738
-0.6850586, 0.703125, -0.3457031, -15.2439032, -6.4024391, 0.6097561, -0.0337377
-0.6933594, 0.6977539, -0.3393555, -14.9390249, -7.5, 0.9756098, -0.0365911
-0.7001953, 0.6943359, -0.3154297, -14.9390249, -8.4756098, 1.1585366, -0.0083925
-0.7041016, 0.6962891, -0.3056641, -14.8780489, -8.841464, 1.402439, 0.0347448
-0.6923828, 0.7119141, -0.2944336, -12.4390249, -10.4268293, 3.1097562, 0.047837
-0.6743164, 0.7226562, -0.300293, -11.1585369, -11.219512, 4.0243902, 0.0223239
-0.6416016, 0.7329102, -0.3217773, -9.8170738, -12.1951218, 5.1829271, -0.0270237
-0.6293945, 0.7333984, -0.331543, -10.3658543, -11.8902445, 5.1219511, -0.0770428
-0.6274414, 0.7290039, -0.3427734, -12.2560978, -9.9390249, 4.3292685, -0.1082628
-0.640625, 0.7333984, -0.3374023, -12.8658543, -9.0243902, 4.0853658, -0.1232013
-0.6552734, 0.7397461, -0.3134766, -13.9634151, -8.780488, 3.6585367, -0.1216907
-0.6606445, 0.7504883, -0.2929688, -13.6585369, -9.0853662, 3.3536587, -0.1171588
-0.6586914, 0.7529297, -0.2910156, -13.2926836, -10.6097565, 3.6585367, -0.1116197
-0.6445312, 0.75, -0.2871094, -12.560976, -11.8902445, 4.3292685, -0.1096056
-0.6274414, 0.7416992, -0.2910156, -12.6219511, -12.0121956, 4.2682929, -0.1042344
-0.612793, 0.7304688, -0.2910156, -12.560976, -11.0365858, 4.0243902, -0.096849
-0.6079102, 0.7250977, -0.2919922, -12.9268293, -10.3658543, 3.5975611, -0.0971847
-0.6191406, 0.7270508, -0.2875977, -13.2317076, -9.1463413, 3.3536587, -0.1050736
-0.6196289, 0.734375, -0.2885742, -12.8048782, -8.9024391, 3.1707318, -0.1089342
-0.6245117, 0.7524414, -0.3017578, -12.2560978, -9.3292685, 3.4756098, -0.1119554
-0.628418, 0.7646484, -0.3056641, -11.9512196, -9.5731707, 3.4146342, -0.1010452
-0.6259766, 0.7636719, -0.3110352, -12.5, -9.7560978, 3.0487804, -0.0854353
-0.6240234, 0.7573242, -0.3149414, -13.1707315, -9.3292685, 2.7439024, -0.0641184
-0.6245117, 0.7519531, -0.309082, -14.6341467, -8.0487804, 1.9512196, -0.0451514
-0.6303711, 0.746582, -0.3105469, -15.2439032, -7.0121951, 1.9512196, -0.0287022
-0.6376953, 0.746582, -0.3076172, -15.3658543, -6.8292685, 2.1341465, -0.0162814
-0.6450195, 0.7416992, -0.3027344, -15.4878054, -7.0731707, 1.7682927, -0.0041962
-0.6494141, 0.7402344, -0.3012695, -15.2439032, -7.2560978, 1.6463414, -0.0020142
-0.6479492, 0.7294922, -0.3081055, -15.3048782, -7.0731707, 1.9512196, 0.0063783
-0.6503906, 0.7172852, -0.3115234, -15.1829271, -6.7073174, 1.8292683, 0.0166171
-0.6499023, 0.7172852, -0.3144531, -14.6951227, -6.890244, 2.5, 0.0209812
-0.6435547, 0.7197266, -0.3115234, -14.6341467, -7.2560978, 2.9268293, 0.0213169
-0.6337891, 0.7246094, -0.3076172, -14.0853662, -8.5365858, 2.7439024, 0.0240024
-0.6289062, 0.7275391, -0.3061523, -14.1463413, -8.6585369, 2.804878, 0.0253452
-0.6323242, 0.7314453, -0.3041992, -14.0243902, -8.2317076, 2.4390244, 0.0256809
-0.6401367, 0.7397461, -0.3120117, -14.3292685, -7.0121951, 2.8658538, 0.026688
-0.6464844, 0.7402344, -0.3134766, -14.5731707, -6.5853658, 2.8658538, 0.0273594
-0.6674805, 0.7441406, -0.3154297, -15.3658543, -5.9756098, 2.9268293, 0.0298772
-0.6796875, 0.7412109, -0.3125, -15.3658543, -6.0365853, 3.1097562, 0.0310521
-0.6870117, 0.7280273, -0.3046875, -15.6097565, -6.4634147, 3.4756098, 0.030045
-0.6894531, 0.7231445, -0.2993164, -15.3658543, -6.6463418, 3.7195122, 0.0263523
-0.6826172, 0.7211914, -0.2905273, -14.1463413, -7.5, 4.390244, 0.0146029
-0.6713867, 0.7246094, -0.2919922, -13.4146347, -7.9268293, 4.6341462, -0.0005035
-0.6445312, 0.7358398, -0.3037109, -12.4390249, -9.0853662, 5.609756, -0.0157778
-0.6108398, 0.7436523, -0.3120117, -12.1951218, -9.0243902, 5.8536587, -0.0216526
-0.5981445, 0.7451172, -0.3095703, -12.8048782, -8.5975609, 5.3658538, -0.0223239
-0.5932617, 0.7460938, -0.2998047, -14.0243902, -7.7439027, 4.5121951, -0.0182956
-0.6000977, 0.7392578, -0.2929688, -14.6341467, -7.1341467, 4.0853658, -0.0115816
-0.612793, 0.7226562, -0.2705078, -15.7926836, -6.0365853, 2.6829269, -0.005539
-0.625, 0.7119141, -0.2626953, -15.6097565, -5.2439027, 2.5609756, -0.0041962
-0.6435547, 0.7089844, -0.2563477, -14.3902445, -4.5731707, 2.9878049, -0.0062104
-0.6445312, 0.7104492, -0.262207, -13.4756098, -4.8780489, 3.2317073, -0.0112459
-0.6401367, 0.730957, -0.2788086, -11.8292685, -5.7926831, 4.0853658, -0.0129244
-0.6293945, 0.7358398, -0.2866211, -11.5853662, -5.9756098, 4.6341462, -0.0151064
-0.6083984, 0.7436523, -0.2958984, -12.2560978, -5.9146342, 4.1463413, -0.0229953
-0.6049805, 0.7382812, -0.2924805, -13.2317076, -5.0609756, 3.1097562, -0.0293736
-0.6118164, 0.7260742, -0.2949219, -13.7195129, -4.390244, 2.9268293, -0.0283665
-0.6264648, 0.7275391, -0.2958984, -13.780488, -2.9878049, 2.9268293, -0.018967
-0.628418, 0.7260742, -0.3061523, -13.4756098, -2.9268293, 2.9268293, -0.002182
-0.6362305, 0.7387695, -0.3115234, -13.1707315, -3.0487804, 2.6829269, 0.0152743
-0.6386719, 0.7456055, -0.3066406, -13.4146347, -3.3536587, 2.6829269, 0.0229953
-0.6416016, 0.7451172, -0.2983398, -14.2682934, -3.5975611, 2.7439024, 0.0313878
-0.644043, 0.7373047, -0.2900391, -13.9024391, -3.5365853, 2.7439024, 0.0411231
-0.6337891, 0.7211914, -0.2929688, -13.7195129, -2.9878049, 3.2926829, 0.0431373
-0.6235352, 0.7124023, -0.296875, -13.6585369, -2.8658538, 3.3536587, 0.0407874
-0.6186523, 0.7041016, -0.3022461, -14.0853662, -1.8292683, 2.9268293, 0.0344091
-0.6298828, 0.7050781, -0.3110352, -14.3292685, -0.7926829, 2.6219513, 0.0280308
-0.6328125, 0.7138672, -0.3105469, -14.1463413, -0.8536586, 2.8658538, 0.0199741
-0.6425781, 0.7285156, -0.3227539, -13.2926836, -1.7073171, 3.5365853, 0.0105745
-0.637207, 0.734375, -0.3325195, -13.0487804, -2.0731707, 3.5365853, 0.0018463
-0.6342773, 0.7402344, -0.3432617, -13.5365858, -3.0487804, 3.5365853, -0.0085603
-0.6347656, 0.7421875, -0.3393555, -14.0243902, -3.1097562, 3.2317073, -0.018967
-0.6391602, 0.7373047, -0.3266602, -14.5731707, -2.7439024, 3.0487804, -0.0303807
-0.6494141, 0.7338867, -0.3154297, -14.6951227, -2.5, 2.6829269, -0.0327306
-0.6523438, 0.7324219, -0.296875, -14.0853662, -2.9268293, 2.8658538, -0.0386053
-0.6523438, 0.7304688, -0.284668, -13.4146347, -3.2317073, 3.1097562, -0.0451514
-0.6518555, 0.7280273, -0.2929688, -11.9512196, -4.0243902, 3.5365853, -0.0488441
-0.6445312, 0.7270508, -0.3051758, -10.7926836, -4.390244, 4.3292685, -0.0552224
-0.6401367, 0.7246094, -0.3071289, -10.4878054, -4.2073174, 4.3292685, -0.0592508
-0.637207, 0.7211914, -0.3037109, -10.1829271, -4.0243902, 4.4512196, -0.0626078
-0.637207, 0.71875, -0.2993164, -10.060976, -4.3292685, 4.2682929, -0.0572366
-0.6337891, 0.7197266, -0.2910156, -10, -4.2682929, 4.1463413, -0.0572366
-0.6298828, 0.7148438, -0.2885742, -9.5731707, -4.2682929, 4.2073174, -0.0528725
-0.6313477, 0.7216797, -0.2924805, -9.2682924, -4.0853658, 4.4512196, -0.0520333
-0.6298828, 0.7241211, -0.2924805, -8.6585369, -4.0853658, 4.6341462, -0.0498512
-0.6337891, 0.7304688, -0.3051758, -7.9268293, -4.2682929, 4.4512196, -0.0498512
-0.6279297, 0.7338867, -0.3110352, -7.8658538, -4.0243902, 4.3292685, -0.054551
-0.6298828, 0.7368164, -0.3212891, -7.6219516, -4.2682929, 4.5121951, -0.0555581
-0.6337891, 0.7407227, -0.3364258, -7.6829271, -3.8414636, 4.2682929, -0.0632792
-0.6333008, 0.7368164, -0.3364258, -8.0487804, -4.1463413, 4.2073174, -0.0720073
-0.6381836, 0.7290039, -0.3408203, -9.6341467, -3.9024391, 3.5365853, -0.0686503
-0.6425781, 0.7211914, -0.3359375, -9.8170738, -3.5975611, 3.2317073, -0.051194
-0.6572266, 0.7226562, -0.3242188, -10.2439022, -3.6585367, 3.5365853, -0.0276951
-0.659668, 0.722168, -0.3208008, -9.6951218, -3.8414636, 4.0853658, -0.0119173
-0.6479492, 0.7202148, -0.3105469, -9.1463413, -4.6341462, 4.5731707, -0.0031891
-0.6469727, 0.7177734, -0.3125, -8.9024391, -4.8780489, 4.4512196, 0.0011749
-0.6376953, 0.7197266, -0.3100586, -8.780488, -4.2682929, 4.2073174, -0.0001678
-0.6333008, 0.7265625, -0.309082, -8.841464, -3.7804878, 4.2073174, -0.0041962
-0.6254883, 0.7431641, -0.3115234, -8.1097565, -3.1707318, 4.6951222, -0.002182
-0.6083984, 0.7480469, -0.3325195, -7.8658538, -2.8658538, 5.1829271, 0.0010071
-0.6079102, 0.7485352, -0.3413086, -7.8048782, -2.5, 5.609756, 0.0025177
-0.6103516, 0.7368164, -0.3569336, -9.2073174, -1.2195122, 5, 0.0018463
-0.621582, 0.734375, -0.355957, -9.6341467, -1.3414634, 4.4512196, 0.0035248
-0.6479492, 0.7177734, -0.3481445, -10.4268293, -1.2804878, 3.9634147, 0.0023499
-0.659668, 0.7084961, -0.3442383, -10.4268293, -1.5243902, 4.1463413, 0.0005035
-0.6738281, 0.7045898, -0.3339844, -9.3292685, -2.5, 4.2682929, 0.002182
-0.6748047, 0.7109375, -0.331543, -8.2926826, -3.2926829, 4.5121951, -0.0062104
-0.6713867, 0.7241211, -0.3232422, -6.6463418, -4.7560978, 5.2439027, -0.011078
-0.6606445, 0.7246094, -0.3237305, -6.3414636, -5.1219511, 5.4878049, -0.0129244
-0.6347656, 0.7211914, -0.3305664, -5.609756, -5.7926831, 6.5243902, -0.0146029
-0.6157227, 0.7089844, -0.3378906, -5.8536587, -5.7926831, 6.8292685, -0.0129244
-0.605957, 0.6987305, -0.3413086, -6.0365853, -5.2439027, 6.6463418, -0.012253
-0.6054688, 0.6904297, -0.3486328, -5.9756098, -4.6341462, 6.3414636, -0.0082246
-0.6118164, 0.6943359, -0.3461914, -6.0365853, -4.7560978, 6.0365853, -0.0041962
-0.6210938, 0.7094727, -0.3496094, -5.7317076, -5.5487804, 6.2195125, 0.0008392
-0.6259766, 0.7163086, -0.355957, -5.3048782, -6.0975609, 6.0975609, -0.0078889
-0.6279297, 0.7353516, -0.3613281, -5, -6.890244, 6.4024391, -0.0162814
-0.6308594, 0.7436523, -0.3637695, -5, -7.5, 6.1585369, -0.0246738
-0.6274414, 0.75, -0.3540039, -5.7317076, -7.9268293, 5.7317076, -0.0315557
-0.6269531, 0.75, -0.3540039, -6.280488, -7.8658538, 5.609756, -0.0344091
-0.6210938, 0.7363281, -0.3525391, -6.4634147, -7.3780489, 5.0609756, -0.0372625
-0.6196289, 0.7192383, -0.3505859, -6.4634147, -7.1341467, 4.9390244, -0.0357519
-0.6166992, 0.7177734, -0.3540039, -6.5243902, -6.9512196, 4.8170733, -0.0283665
-0.6123047, 0.7109375, -0.3505859, -6.7073174, -7.3170733, 4.5731707, 0.0129244
-0.6079102, 0.7094727, -0.3569336, -6.280488, -7.6219516, 4.5121951, 0.0881209
-0.6015625, 0.7167969, -0.3686523, -5.670732, -7.6829271, 4.4512196, 0.128069
-0.5986328, 0.7285156, -0.3671875, -5.2439027, -7.8658538, 4.0853658, 0.1099413
-0.5922852, 0.7412109, -0.3647461, -4.5731707, -8.5975609, 3.9024391, 0.0627756
-0.5957031, 0.7441406, -0.3662109, -4.6341462, -9.0243902, 3.2317073, 0.0058747
-0.6015625, 0.7436523, -0.3398438, -4.9390244, -8.5975609, 2.1341465, -0.0384375
-0.6088867, 0.734375, -0.3164062, -4.6951222, -8.2317076, 1.6463414, -0.0602579
-0.6132812, 0.7260742, -0.3076172, -4.0243902, -7.8658538, 1.402439, -0.0632792
-0.6186523, 0.7177734, -0.3061523, -2.7439024, -6.6463418, 1.5243902, -0.0656291
-0.6254883, 0.706543, -0.3120117, -1.8902439, -6.0975609, 1.4634147, -0.0636149
-0.6362305, 0.6972656, -0.3320312, -0.2439024, -5.2439027, 2.6219513, -0.0621042
-0.6386719, 0.6943359, -0.3369141, 0.3048781, -5.1219511, 3.1707318, -0.0699931
-0.6362305, 0.6855469, -0.3466797, 0.9756098, -5.609756, 4.0243902, -0.0780499
-0.6308594, 0.6831055, -0.3442383, 1.2804878, -5.8536587, 4.3292685, -0.0728466
-0.6318359, 0.6728516, -0.3378906, 2.195122, -6.280488, 3.7804878, -0.0632792
-0.6289062, 0.6728516, -0.3374023, 2.9878049, -6.5853658, 3.7195122, -0.0636149
-0.6289062, 0.6777344, -0.3344727, 4.4512196, -7.1951222, 4.5731707, -0.0602579
-0.6225586, 0.6826172, -0.3354492, 5.0609756, -7.8048782, 4.8780489, -0.0558938
-0.6225586, 0.6850586, -0.3349609, 5.7926831, -7.5609756, 4.9390244, -0.0458228
-0.6225586, 0.6928711, -0.324707, 5.4878049, -6.5853658, 5.1829271, -0.0364233
-0.6279297, 0.6948242, -0.3134766, 5, -5.9146342, 5, -0.0283665
-0.6489258, 0.6962891, -0.3027344, 5.7317076, -4.3292685, 4.6951222, -0.0256809
-0.6538086, 0.6982422, -0.2993164, 5.8536587, -3.8414636, 5.0609756, -0.0182956
-0.6538086, 0.706543, -0.3115234, 7.7439027, -3.8414636, 5.9756098, -0.0159457
-0.6499023, 0.7109375, -0.3217773, 8.2317076, -3.2926829, 6.5853658, -0.0115816
-0.6391602, 0.7158203, -0.3457031, 9.0243902, -2.9878049, 6.5853658, -0.0015106
-0.6396484, 0.7216797, -0.3496094, 8.9634151, -2.6219513, 6.7682929, 0.0105745
-0.644043, 0.7299805, -0.3613281, 8.5365858, -1.8292683, 6.6463418, 0.0152743
-0.6318359, 0.7329102, -0.3608398, 8.4146347, -2.2560976, 6.4024391, 0.0135958
-0.6293945, 0.7285156, -0.3642578, 8.5975609, -1.9512196, 6.1585369, 0.0077211
-0.6269531, 0.7231445, -0.3706055, 8.841464, -2.0731707, 6.1585369, -0.0001678
-0.6274414, 0.7202148, -0.3710938, 8.9024391, -1.8902439, 5.609756, -0.0095674
-0.6279297, 0.7158203, -0.3779297, 8.841464, -1.8902439, 5.4268293, -0.01561
-0.6289062, 0.71875, -0.3803711, 8.3536587, -1.8902439, 5.670732, -0.0229953
-0.6289062, 0.7104492, -0.387207, 7.6829271, -1.402439, 6.7682929, -0.0256809
-0.6293945, 0.7055664, -0.3891602, 7.6829271, -1.3414634, 6.9512196, -0.0280308
-0.6357422, 0.7006836, -0.3867188, 7.3780489, -0.7317073, 6.7682929, -0.0317235
-0.6376953, 0.7041016, -0.3828125, 7.2560978, -0.5487805, 6.3414636, -0.0357519
-0.6450195, 0.7192383, -0.3764648, 7.6219516, -0.9146342, 5.9146342, -0.0298772
-0.6357422, 0.7421875, -0.3818359, 8.0487804, -1.2804878, 6.0365853, -0.0256809
-0.6240234, 0.7553711, -0.3891602, 8.6585369, -1.8902439, 6.4634147, -0.0313878
-0.6054688, 0.7666016, -0.4008789, 7.9878049, -1.8292683, 6.1585369, -0.0364233
-0.5947266, 0.7695312, -0.3999023, 7.4390244, -1.3414634, 5.8536587, -0.0458228
-0.5961914, 0.765625, -0.3955078, 5.8536587, 0.9146342, 4.6951222, -0.0552224
-0.5957031, 0.7612305, -0.3891602, 5.1829271, 1.7073171, 4.0853658, -0.0555581
-0.6030273, 0.746582, -0.371582, 4.5731707, 3.4146342, 3.6585367, -0.054551
-0.6074219, 0.7416992, -0.3608398, 4.0853658, 4.2073174, 3.4756098, -0.0532082
-0.609375, 0.722168, -0.3442383, 5.1829271, 5.4268293, 3.2317073, -0.0538796
-0.6113281, 0.7119141, -0.3422852, 5.4878049, 6.0975609, 3.1097562, -0.0532082
-0.6088867, 0.7138672, -0.3588867, 7.3170733, 7.2560978, 3.9024391, -0.0464942
-0.609375, 0.7236328, -0.3808594, 8.5365858, 7.8658538, 4.4512196, -0.0446479
-0.6049805, 0.7368164, -0.4023438, 9.8780489, 8.4146347, 5.3658538, -0.0417945
-0.6044922, 0.7553711, -0.4453125, 10.4878054, 9.0243902, 5.7317076, -0.0377661
-0.6079102, 0.7612305, -0.4614258, 10.3048782, 9.2682924, 5.4878049, -0.0273594
-0.6142578, 0.7617188, -0.4741211, 9.0243902, 10.2439022, 5.4878049, -0.0216526
-0.6225586, 0.7543945, -0.465332, 7.7439027, 11.0365858, 4.6951222, -0.0135958
-0.6474609, 0.7319336, -0.4238281, 7.0121951, 11.7073174, 3.2317073, -0.0028534
-0.6616211, 0.7236328, -0.3964844, 7.5, 12.1341467, 2.7439024, 0.0062104
-0.6679688, 0.7236328, -0.3549805, 10.4878054, 11.5243902, 3.5365853, 0.0253452
-0.6591797, 0.7265625, -0.3476562, 12.4390249, 11.4024391, 4.5731707, 0.0433051
-0.6230469, 0.7373047, -0.3710938, 16.4024391, 11.8292685, 6.280488, 0.0488441
-0.5883789, 0.734375, -0.4282227, 17.8658543, 13.0487804, 7.0731707, 0.04448
-0.581543, 0.737793, -0.4501953, 18.2926826, 16.0975609, 7.5609756, 0.0327306
-0.5986328, 0.7451172, -0.4633789, 17.1341476, 19.1463413, 7.4390244, 0.0172885
-0.609375, 0.7519531, -0.465332, 17.0121956, 20.2439022, 7.4390244, -0.0001678
-0.6347656, 0.7607422, -0.4624023, 17.2560978, 20.9756107, 7.6219516, -0.0109102
-0.6396484, 0.7666016, -0.4609375, 17.2560978, 20.8536587, 7.8048782, -0.0199741
-0.6401367, 0.7568359, -0.4492188, 18.5975609, 21.0365868, 7.3170733, -0.0323949
-0.6386719, 0.7543945, -0.4375, 19.3902435, 21.0975609, 7.1341467, -0.0350805
-0.6289062, 0.7529297, -0.4208984, 21.2195129, 21.3414631, 7.2560978, -0.0379339
-0.6157227, 0.7475586, -0.4194336, 22.1341476, 21.9512196, 7.5609756, -0.0391089
-0.5908203, 0.7324219, -0.4379883, 23.780489, 22.9268303, 8.780488, -0.0411231
-0.5629883, 0.7236328, -0.4702148, 24.5731716, 23.5975609, 9.1463413, -0.0404517
-0.5615234, 0.7192383, -0.4775391, 25.1219521, 25.5487804, 9.4512196, -0.0407874
-0.5673828, 0.7290039, -0.4785156, 24.6341476, 28.1097565, 9.2073174, -0.0381018
-0.5791016, 0.734375, -0.4765625, 24.4512196, 29.0853672, 8.9634151, -0.0391089
-0.5961914, 0.7441406, -0.4794922, 25, 29.4512196, 9.6341467, -0.0417945
-0.5981445, 0.7460938, -0.4926758, 26.0365868, 29.3292694, 10.4878054, -0.0431373
-0.5883789, 0.7431641, -0.5292969, 27.1341476, 29.2073174, 11.5243902, -0.0454871
-0.5898438, 0.7338867, -0.5478516, 26.9512196, 29.5731716, 11.6463413, -0.0392767
-0.5986328, 0.706543, -0.5561523, 25.7317085, 30.7926846, 10.7317076, -0.0216526
-0.6098633, 0.6933594, -0.5463867, 25.3048782, 31.4024391, 10.1219511, -0.0112459
-0.6391602, 0.6967773, -0.5131836, 26.7073174, 30.6707325, 10.7317076, -0.0065461
-0.628418, 0.7114258, -0.4731445, 28.4756107, 29.3292694, 11.6463413, -0.0082246
-0.6083984, 0.722168, -0.4702148, 32.0731697, 26.7073174, 13.5975609, -0.0129244
-0.5668945, 0.7290039, -0.4931641, 34.6951218, 26.8292694, 14.4512196, -0.0142672
-0.5522461, 0.7265625, -0.5117188, 35.3658562, 28.2926826, 15, -0.017792
-0.5327148, 0.7207031, -0.5551758, 35.4268303, 31.7073174, 16.0975609, -0.0243381
-0.5400391, 0.7270508, -0.5766602, 35.3658562, 33.5975609, 16.4634151, -0.0310521
-0.5595703, 0.7387695, -0.5952148, 34.2682953, 35, 16.9512196, -0.0354162
-0.5708008, 0.7485352, -0.5922852, 33.9634171, 34.9390259, 17.0121956, -0.0384375
-0.5927734, 0.7553711, -0.5732422, 33.841465, 34.0243912, 16.7073174, -0.0414588
-0.5986328, 0.7568359, -0.5546875, 33.841465, 33.5975609, 16.4634151, -0.0471656
-0.6049805, 0.7475586, -0.5317383, 35, 33.9024391, 16.1585369, -0.0488441
-0.5952148, 0.7270508, -0.5400391, 35.9756088, 34.3292694, 16.4024391, -0.0461585
-0.5844727, 0.7148438, -0.5556641, 38.5365868, 35.2439041, 17.9268303, -0.0404517
-0.565918, 0.7133789, -0.5976562, 40.9146347, 35.7926826, 20.060976, -0.0339055
-0.5571289, 0.7250977, -0.6191406, 41.4024391, 36.0365868, 20.8536587, -0.0297093
-0.5532227, 0.7514648, -0.6308594, 41.7073174, 36.4634171, 21.280489, -0.0236667
-0.5610352, 0.7724609, -0.6269531, 41.4024391, 36.8292694, 21.0975609, -0.0226596
-0.5693359, 0.7836914, -0.6191406, 41.7682953, 36.8292694, 21.280489, -0.0182956
-0.5698242, 0.7788086, -0.6206055, 41.8292694, 37.3780479, 21.280489, -0.0142672
-0.5683594, 0.7539062, -0.6318359, 42.5, 38.2317085, 21.8292694, -0.0065461
-0.5742188, 0.7397461, -0.6401367, 42.6829262, 38.7195129, 21.7682934, 0.0008392
-0.581543, 0.7255859, -0.6430664, 44.2073174, 39.5121956, 21.4024391, 0.0065461
-0.6015625, 0.7290039, -0.6450195, 45.6707344, 39.3292694, 21.5243912, 0.0112459
-0.6044922, 0.7456055, -0.6435547, 46.8292694, 38.5365868, 22.1341476, 0.0092317
-0.5942383, 0.7675781, -0.6591797, 48.5365868, 37.8658562, 23.5975609, 0.0095674
-0.5800781, 0.7709961, -0.6645508, 49.1463432, 37.8048782, 23.8414631, 0.0005035
-0.5571289, 0.7714844, -0.6738281, 49.4512215, 38.9634171, 23.8414631, -0.005539
-0.5571289, 0.7695312, -0.6777344, 49.5121956, 39.5121956, 23.6585369, -0.0092317
-0.5498047, 0.7675781, -0.6723633, 49.1463432, 40.3048782, 23.9634151, -0.0149386
-0.5400391, 0.762207, -0.6772461, 49.5121956, 40.3658562, 24.1463413, -0.0164492
-0.5385742, 0.7578125, -0.6855469, 49.8780518, 41.0365868, 24.2073174, -0.0176242
-0.5380859, 0.7543945, -0.6923828, 50.1829262, 41.0365868, 24.2073174, -0.01561
-0.5473633, 0.7368164, -0.6977539, 49.7560997, 41.5243912, 24.3902435, -0.0135958
-0.5654297, 0.7387695, -0.6801758, 50.4878044, 42.7439041, 24.0853672, -0.0102388
-0.5712891, 0.7456055, -0.6650391, 51.0975609, 43.1097565, 23.9634151, -0.0048676
-0.5722656, 0.7641602, -0.659668, 52.8658562, 43.7195129, 25.060976, 0.0005035
-0.5615234, 0.7700195, -0.6650391, 53.7804909, 44.0243912, 25.9756107, -0.0058747
-0.5239258, 0.7768555, -0.6904297, 54.6951218, 45.6707344, 27.1341476, -0.0097353
-0.5087891, 0.7714844, -0.6943359, 54.4512215, 46.7682953, 27.0731716, -0.0095674
-0.5039062, 0.7490234, -0.6948242, 53.1097565, 49.8170738, 25.7317085, -0.0105745
-0.5112305, 0.7299805, -0.6899414, 52.2560997, 51.0975609, 25, -0.0129244
-0.543457, 0.7114258, -0.6811523, 52.6829262, 53.0487823, 24.4512196, -0.0095674
-0.5546875, 0.7124023, -0.6782227, 53.3536606, 52.9268303, 24.8780499, -0.008896
-0.5615234, 0.7216797, -0.6889648, 55.9146347, 52.8658562, 26.2195129, -0.0070497
-0.5537109, 0.7290039, -0.6982422, 56.5853653, 53.4146347, 26.6463413, -0.0028534
-0.550293, 0.7285156, -0.7006836, 56.341465, 54.1463432, 26.8292694, 0.0052033
-0.5424805, 0.7192383, -0.7036133, 56.5243912, 55.9146347, 27.5, 0.0065461
-0.5390625, 0.7207031, -0.7119141, 56.8902435, 56.8902435, 28.1707325, 0.0043641
-0.5185547, 0.7324219, -0.7260742, 57.8048782, 57.4390259, 29.4512196, 0.0099031
-0.5107422, 0.7416992, -0.7358398, 57.9268303, 57.9878044, 29.8780499, 0.0092317
-0.5063477, 0.7402344, -0.7299805, 57.8048782, 59.2073174, 28.780489, 0.0072175
-0.5136719, 0.7446289, -0.7231445, 57.4390259, 59.5121956, 28.1097565, 0.0038605
-0.519043, 0.71875, -0.7348633, 57.68293, 59.6951218, 28.1097565, -0.0028534
-0.5205078, 0.6992188, -0.7475586, 58.1707344, 59.9390259, 29.0243912, -0.0028534
-0.5507812, 0.6679688, -0.7670898, 59.4512215, 60.5487823, 30, -0.0077211
-0.5776367, 0.7011719, -0.7749023, 60.5487823, 58.9634171, 30.9146347, -0.0162814
-0.5693359, 0.7177734, -0.7670898, 60.4878044, 58.5975609, 31.280489, -0.0287022
-0.5576172, 0.7695312, -0.7099609, 58.7804909, 61.9512215, 31.4634151, -0.0330663
-0.546875, 0.7797852, -0.7084961, 58.5365868, 62.5609779, 32.5609779, -0.0448157
-0.4750977, 0.7192383, -0.7915039, 60, 64.6341476, 36.0975609, -0.051194
-0.4433594, 0.6875, -0.8383789, 60.8536606, 66.7073212, 36.5853653, -0.0538796
-0.4799805, 0.6972656, -0.8803711, 60.4878044, 69.0243912, 34.2682953, -0.0565652
-0.5200195, 0.7050781, -0.8691406, 59.2682953, 67.6219559, 33.4756088, -0.0686503
-0.5854492, 0.7119141, -0.8227539, 57.8658562, 63.1097565, 33.5365868, -0.0777142
-0.6035156, 0.7138672, -0.8041992, 57.9878044, 61.6463432, 34.1463432, -0.0777142
-0.5874023, 0.7260742, -0.7758789, 60.7926826, 61.2195129, 36.5243912, -0.0699931
-0.5439453, 0.7421875, -0.7954102, 63.7195129, 61.9512215, 38.3536606, -0.0605936
-0.5092773, 0.7441406, -0.8168945, 64.6951218, 62.5609779, 39.5121956, -0.0538796
-0.4487305, 0.7421875, -0.8676758, 64.2682953, 63.7804909, 40.6097565, -0.0468299
-0.4414062, 0.7416992, -0.8706055, 63.6585388, 64.6951218, 40, -0.036759
-0.4521484, 0.737793, -0.8569336, 62.1951218, 66.2195129, 37.5609779, -0.0290379
-0.4736328, 0.7299805, -0.8344727, 62.1341476, 66.3414612, 36.7682953, -0.0223239
-0.5078125, 0.7211914, -0.7998047, 63.4756126, 65.0609741, 36.5243912, -0.0058747
-0.5097656, 0.7177734, -0.7895508, 64.6341476, 64.6951218, 36.8292694, -0.0015106
-0.4897461, 0.7001953, -0.7958984, 67.3780518, 64.5731735, 37.8048782, 0.0005035
-0.4794922, 0.6972656, -0.8100586, 68.7804871, 65.0609741, 38.4146347, 0.0052033
-0.4604492, 0.7041016, -0.8598633, 69.8780518, 67.5, 39.2073174, 0.008896
-0.4545898, 0.7265625, -0.9248047, 70.0609741, 69.0243912, 40.7926826, 0.0119173
-0.4619141, 0.7416992, -0.9375, 69.5121994, 69.4512177, 40.9756088, 0.0135958
-0.4775391, 0.7597656, -0.9116211, 67.2560959, 69.2682953, 40.4878044, 0.0172885
-0.4824219, 0.7568359, -0.8803711, 66.4634171, 68.7804871, 39.3292694, 0.0152743
-0.4848633, 0.7314453, -0.8120117, 66.7682953, 67.5609741, 37.5, 0.0065461
-0.4726562, 0.7192383, -0.8017578, 68.2317123, 67.1951218, 37.6829262, -0.005539
-0.4160156, 0.6889648, -0.8486328, 71.1585388, 68.2926865, 39.3902435, -0.0176242
-0.3984375, 0.675293, -0.8842773, 71.7682953, 69.6341476, 39.8170738, -0.027863
-0.3979492, 0.6787109, -0.9160156, 70.9146347, 72.9268341, 39.2073174, -0.0387732
-0.4511719, 0.7006836, -0.8867188, 69.8170776, 73.5975647, 38.6585388, -0.0468299
-0.4672852, 0.7172852, -0.8671875, 69.5731735, 72.4390259, 38.1097565, -0.0515297
-0.4633789, 0.7158203, -0.8637695, 71.5243912, 71.2195129, 38.841465, -0.0532082
-0.4467773, 0.7075195, -0.878418, 72.2560959, 72.0731735, 39.2682953, -0.0532082
-0.418457, 0.6918945, -0.9135742, 72.68293, 74.8170776, 39.5121956, -0.0558938
-0.4077148, 0.6938477, -0.921875, 72.3780518, 75.7926865, 39.2073174, -0.0592508
-0.4018555, 0.6943359, -0.9223633, 70.5487823, 75.6707306, 39.0853653, -0.0619364
-0.3959961, 0.6865234, -0.9130859, 69.8780518, 75.3658524, 38.7804871, -0.0649577
-0.3950195, 0.65625, -0.9111328, 70.3048782, 75.0609741, 37.5, -0.0679789
-0.4057617, 0.6381836, -0.9125977, 70.6097565, 75.3658524, 36.8292694, -0.0674754
-0.4355469, 0.6411133, -0.9013672, 72.9268341, 74.8780518, 36.4024391, -0.0683146
-0.4384766, 0.6796875, -0.8930664, 74.2682953, 74.2682953, 36.7073174, -0.0626078
-0.4243164, 0.6953125, -0.8881836, 75.2439041, 73.1097565, 37.6829262, -0.054551
-0.3745117, 0.6933594, -0.9052734, 75.5487823, 73.9024429, 38.3536606, -0.0475013
-0.3505859, 0.6791992, -0.9165039, 74.8780518, 75.0609741, 38.1707344, -0.0377661
-0.3388672, 0.6655273, -0.9287109, 74.2073212, 78.4146347, 37.5, -0.0256809
-0.3481445, 0.6723633, -0.9306641, 74.5731735, 79.5731735, 36.7073174, -0.0149386
-0.359375, 0.6879883, -0.9335938, 75.18293, 79.3292694, 36.0975609, 0.0035248
-0.3564453, 0.6899414, -0.9394531, 75.4268341, 79.2682953, 35.3048782, 0.017792
-0.3598633, 0.6904297, -0.953125, 75.0609741, 79.5731735, 34.5121956, 0.0273594
-0.3579102, 0.6870117, -0.9677734, 75.0609741, 80, 34.2682953, 0.0292058
-0.3588867, 0.6655273, -0.9936523, 74.4512177, 81.1585388, 34.1463432, 0.0280308
-0.387207, 0.6484375, -0.9907227, 74.4512177, 81.5853653, 33.7804871, 0.0293736
-0.40625, 0.6362305, -0.9692383, 74.3292694, 80.7317123, 32.0731697, 0.0293736
-0.4311523, 0.6298828, -0.9208984, 76.2195129, 78.5365906, 32.0731697, 0.0307164
-0.4257812, 0.628418, -0.9121094, 77.8658524, 77.5609741, 32.5609779, 0.0287022
-0.3779297, 0.6411133, -0.9326172, 81.4024429, 77.8658524, 34.0243912, 0.0219883
-0.3530273, 0.6523438, -0.9594727, 82.3170776, 79.0853653, 35, 0.0223239
-0.3076172, 0.6679688, -1.0014648, 82.68293, 82.3170776, 35.3658562, 0.0223239
-0.2973633, 0.6699219, -1.0117188, 81.5243912, 83.8414688, 34.9390259, 0.01561
-0.3168945, 0.6699219, -1.0146484, 80.4878082, 85.6707306, 33.7804871, 0.0078889
-0.3374023, 0.668457, -1.0209961, 80.5487823, 85.9146347, 33.1097565, 0.0025177
-0.3623047, 0.6704102, -1.0395508, 80.9756088, 85.6707306, 32.9268303, -0.0028534
-0.3701172, 0.6552734, -1.0410156, 81.4024429, 85.2439041, 32.7439041, -0.0030213
-0.371582, 0.6333008, -1.0249023, 81.1585388, 83.7804871, 31.5853672, 0.0008392
-0.3706055, 0.6113281, -0.9785156, 81.9512177, 81.8902435, 30.9146347, 0.0075532
-0.3579102, 0.6000977, -0.9575195, 83.1097565, 80.9756088, 31.0975609, 0.0132601
-0.3017578, 0.5991211, -0.9580078, 85.3048782, 81.5853653, 32.1341476, 0.0114137
-0.2753906, 0.6040039, -0.9746094, 85.9756088, 82.9878082, 32.5609779, 0.0115816
-0.2382812, 0.6210938, -1.0268555, 85.9756088, 87.0731735, 32.9268303, 0.0075532
-0.2358398, 0.6274414, -1.0463867, 85.1219559, 88.6585388, 32.5609779, 0.005539
-0.2578125, 0.6254883, -1.0517578, 83.5365906, 90.4878082, 31.1585369, 0.0008392
-0.2807617, 0.6210938, -1.0327148, 82.8048782, 90.1219559, 30, -0.0179599
-0.3066406, 0.5883789, -0.9897461, 83.1707306, 88.1097565, 28.5975609, -0.0370947
-0.2910156, 0.565918, -0.9960938, 83.8414688, 87.1951218, 28.9024391, -0.0485084
-0.2719727, 0.5678711, -1.0107422, 85.0609741, 87.9878082, 29.8780499, -0.0661326
-0.2402344, 0.5791016, -1.0341797, 84.9390259, 91.3414688, 30.3658543, -0.0807355
-0.2382812, 0.5839844, -1.0390625, 84.5121994, 92.5, 30.060976, -0.0871138
-0.2348633, 0.5908203, -1.0317383, 83.4146347, 93.9634171, 29.5731716, -0.0931563
-0.2338867, 0.5942383, -1.0219727, 83.2926865, 93.6585388, 29.1463413, -0.0908064
-0.2148438, 0.574707, -1.0175781, 82.8658524, 93.9634171, 28.3536587, -0.0820783
-0.2070312, 0.559082, -1.0166016, 82.8048782, 94.8170776, 27.8658543, -0.0850996
-0.1972656, 0.5180664, -1.0170898, 82.68293, 97.0121994, 26.8292694, -0.0921492
-0.203125, 0.5078125, -1.0053711, 82.5, 97.9268341, 26.5853672, -0.0944991
-0.2133789, 0.4921875, -0.9931641, 83.4756088, 97.7439041, 25.9756107, -0.0961776
-0.21875, 0.4838867, -0.9985352, 84.8170776, 97.6219559, 26.2195129, -0.0908064
-0.2163086, 0.4794922, -1.0039062, 86.8902435, 97.2561035, 26.3414631, -0.0720073
-0.2124023, 0.4672852, -1.012207, 88.5975647, 97.5609741, 26.5243912, -0.04448
-0.2089844, 0.4648438, -1.0166016, 89.2073212, 97.5609741, 26.5853672, -0.0236667
-0.2050781, 0.4892578, -1.0390625, 91.0365906, 97.6219559, 27.3780499, -0.0077211
-0.1933594, 0.5053711, -1.0527344, 91.5243912, 97.8048782, 28.0487804, -0.0035248
-0.1728516, 0.5322266, -1.0776367, 91.7682953, 98.3536606, 28.5975609, 0.0028534
-0.1611328, 0.5322266, -1.0844727, 91.2195129, 99.2073212, 28.4146347, 0.0075532
-0.1601562, 0.5102539, -1.0693359, 89.2682953, 99.8170776, 27.5, 0.0031891
-0.1567383, 0.4824219, -1.0419922, 88.4756088, 100, 26.7073174, -0.0028534
-0.1513672, 0.4360352, -0.9824219, 88.4756088, 99.5121994, 25.060976, -0.0159457
-0.1264648, 0.4111328, -0.9814453, 89.8170776, 99.5731735, 25.3048782, -0.0276951
-0.1074219, 0.4106445, -1.0180664, 92.6219559, 100.4878082, 26.7073174, -0.0381018
-0.0996094, 0.4311523, -1.1157227, 93.1707306, 103.8414688, 27.2560978, -0.0471656
-0.1176758, 0.4511719, -1.1503906, 92.6219559, 105.0609818, 27.6829281, -0.0538796
-0.1767578, 0.4770508, -1.152832, 90.2439041, 104.146347, 27.0121956, -0.056733
-0.2011719, 0.4741211, -1.1391602, 89.2682953, 101.646347, 26.5853672, -0.0565652
-0.206543, 0.472168, -1.1098633, 89.6341476, 96.7682953, 27.1341476, -0.054551
-0.184082, 0.4716797, -1.1035156, 89.8780518, 95.4878082, 27.4390259, -0.054551
-0.1142578, 0.4584961, -1.1049805, 90.4268341, 95.9146347, 27.8048782, -0.043473
-0.0913086, 0.4438477, -1.1010742, 89.3902435, 96.7073212, 27.5, -0.0330663
-0.0610352, 0.4204102, -1.0649414, 87.9268341, 98.0487823, 26.8292694, -0.0256809
-0.0561523, 0.3950195, -1.0449219, 87.7439041, 98.5975647, 26.280489, -0.0209812
-0.0629883, 0.3935547, -1.0483398, 89.5121994, 99.146347, 25.4878063, -0.0176242
-0.0708008, 0.4150391, -1.0693359, 91.0975647, 99.5121994, 24.7560978, -0.0115816
-0.0776367, 0.4223633, -1.0927734, 91.2804871, 99.8780518, 24.6341476, 0.0139315
-0.0913086, 0.4282227, -1.137207, 90.9146347, 100.3658524, 24.7560978, 0.0384375
-0.0952148, 0.4267578, -1.1416016, 90.0609741, 100.18293, 24.9390259, 0.0407874
-0.1049805, 0.4091797, -1.1152344, 88.1097565, 99.0853653, 24.2073174, 0.0303807
-0.1088867, 0.3950195, -1.1015625, 88.1097565, 98.1097565, 23.8414631, 0.0162814
-0.1030273, 0.3974609, -1.0986328, 89.3902435, 96.7073212, 24.5731716, 0.0035248
-0.0839844, 0.4150391, -1.1025391, 90.2439041, 96.7073212, 25.4268303, -0.0028534
-0.0458984, 0.4301758, -1.1132812, 89.4512253, 97.8658524, 25.6097565, -0.0062104
-0.0268555, 0.3945312, -1.112793, 88.1097565, 98.7195129, 24.7560978, -0.0119173
-0.0258789, 0.3623047, -1.1103516, 86.4634171, 99.9390259, 23.5975609, -0.030045
-0.059082, 0.328125, -1.1098633, 87.0731735, 99.8170776, 22.5, -0.0485084
-0.0825195, 0.3198242, -1.1123047, 88.1707306, 98.8414688, 22.5, -0.0558938
-0.1176758, 0.3344727, -1.1123047, 90.2439041, 96.3414688, 22.3170738, -0.061265
-0.1269531, 0.3500977, -1.1181641, 90.7926865, 94.2682953, 22.6219521, -0.0619364
-0.0991211, 0.3813477, -1.1445312, 90.7317123, 91.5853653, 23.9024391, -0.0666361
-0.0722656, 0.3911133, -1.152832, 89.7560959, 91.0365906, 24.6341476, -0.0649577
-0.0258789, 0.3955078, -1.1381836, 87.0121994, 91.8902435, 24.6341476, -0.0632792
-0.0151367, 0.390625, -1.1088867, 85.4878082, 92.3170776, 24.4512196, -0.0569009
0.0073242, 0.3383789, -1.0522461, 83.2317123, 92.0121994, 22.8048782, -0.0290379
0.0126953, 0.2509766, -1.0185547, 84.7560959, 92.0731735, 20.9146347, -0.0072175
-0.0029297, 0.2236328, -1.0117188, 86.646347, 92.1341476, 20.060976, -0.0109102
-0.0239258, 0.2089844, -0.9975586, 90.0609741, 90.4268341, 19.5731716, -0.0317235
-0.0336914, 0.2172852, -0.9907227, 91.4024429, 89.5731735, 19.3292694, -0.0406195
-0.043457, 0.25, -0.9926758, 93.9634171, 87.9878082, 20.6097565, -0.0364233
-0.03125, 0.2719727, -1.015625, 94.6951218, 87.9268341, 22.3780499, -0.0364233
0.0288086, 0.2910156, -1.0712891, 93.6585388, 89.6951218, 25.4268303, -0.0330663
0.0458984, 0.277832, -1.0927734, 92.68293, 91.8292694, 25.4878063, -0.0313878
0.0302734, 0.2553711, -1.0898438, 90.18293, 93.3536606, 24.0243912, -0.0347448
0.0087891, 0.2504883, -1.0693359, 90.1219559, 92.4390259, 23.5975609, -0.0391089
-0.0107422, 0.2485352, -1.0219727, 91.8292694, 89.7560959, 22.9268303, -0.0320592
0.0102539, 0.2451172, -0.9975586, 93.3536606, 87.3170776, 22.6219521, -0.0270237
0.0390625, 0.2368164, -0.9941406, 93.6585388, 86.7682953, 22.9268303, -0.023331
0.1064453, 0.2050781, -0.9936523, 93.0487823, 88.8414688, 23.1097565, -0.0229953
0.1235352, 0.1835938, -0.9975586, 92.5, 91.4024429, 22.6829281, -0.0179599
0.1098633, 0.1557617, -0.9995117, 92.1341476, 95.4268341, 22.2560978, -0.0198062
0.0864258, 0.1542969, -0.9985352, 93.2317123, 96.3414688, 21.9512196, -0.023331
0.0405273, 0.1796875, -1.0063477, 95.1219559, 95.4878082, 21.8292694, -0.0250095
0.0336914, 0.1948242, -1.0185547, 96.2195129, 94.7561035, 22.3170738, -0.0236667
0.0307617, 0.2167969, -1.0751953, 95.9756088, 93.6585388, 23.4756107, -0.0248417
0.0385742, 0.2211914, -1.1152344, 95.1219559, 94.5121994, 24.2682934, -0.0229953
0.0375977, 0.2583008, -1.1669922, 92.2561035, 96.3414688, 25.4268303, -0.0193027
0.027832, 0.2661133, -1.171875, 87.9268341, 96.5853653, 25.4268303, -0.0196384
0.0200195, 0.2431641, -1.1494141, 85.6707306, 95.0609741, 24.5121956, -0.0179599
0.0063477, 0.1904297, -1.0673828, 84.5121994, 90.8536606, 22.5, -0.0203098
0.0131836, 0.1679688, -1.0214844, 85.4878082, 88.9634171, 22.0121956, -0.0203098
0.0537109, 0.1425781, -0.9702148, 88.0487823, 85.9756088, 21.8902435, -0.0196384
0.0786133, 0.1293945, -0.9804688, 89.3292694, 85.4268341, 22.6219521, -0.0119173
0.1254883, 0.1298828, -1.0639648, 90.6707306, 88.4756088, 25.4878063, 0.0001678
0.1347656, 0.1435547, -1.1035156, 90.3658524, 90.9146347, 26.2195129, 0.023331
0.0756836, 0.1865234, -1.1230469, 88.9634171, 93.9634171, 25.4878063, 0.0345769
0.0351562, 0.2060547, -1.0961914, 88.2926865, 93.1097565, 24.8170738, 0.0260166
-0.0029297, 0.2285156, -1.043457, 88.3536606, 88.1707306, 24.6951218, 0.0065461
0.0693359, 0.2270508, -1.0258789, 89.6341476, 85.18293, 25.5487804, -0.0129244
0.1220703, 0.2158203, -1.0322266, 89.6341476, 85.4878082, 26.280489, -0.0310521
0.2060547, 0.1655273, -1.0507812, 87.8048782, 88.9024429, 25.7317085, -0.0441444
0.2197266, 0.1376953, -1.0600586, 87.2560959, 91.3414688, 24.8780499, -0.0458228
0.1743164, 0.1225586, -1.0537109, 87.5609741, 95.0609741, 23.2926826, -0.057908
0.1264648, 0.1313477, -1.0405273, 88.3536606, 95.5487823, 22.3780499, -0.061265
0.0600586, 0.1499023, -1.0131836, 91.0365906, 92.5, 20.7317085, -0.0636149
0.0483398, 0.1533203, -1.012207, 91.7682953, 90.3658524, 20.7317085, -0.0626078
0.0844727, 0.1337891, -1.0400391, 93.3536606, 87.8658524, 22.5, -0.061265
0.1108398, 0.1230469, -1.0546875, 92.9268341, 88.1707306, 23.2926826, -0.0532082
0.1577148, 0.0957031, -1.0561523, 91.4634171, 90.6097565, 23.9634151, -0.0458228
0.1450195, 0.0932617, -1.0498047, 90.6097565, 91.7073212, 23.4146347, -0.0407874
0.1362305, 0.1103516, -1.0541992, 91.4634171, 91.7682953, 23.4756107, -0.0350805
0.1416016, 0.1411133, -1.046875, 92.4390259, 90.7926865, 23.0487804, -0.0276951
0.1499023, 0.1367188, -1.0380859, 92.3170776, 89.5731735, 22.1341476, -0.0196384
0.1582031, 0.0922852, -1.0092773, 91.2804871, 86.7682953, 20.6707325, -0.018967
0.1704102, 0.0722656, -1, 91.4024429, 86.2804871, 21.3414631, -0.0240024
0.2080078, 0.0351562, -1.003418, 92.1341476, 88.4146347, 22.3170738, -0.0287022
0.2045898, 0.0244141, -1.0131836, 92.3780518, 90.1219559, 22.1341476, -0.0303807
0.1640625, 0.0351562, -1.0185547, 92.8048782, 91.3414688, 21.3414631, -0.0276951
0.1484375, 0.0527344, -1.0092773, 93.1707306, 90.3658524, 21.7073174, -0.0260166
0.1557617, 0.0795898, -0.9907227, 94.0243912, 87.3170776, 21.7682934, -0.0263523
0.1928711, 0.0830078, -1.0151367, 94.0853653, 86.0365906, 21.9512196, -0.0253452
0.2128906, 0.0786133, -1.0385742, 93.4146347, 86.7073212, 22.6219521, -0.0283665
0.2260742, 0.0932617, -1.0927734, 91.3414688, 89.6951218, 22.560976, -0.0293736
0.2133789, 0.1010742, -1.1040039, 89.8780518, 90.3658524, 22.3170738, -0.0243381
0.1748047, 0.0859375, -1.0761719, 86.8902435, 87.9878082, 20.3048782, -0.0229953
0.1630859, 0.0629883, -1.0429688, 86.2195129, 85.18293, 19.2073174, -0.0271916
0.1567383, 0.0039062, -0.9643555, 87.6219559, 78.4756088, 17.1341476, -0.0276951
0.1669922, -0.0219727, -0.9316406, 88.7804871, 75.7926865, 16.7073174, -0.0276951
0.2075195, -0.0317383, -0.8891602, 91.9512253, 73.1097565, 16.9512196, -0.0260166
0.2392578, -0.0195312, -0.8930664, 93.2926865, 73.1707306, 17.5, -0.0229953
0.2924805, 0.0161133, -0.9536133, 93.6585388, 76.3414688, 19.0853672, -0.0162814
0.3261719, 0.0483398, -1.027832, 90.6707306, 81.8902435, 20.060976, -0.0159457
0.3173828, 0.0517578, -1.0332031, 87.9878082, 84.3292694, 19.2073174, -0.0135958
0.2412109, 0.0332031, -1.0068359, 84.5121994, 81.2804871, 16.7073174, -0.0139315
0.2236328, 0.0263672, -0.9902344, 83.7195129, 77.4390259, 15.5487804, -0.0050355
0.2207031, 0.0380859, -0.9414062, 84.2682953, 70.7926865, 14.1463413, 0.0015106
0.2373047, 0.0356445, -0.9086914, 84.5731735, 69.3902435, 13.4756098, 0.0052033
0.2841797, -0.003418, -0.8647461, 84.0243912, 68.7195129, 12.6829271, 0.0092317
0.3100586, -0.0327148, -0.862793, 83.5365906, 69.5731735, 12.6219511, 0.0008392
0.3432617, -0.0527344, -0.909668, 83.7195129, 72.9268341, 14.0243902, -0.0058747
0.3466797, -0.0336914, -0.9697266, 83.4756088, 74.8780518, 14.6341467, -0.0097353
0.3193359, -0.0249023, -0.9692383, 81.646347, 77.9268341, 13.9634151, -0.0162814
0.2485352, -0.012207, -0.9311523, 80.7317123, 75.9146347, 11.7073174, -0.0151064
0.215332, -0.0175781, -0.9052734, 81.2804871, 73.5365906, 10.9756098, -0.0085603
0.2026367, -0.0366211, -0.8842773, 84.0243912, 68.0487823, 10.1829271, 0.0015106
0.2124023, -0.0488281, -0.887207, 85.4268341, 66.0365906, 10.4268293, 0.0203098
0.25, -0.0688477, -0.9125977, 86.9512253, 64.4512177, 11.280488, 0.0345769
0.265625, -0.0693359, -0.9287109, 86.7682953, 64.6951218, 11.9512196, 0.0381018
0.2905273, -0.0478516, -0.9345703, 85.4878082, 65.18293, 12.6829271, 0.0357519
0.2944336, -0.0405273, -0.9204102, 84.2073212, 64.8780518, 12.5, 0.0253452
0.2875977, -0.0375977, -0.8686523, 82.8658524, 63.5365868, 12.1341467, 0.0152743
0.2958984, -0.0766602, -0.8305664, 82.8048782, 62.7439041, 11.9512196, 0.0065461
0.3061523, -0.1035156, -0.8295898, 84.8170776, 61.7073174, 10.9756098, 0.0031891
0.3095703, -0.1333008, -0.8637695, 87.0121994, 61.8292694, 10.3048782, -0.0036927
0.3017578, -0.1289062, -0.8769531, 87.3780518, 61.8902435, 10.3048782, -0.0085603
0.2797852, -0.0766602, -0.8891602, 87.6219559, 60.8536606, 10, -0.0075532
0.2729492, -0.0473633, -0.8876953, 87.1951218, 59.9390259, 9.9390249, -0.0115816
0.2729492, -0.0322266, -0.8818359, 85.6097565, 57.2560997, 9.2682924, -0.0172885
0.2807617, -0.0473633, -0.8701172, 84.6341476, 56.5243912, 8.841464, -0.0198062
0.293457, -0.0883789, -0.8310547, 83.3536606, 54.4512215, 8.1707315, -0.0250095
0.3051758, -0.1123047, -0.8212891, 82.8658524, 53.4756126, 8.2317076, -0.0297093
0.3286133, -0.1474609, -0.8325195, 83.2317123, 53.1097565, 8.1097565, -0.0364233
0.3417969, -0.1386719, -0.8417969, 83.4146347, 52.9878044, 8.2926826, -0.0377661
0.3374023, -0.1196289, -0.8198242, 83.5975647, 52.4390259, 6.890244, -0.0377661
0.3242188, -0.0966797, -0.7558594, 82.5, 49.5121956, 4.8170733, -0.0384375
0.3261719, -0.0942383, -0.746582, 82.3780518, 47.6829262, 4.2682929, -0.0458228
0.3754883, -0.1049805, -0.7919922, 82.3170776, 47.1341476, 6.4634147, -0.0538796
0.4077148, -0.1088867, -0.8256836, 81.8292694, 49.4512215, 7.5609756, -0.054551
0.4208984, -0.0976562, -0.8745117, 78.5365906, 55.0609779, 6.7682929, -0.0491798
0.3955078, -0.0908203, -0.8764648, 76.0975647, 55.8536606, 5.7317076, -0.0330663
0.3432617, -0.0898438, -0.8320312, 73.2926865, 52.4390259, 3.1097562, -0.0169528
0.328125, -0.0991211, -0.815918, 73.2926865, 49.7560997, 2.195122, -0.0078889
0.3217773, -0.1328125, -0.7988281, 74.5731735, 45.1829262, 0.0609756, -0.0018463
0.3242188, -0.1630859, -0.7817383, 75.0609741, 43.6585388, -0.5487805, -0.0023499
0.3310547, -0.1665039, -0.7661133, 75.0609741, 42.1951218, -1.2804878, -0.0048676
0.3525391, -0.1523438, -0.7514648, 74.7560959, 41.8902435, -0.1219512, -0.0031891
0.3642578, -0.1455078, -0.7592773, 74.1463394, 42.2560997, 1.0365853, -0.0078889
0.4077148, -0.152832, -0.7861328, 72.4390259, 44.3902435, 3.1097562, -0.0166171
0.4174805, -0.1621094, -0.7871094, 71.2804871, 45.9756126, 2.9268293, -0.0287022
0.394043, -0.184082, -0.7578125, 69.6341476, 46.341465, 1.2804878, -0.0360876
0.3764648, -0.1972656, -0.7392578, 69.5731735, 45.1829262, 0.5487805, -0.0297093
0.3549805, -0.21875, -0.715332, 71.2804871, 42.5609779, 0.1829268, -0.0186313
0.3510742, -0.222168, -0.7070312, 72.2560959, 41.0365868, -0.0609756, -0.0142672
0.3574219, -0.2070312, -0.6831055, 74.0853653, 39.5731735, 0, -0.0052033
0.3808594, -0.2075195, -0.6972656, 74.7560959, 38.9634171, 0.6707317, -0.0028534
0.3974609, -0.2114258, -0.7290039, 75.4878082, 40.2439041, 3.1097562, -0.0015106
0.4111328, -0.230957, -0.7939453, 74.8170776, 43.7195129, 4.5731707, 0.0011749
0.3955078, -0.2319336, -0.8066406, 74.2073212, 44.5731735, 4.6341462, -0.0052033
0.3383789, -0.2260742, -0.7939453, 73.4146347, 41.7073174, 3.6585367, -0.0149386
0.3198242, -0.2094727, -0.7666016, 73.4146347, 38.5975609, 3.6585367, -0.018967
0.3208008, -0.1875, -0.71875, 73.7804871, 32.8658562, 3.4146342, -0.0199741
0.3378906, -0.1894531, -0.715332, 74.0853653, 31.4634151, 3.3536587, -0.0243381
0.3935547, -0.2119141, -0.746582, 74.0243912, 31.7682934, 4.390244, -0.0270237
0.4174805, -0.2299805, -0.7597656, 73.1097565, 32.6219521, 4.9390244, -0.0276951
0.4394531, -0.2539062, -0.7402344, 70.18293, 33.5975609, 4.7560978, -0.0303807
0.4379883, -0.234375, -0.6616211, 68.5365906, 32.9878044, 3.9634147, -0.026688
0.4487305, -0.2250977, -0.6328125, 67.2560959, 30.2439022, 3.3536587, -0.0283665
0.5004883, -0.2275391, -0.6425781, 67.6219559, 30.9756107, 3.6585367, -0.0310521
0.515625, -0.2426758, -0.6552734, 67.3170776, 32.3780479, 3.3536587, -0.0347448
0.5185547, -0.2695312, -0.6733398, 66.0975647, 35.6097565, 2.2560976, -0.0424659
0.4970703, -0.2763672, -0.6845703, 65.18293, 36.2195129, 1.8292683, -0.0498512
0.4599609, -0.2680664, -0.6943359, 64.5731735, 35.4878044, 0.9756098, -0.0565652
0.4365234, -0.253418, -0.7084961, 64.6341476, 34.7560997, 1.1585366, -0.0495155
0.4204102, -0.2070312, -0.7250977, 63.6585388, 32.5, 1.1585366, -0.0431373
0.418457, -0.1918945, -0.7275391, 62.1951218, 31.5243912, 1.0365853, -0.0407874
0.4282227, -0.2050781, -0.7421875, 59.4512215, 29.9390259, 0.7317073, -0.0377661
0.4345703, -0.2666016, -0.7651367, 58.1707344, 28.780489, 0.4268293, -0.036759
0.4291992, -0.2753906, -0.7695312, 57.5, 26.8902454, 0.1219512, -0.0364233
0.4067383, -0.2397461, -0.7421875, 56.5243912, 23.5365868, 0.1829268, -0.0381018
0.3984375, -0.222168, -0.7197266, 55.3658562, 21.3414631, -0.0609756, -0.0320592
0.4106445, -0.2241211, -0.6674805, 53.841465, 17.3780499, -0.3658537, -0.0270237
0.4238281, -0.2490234, -0.6577148, 53.841465, 15.7926836, -0.1219512, -0.0307164
0.4589844, -0.2988281, -0.6665039, 53.9024391, 14.3902445, 0, -0.0315557
0.4736328, -0.3071289, -0.6713867, 53.841465, 13.6585369, 0.1829268, -0.0283665
0.4848633, -0.2612305, -0.6699219, 53.9024391, 12.1341467, 1.097561, -0.0219883
0.4873047, -0.2285156, -0.6655273, 52.9878044, 11.8902445, 2.1341465, -0.0179599
0.5214844, -0.2045898, -0.6772461, 49.9390259, 11.9512196, 3.2926829, -0.0109102
0.53125, -0.2470703, -0.6748047, 48.3536606, 12.4390249, 2.5, 0.0036927
0.5224609, -0.2763672, -0.6547852, 45.3048782, 12.1341467, 0.8536586, 0.0137636
0.4873047, -0.3129883, -0.6123047, 44.0243912, 9.3902445, -0.1219512, 0.0387732
0.4868164, -0.3173828, -0.5922852, 43.9634171, 7.6219516, -0.1219512, 0.051194
0.5068359, -0.3017578, -0.6044922, 43.9634171, 5.8536587, 0.4878049, 0.0542153
0.5126953, -0.2890625, -0.6279297, 43.4756126, 6.2195125, 1.1585366, 0.0562295
0.5288086, -0.2636719, -0.6831055, 40.7926826, 8.1707315, 2.3170731, 0.0464942
0.5307617, -0.2563477, -0.6958008, 38.5365868, 9.0853662, 2.9878049, 0.040116
0.5239258, -0.2602539, -0.6650391, 33.3536606, 7.3170733, 1.8292683, 0.026688
0.5078125, -0.277832, -0.6298828, 30.9146347, 5.1829271, 0.4268293, 0.0206455
0.4980469, -0.3227539, -0.5541992, 28.841465, 0, -1.8292683, 0.0085603
0.519043, -0.3525391, -0.5249023, 29.6341476, -2.4390244, -2.2560976, -0.002182
0.5336914, -0.3676758, -0.5351562, 30.1829281, -2.804878, -2.0121951, -0.0102388
0.5527344, -0.3886719, -0.5839844, 30.3658543, -0.8536586, -0.6097561, -0.0223239
0.5473633, -0.375, -0.6123047, 30.5487804, 0.7317073, 0.0609756, -0.0253452
0.5170898, -0.3125, -0.6445312, 29.8170738, 2.1341465, 1.402439, -0.0283665
0.5014648, -0.2851562, -0.6484375, 28.6585369, 1.5853659, 1.7682927, -0.0347448
0.4746094, -0.2695312, -0.6147461, 24.7560978, -1.7682927, 0.7926829, -0.0414588
0.4672852, -0.2792969, -0.5825195, 23.2317085, -4.0243902, -0.0609756, -0.051194
0.4790039, -0.3193359, -0.5258789, 21.9512196, -8.2926826, -1.4634147, -0.0599222
0.496582, -0.3378906, -0.5039062, 21.9512196, -9.3292685, -1.3414634, -0.0656291
0.546875, -0.3662109, -0.4907227, 22.1951218, -9.5731707, -0.9146342, -0.0706645
0.5717773, -0.3950195, -0.5092773, 21.9512196, -7.9878049, -0.7317073, -0.0720073
0.5717773, -0.4057617, -0.5263672, 22.0121956, -7.0121951, -0.6097561, -0.0767071
0.5512695, -0.3950195, -0.5668945, 21.8292694, -6.6463418, -0.8536586, -0.0793927
0.5292969, -0.3798828, -0.5830078, 21.6463413, -6.8292685, -0.9756098, -0.0780499
0.484375, -0.3212891, -0.597168, 20.6097565, -9.4512196, -1.4634147, -0.0763714
0.4750977, -0.2939453, -0.6044922, 19.7560978, -11.219512, -1.1585366, -0.0713359
0.4667969, -0.2680664, -0.5981445, 17.1951218, -14.6341467, -1.1585366, -0.0632792
0.4716797, -0.2763672, -0.5917969, 15.1829271, -16.280489, -1.5853659, -0.0575723
0.4931641, -0.3178711, -0.5419922, 11.7073174, -19.1463413, -2.3170731, -0.0498512
0.5141602, -0.3369141, -0.5102539, 10.4268293, -20.060976, -3.0487804, -0.0392767
0.5610352, -0.3486328, -0.4428711, 8.4756098, -20.9756107, -3.9024391, -0.03122
0.6225586, -0.3300781, -0.4165039, 6.5243902, -19.8780499, -3.5975611, -0.0270237
0.659668, -0.3330078, -0.4243164, 5.1219511, -17.6829281, -3.4146342, -0.0243381
0.699707, -0.3583984, -0.4589844, 1.6463414, -12.0731707, -3.9024391, -0.0206455
0.6938477, -0.3686523, -0.4667969, 0, -10, -4.7560978, -0.0240024
0.6279297, -0.3725586, -0.4511719, -2.1341465, -7.5, -6.890244, -0.0253452
0.5952148, -0.3652344, -0.4453125, -2.5609756, -7.8048782, -8.0487804, -0.0246738
0.5351562, -0.3530273, -0.472168, -2.5, -9.5731707, -9.3902445, -0.018967
0.5092773, -0.3510742, -0.5288086, -2.0731707, -10.1219511, -9.3292685, -0.0162814
0.4526367, -0.3500977, -0.6704102, -2.7439024, -9.5121956, -6.7073174, -0.0095674
0.4238281, -0.3432617, -0.7128906, -4.2682929, -9.1463413, -4.5731707, -0.0041962
0.3740234, -0.3266602, -0.6665039, -10.6707315, -11.7073174, -2.4390244, 0.0008392
0.3579102, -0.3085938, -0.5258789, -15.7317076, -20.6097565, -2.3170731, 0.0058747
0.3911133, -0.3032227, -0.4858398, -15.8536587, -24.6951218, -1.2195122, 0.0092317
0.5097656, -0.3012695, -0.4838867, -14.7560978, -26.4024391, 0.4268293, 0.0394446
0.5561523, -0.3051758, -0.5019531, -15.6097565, -24.2682934, 1.2195122, 0.073518
0.6010742, -0.3232422, -0.4985352, -19.3902435, -18.5975609, 1.3414634, 0.079057
0.5976562, -0.3393555, -0.4936523, -21.0365868, -17.2560978, 1.402439, 0.068986
0.565918, -0.375, -0.5117188, -22.6829281, -16.5853653, 1.3414634, 0.0575723
0.5454102, -0.3881836, -0.5263672, -23.0487804, -16.9512196, 1.402439, 0.0527047
0.4902344, -0.378418, -0.5395508, -23.3536587, -19.0853672, 0.6707317, 0.0780499
0.4614258, -0.355957, -0.5405273, -23.4146347, -21.0975609, 0.4268293, 0.1072557
0.4404297, -0.3144531, -0.5546875, -23.8414631, -26.2195129, 0.7317073, 0.114641
0.4584961, -0.2880859, -0.5571289, -25.1829281, -29.3902454, 0.4268293, 0.0971847
0.4741211, -0.2832031, -0.5375977, -26.0975609, -30.4878063, 0.0609756, 0.0663005
0.5063477, -0.2890625, -0.4580078, -28.5365868, -31.8902454, -0.8536586, 0.036759
0.5273438, -0.2963867, -0.4335938, -29.1463413, -32.3170738, -1.0365853, 0.0092317
0.5761719, -0.3168945, -0.4477539, -28.841465, -30.9146347, -1.3414634, -0.0095674
0.597168, -0.3256836, -0.4785156, -28.9024391, -29.1463413, -1.8902439, -0.0229953
0.5825195, -0.3256836, -0.5390625, -31.5243912, -24.8780499, -2.3780489, -0.0414588
0.5585938, -0.3095703, -0.5454102, -34.0243912, -23.4146347, -2.6219513, -0.0528725
0.5136719, -0.2607422, -0.4990234, -39.8780479, -24.2073174, -1.8292683, -0.0673075
0.5078125, -0.25, -0.4707031, -42.4390259, -25.8536587, -1.6463414, -0.090135
0.5175781, -0.2734375, -0.465332, -44.9390259, -28.2926826, -2.5, -0.1015488
0.5161133, -0.3188477, -0.5732422, -45.0609779, -28.2926826, -3.1707318, -0.1049058
0.5048828, -0.3237305, -0.6352539, -45.0609779, -27.4390259, -2.3780489, -0.0961776
0.4521484, -0.3012695, -0.6923828, -48.9024391, -27.1341476, -2.195122, -0.0847639
0.4179688, -0.2832031, -0.6655273, -52.3170738, -28.4146347, -2.9878049, -0.0424659
0.359375, -0.2626953, -0.581543, -57.8048782, -35.3048782, -3.6585367, -0.0062104
0.3569336, -0.2729492, -0.5522461, -58.4146347, -38.9634171, -3.3536587, -0.0045319
0.3886719, -0.3046875, -0.5507812, -57.5, -43.6585388, -1.8902439, -0.0125887
0.4077148, -0.3144531, -0.559082, -57.0731735, -44.1463432, -1.2195122, -0.01561
0.4423828, -0.3056641, -0.5498047, -58.2926826, -44.0243912, -0.8536586, -0.0182956
0.4550781, -0.2949219, -0.5366211, -59.6951218, -44.0853653, -0.7317073, -0.0176242
0.4829102, -0.28125, -0.5341797, -60.8536606, -44.7560997, 0.2439024, -0.0193027
0.4897461, -0.2924805, -0.6025391, -61.5853691, -45.1219521, 0, -0.0250095
0.4790039, -0.3007812, -0.6391602, -61.7073174, -45, -0.1219512, -0.0280308
0.4375, -0.300293, -0.6660156, -63.7804909, -45.7317085, -1.097561, -0.0256809
0.40625, -0.2944336, -0.6391602, -65.5487823, -47.1341476, -1.8902439, -0.0218204
0.3579102, -0.2705078, -0.5600586, -67.8048782, -52.6219521, -2.8658538, -0.0209812
0.3613281, -0.2670898, -0.5366211, -68.0487823, -55.3658562, -2.5, -0.0250095
0.4082031, -0.265625, -0.5400391, -66.5243912, -58.4146347, -1.5243902, -0.0313878
0.4370117, -0.2695312, -0.5517578, -66.2804871, -58.2926826, -0.7926829, -0.0344091
0.4765625, -0.2578125, -0.5668945, -67.9878082, -56.0975609, -0.4878049, -0.0404517
0.4941406, -0.2446289, -0.5615234, -69.6951218, -55.18293, -0.7926829, -0.0485084
0.4980469, -0.2358398, -0.5600586, -72.6219559, -53.0487823, -1.5243902, -0.0518654
0.5112305, -0.2255859, -0.5805664, -74.6951218, -52.2560997, -2.7439024, -0.0513619
0.5087891, -0.2260742, -0.5883789, -75.6097565, -51.341465, -3.7804878, -0.0552224
0.4897461, -0.2265625, -0.5761719, -78.5365906, -49.9390259, -6.890244, -0.0626078
0.4785156, -0.2382812, -0.5615234, -79.8780518, -49.8780518, -8.4146347, -0.070161
0.4453125, -0.2524414, -0.5493164, -81.8292694, -49.4512215, -10.4268293, -0.0757
0.4287109, -0.2583008, -0.5634766, -81.7682953, -49.5731735, -10.2439022, -0.0820783
0.4008789, -0.2578125, -0.6547852, -81.2195129, -49.2682953, -7.3780489, -0.0867781
0.3901367, -0.2548828, -0.7114258, -81.2195129, -48.9634171, -6.0365853, -0.0889601
0.3500977, -0.2509766, -0.8027344, -84.6951218, -48.6585388, -3.9634147, -0.093492
0.2993164, -0.2470703, -0.8168945, -87.6219559, -49.5121956, -3.4756098, -0.0941634
0.2685547, -0.2451172, -0.796875, -93.0487823, -54.2073174, -3.9634147, -0.1018845
0.2363281, -0.237793, -0.7226562, -94.5121994, -61.6463432, -3.6585367, -0.1109483
0.2421875, -0.222168, -0.690918, -94.6341476, -65.4268341, -3.0487804, -0.1129625
0.2797852, -0.2011719, -0.6733398, -92.6219559, -69.8170776, -1.3414634, -0.1163195
0.309082, -0.2050781, -0.6816406, -91.9512253, -70.1219559, -0.2439024, -0.1075914
0.3706055, -0.2275391, -0.71875, -91.7682953, -68.9634171, 0.9756098, -0.0928206
0.387207, -0.2363281, -0.7285156, -92.3780518, -68.2317123, 1.2195122, -0.0679789
0.3852539, -0.2568359, -0.7304688, -95.18293, -67.3780518, 0.6707317, -0.0527047
0.3798828, -0.2539062, -0.7231445, -95.5487823, -68.0487823, 0.7926829, -0.0471656
0.3720703, -0.2421875, -0.7182617, -95.1219559, -70, 0.9146342, -0.0377661
0.3540039, -0.2124023, -0.7094727, -94.6951218, -71.2195129, 0.8536586, -0.0258488
0.3496094, -0.2011719, -0.7070312, -94.6341476, -73.2926865, -0.1829268, -0.0099031
0.3486328, -0.1943359, -0.715332, -94.3292694, -74.3292694, -1.2804878, 0.0139315
0.3540039, -0.190918, -0.7211914, -94.3292694, -74.3902435, -1.5243902, 0.0307164
0.3754883, -0.1870117, -0.7182617, -94.5121994, -74.6951218, -2.6219513, 0.0345769
0.3876953, -0.1831055, -0.6972656, -95.6097565, -74.7560959, -3.4146342, 0.0386053
0.4174805, -0.1831055, -0.6279297, -97.8658524, -74.6951218, -6.0975609, 0.0360876
0.4326172, -0.1733398, -0.5976562, -98.9024429, -74.0243912, -7.3170733, 0.0273594
0.4853516, -0.1513672, -0.5810547, -99.2073212, -69.7560959, -7.8048782, 0.0223239
0.5175781, -0.1494141, -0.6040039, -99.5731735, -66.5853653, -7.9268293, 0.0162814
0.5576172, -0.1411133, -0.6835938, -101.3414688, -58.5365868, -8.5975609, 0.0099031
0.5463867, -0.1503906, -0.7802734, -103.4756088, -53.9024391, -9.4512196, -0.0008392
0.5302734, -0.1542969, -0.8168945, -109.3292694, -47.6219521, -11.6463413, -0.0068818
0.4423828, -0.1611328, -0.8408203, -115.18293, -44.3902435, -15.1219511, -0.0105745
0.3857422, -0.1640625, -0.8354492, -117.9878082, -44.6951218, -16.7682934, -0.012253
0.2749023, -0.1655273, -0.8208008, -120.9146347, -48.2926826, -16.8292694, -0.0109102
0.2290039, -0.1772461, -0.8344727, -120.1219559, -50.5487823, -15.5487804, -0.008896
0.1679688, -0.2446289, -0.9453125, -114.6341476, -56.8292694, -11.0975609, -0.0085603
0.1401367, -0.2788086, -1.0151367, -111.2195129, -60, -8.2317076, -0.0105745
0.1000977, -0.2836914, -1.0620117, -109.2682953, -67.5, -4.5731707, -0.0176242
0.0825195, -0.2714844, -1.0039062, -111.3414688, -72.0121994, -5, -0.0250095
0.0600586, -0.222168, -0.8032227, -116.4024429, -83.3536606, -6.4024391, -0.0310521
0.1254883, -0.1889648, -0.6743164, -115.2439041, -88.8414688, -4.8170733, -0.0384375
0.2070312, -0.1835938, -0.671875, -105.6707306, -95.0609741, 2.9268293, -0.0464942
0.3833008, -0.1738281, -0.7416992, -95.5487823, -92.6219559, 7.8048782, -0.0572366
0.440918, -0.1708984, -0.7822266, -94.2682953, -88.8414688, 7.3780489, -0.0548867
0.4633789, -0.171875, -0.8100586, -97.68293, -80.5487823, 4.0243902, -0.0421302
0.4541016, -0.1743164, -0.7978516, -100.5487823, -78.1097565, 3.2317073, -0.0399481
0.4194336, -0.1914062, -0.7441406, -103.1707306, -75.9756088, 2.3780489, -0.0377661
0.4072266, -0.1958008, -0.7226562, -102.7439041, -76.1585388, 1.7682927, -0.0330663
0.3793945, -0.1933594, -0.7119141, -99.0243912, -76.5243912, -0.1829268, -0.0236667
0.3637695, -0.1811523, -0.7382812, -96.7073212, -76.9512177, -1.1585366, -0.0162814
0.3408203, -0.1533203, -0.8398438, -92.5609741, -76.5853653, -0.9756098, -0.002182
0.3276367, -0.1049805, -0.9277344, -91.5243912, -75.8536606, -0.9756098, 0.0102388
0.3242188, -0.074707, -0.9453125, -93.8414688, -74.3292694, -2.3780489, 0.0179599
0.2905273, -0.012207, -0.9370117, -98.9024429, -74.5121994, -5.7926831, 0.0229953
0.2758789, 0.0102539, -0.9233398, -100.9756088, -75.4878082, -6.5853658, 0.026688
0.2973633, 0.0209961, -0.902832, -103.0487823, -77.9268341, -6.5243902, 0.0263523
0.3232422, 0.0126953, -0.9067383, -103.6585388, -78.3536606, -6.9512196, 0.0280308
0.3652344, -0.0126953, -0.9179688, -105.4878082, -76.5243912, -8.9634151, 0.0290379
0.3710938, -0.0268555, -0.9301758, -106.5853653, -74.9390259, -10.1219511, 0.0206455
0.3642578, -0.0419922, -0.9746094, -109.8170776, -71.8292694, -10.9146347, 0.0119173
0.3588867, -0.0483398, -1.0092773, -111.7073212, -70.6707306, -10.3658543, 0.0008392
0.3378906, -0.0463867, -1.0458984, -116.8292694, -70.0609741, -9.8170738, -0.0102388
0.2895508, -0.043457, -1.0200195, -119.7561035, -69.6951218, -10.7926836, -0.0219883
0.2495117, -0.0561523, -0.9980469, -122.5, -71.7073212, -12.9878054, -0.0364233
0.1689453, -0.0717773, -1.0136719, -118.6585388, -77.2560959, -12.1951218, -0.054551
0.1464844, -0.0771484, -1.0512695, -115.6097565, -80.7317123, -9.9390249, -0.0616007
0.1459961, -0.0942383, -1.0908203, -112.3780518, -87.68293, -8.2317076, -0.068986
0.1469727, -0.097168, -1.0703125, -112.3170776, -91.1585388, -9.6951218, -0.0753643
0.1118164, -0.0961914, -0.9667969, -112.8048782, -98.1707306, -12.8048782, -0.0649577
0.097168, -0.0966797, -0.9194336, -111.4634171, -101.8292694, -12.1341467, -0.0431373
0.1333008, -0.1088867, -0.9248047, -103.9024429, -106.5853653, -6.0975609, -0.002182
0.168457, -0.1098633, -0.9741211, -99.0243912, -107.2561035, -2.8658538, 0.0285344
0.2124023, -0.0751953, -1.0688477, -93.1707306, -104.9390259, -0.7926829, 0.0481727
0.1958008, 0.003418, -1.0517578, -92.9268341, -103.9634171, -1.5243902, 0.0810712
0.1796875, 0.0317383, -1.0004883, -95.18293, -105.0609818, -3.2926829, 0.105745
0.1914062, 0.0327148, -0.8852539, -95.8536606, -110.2439041, -2.6829269, 0.0976883
0.2250977, 0.003418, -0.8642578, -93.9024429, -112.4390259, -1.8902439, 0.0622721
0.3115234, -0.0708008, -0.9282227, -87.2560959, -113.4756088, -0.7926829, 0.0139315
0.3417969, -0.0922852, -0.9916992, -83.7804871, -112.0731735, -1.2195122, -0.0260166
0.3237305, -0.0664062, -1.1157227, -79.9390259, -108.0487823, -4.6341462, -0.0693217
0.2734375, -0.0224609, -1.1655273, -80, -106.8292694, -7.1951222, -0.0881209
0.1459961, 0.0805664, -1.2260742, -82.1951218, -107.6219559, -10.5487804, -0.0844282
0.0927734, 0.1323242, -1.2329102, -83.5365906, -109.9390259, -11.341464, -0.0686503
0.0473633, 0.2163086, -1.2006836, -85.5487823, -116.2195129, -11.6463413, -0.0468299
0.0952148, 0.2333984, -1.1040039, -87.1951218, -119.2682953, -12.0121956, -0.0364233
0.1430664, 0.2045898, -1.043457, -92.0121994, -124.0243912, -13.2317076, -0.0305486
0.28125, 0.1088867, -0.9365234, -98.1707306, -123.7804871, -13.2926836, -0.024506
0.3564453, 0.0595703, -0.909668, -101.0975647, -120.8536606, -12.2560978, -0.018967
0.4946289, -0.0107422, -0.9628906, -104.2682953, -111.5853653, -9.6341467, -0.0109102
0.5400391, -0.0180664, -1.0395508, -105.6097565, -105.2439041, -9.2682924, -0.0015106
0.5224609, 0.0258789, -1.222168, -109.7561035, -92.68293, -12.0121956, -0.0025177
0.4482422, 0.0576172, -1.2880859, -112.9878082, -87.8048782, -15.9756098, -0.0041962
0.2104492, 0.1293945, -1.3208008, -120.6707382, -85.4268341, -24.1463413, -0.0062104
0.074707, 0.1635742, -1.2822266, -123.5975647, -88.9024429, -27.0731716, -0.0109102
-0.1181641, 0.1923828, -1.1333008, -126.4024429, -103.2317123, -28.841465, 0.0052033
-0.1362305, 0.1669922, -0.9379883, -123.1707382, -118.8414688, -26.3414631, 0.0193027
-0.0805664, 0.1347656, -0.8540039, -119.8780518, -123.8414688, -24.0243912, 0.0112459
0.1123047, 0.0185547, -0.7724609, -113.1707306, -125.6097565, -19.5121956, -0.0082246
0.2177734, -0.0507812, -0.7744141, -110.18293, -122.5, -17.1951218, -0.0370947
0.3730469, -0.1816406, -0.8422852, -106.3414688, -112.5, -14.1463413, -0.0627756
0.4140625, -0.2250977, -0.8901367, -105.3658524, -106.5243912, -13.780488, -0.0780499
0.3618164, -0.2211914, -0.9458008, -103.2926865, -96.0975647, -15.7926836, -0.0864424
0.2836914, -0.1674805, -0.9379883, -102.0731735, -93.2926865, -17.1951218, -0.0988632
0.0947266, -0.0253906, -0.8886719, -98.7804871, -94.3292694, -19.2682934, -0.1075914
0.0185547, 0.0317383, -0.8769531, -96.0975647, -97.7439041, -18.4146347, -0.111284
-0.0620117, 0.0571289, -0.9296875, -88.5975647, -106.1585388, -15.5487804, -0.1109483
-0.0512695, 0.0043945, -1.0546875, -80.4878082, -111.2804871, -13.780488, -0.1096056
-0.0561523, -0.0170898, -1.1132812, -77.5, -112.9268341, -13.4756098, -0.1092699
-0.0917969, -0.0068359, -1.2084961, -75, -116.9512253, -12.8658543, -0.1089342
-0.1142578, 0.0361328, -1.2407227, -75, -119.4512253, -11.8902445, -0.100206
-0.1206055, 0.1459961, -1.2568359, -77.0121994, -126.2195129, -7.6829271, -0.0882887
-0.1069336, 0.1953125, -1.2280273, -78.5975647, -130, -5.609756, -0.0787213
-0.0102539, 0.2373047, -1.1142578, -84.3902435, -136.7073212, -4.390244, -0.0730144
0.0512695, 0.2167969, -1.0498047, -87.8658524, -138.5365906, -5.2439027, -0.0673075
0.1816406, 0.1225586, -0.9541016, -93.4756088, -137.6219482, -7.3170733, -0.0602579
0.2392578, 0.0825195, -0.9257812, -94.2682953, -134.8780518, -7.7439027, -0.0520333
0.3378906, 0.065918, -0.9291992, -93.2317123, -127.3780518, -7.6829271, -0.0394446
0.3769531, 0.1367188, -0.9892578, -92.8658524, -120, -10, -0.026688
0.359375, 0.1743164, -1.046875, -94.3292694, -116.5853653, -12.0731707, -0.0186313
0.2685547, 0.2280273, -1.1577148, -99.2073212, -111.4634171, -17.0121956, -0.0015106
0.1982422, 0.2299805, -1.2006836, -102.2561035, -110.18293, -19.939024, 0.0146029
0.0307617, 0.2104492, -1.2275391, -108.5975647, -110.7317123, -24.8170738, 0.0318914
-0.0546875, 0.1982422, -1.2104492, -110.6707306, -112.8048782, -26.6463413, 0.0495155
-0.2060547, 0.1733398, -1.1518555, -111.0975647, -120.0609818, -27.4390259, 0.0508583
-0.2470703, 0.1625977, -1.1269531, -109.4512253, -124.6951218, -25.9146347, 0.0527047
-0.2421875, 0.1459961, -1.0859375, -104.146347, -132.5609741, -21.0365868, 0.0542153
-0.203125, 0.1459961, -1.059082, -101.4634171, -134.8780518, -18.6585369, 0.0468299
-0.1000977, 0.1582031, -0.9746094, -98.7195129, -135.9756165, -15.2439032, 0.0397803
0.0268555, 0.1738281, -0.887207, -97.6219559, -132.6219482, -11.8902445, 0.0337377
0.0942383, 0.1723633, -0.8720703, -97.0731735, -129.8170776, -10, 0.0240024
0.1943359, 0.1323242, -0.9082031, -95.8536606, -122.1341476, -7.8658538, 0.0105745
0.2197266, 0.1025391, -0.9521484, -94.8170776, -117.1951218, -8.1707315, 0.0058747
0.1679688, 0.1015625, -1.0249023, -93.1707306, -108.2926865, -11.5853662, 0.002182
0.0986328, 0.1235352, -1.0375977, -92.7439041, -105.3048782, -14.0853662, -0.0028534
-0.0693359, 0.1962891, -1.0141602, -92.68293, -105.3048782, -17.439024, -0.0125887
-0.1376953, 0.2382812, -0.9902344, -92.1951218, -107.1951218, -17.3780499, -0.0206455
-0.1933594, 0.2807617, -0.9682617, -88.5365906, -110.7926865, -14.8170738, -0.0310521
-0.1865234, 0.2827148, -0.9775391, -86.1585388, -111.3414688, -12.8658543, -0.0364233
-0.137207, 0.2597656, -1.0273438, -81.9512177, -109.8170776, -10.2439022, -0.0404517
-0.0927734, 0.2294922, -1.0688477, -81.2804871, -106.9512253, -9.4512196, -0.0485084
-0.0830078, 0.21875, -1.0805664, -81.3414688, -105.7926865, -9.6341467, -0.0518654
-0.0883789, 0.2021484, -1.1079102, -82.7439041, -104.3902435, -9.0243902, -0.0491798
-0.0947266, 0.1962891, -1.1313477, -82.7439041, -104.2682953, -8.780488, -0.04448
-0.1342773, 0.2167969, -1.1796875, -81.7682953, -105.3048782, -9.0243902, -0.036759
-0.159668, 0.2460938, -1.1933594, -81.2804871, -106.3414688, -9.3902445, -0.0179599
-0.2011719, 0.3105469, -1.1630859, -82.0731735, -110.0609818, -10.3658543, -0.0077211
-0.2055664, 0.331543, -1.1308594, -83.3536606, -112.0731735, -10.3048782, 0.002182
-0.1875, 0.3261719, -1.0493164, -87.1951218, -115, -10.060976, 0.0070497
-0.152832, 0.2963867, -1.0161133, -88.9634171, -115.1219559, -9.3902445, 0.0172885
-0.0722656, 0.2216797, -1.0014648, -89.6951218, -112.0121994, -7.5609756, 0.0414588
-0.0136719, 0.2021484, -1.0546875, -87.6219559, -106.9512253, -5.9146342, 0.061265
-0.0097656, 0.230957, -1.1098633, -87.0731735, -105.7317123, -5.8536587, 0.0777142
-0.046875, 0.3125, -1.2148438, -88.6585388, -106.5243912, -7.2560978, 0.0918135
-0.0859375, 0.347168, -1.2402344, -91.0365906, -108.1097565, -8.5975609, 0.0941634
-0.1669922, 0.3505859, -1.2226562, -97.2561035, -112.8048782, -12.7439032, 0.0914778
-0.2167969, 0.3261719, -1.1821289, -99.6951218, -114.6951218, -14.7560978, 0.0894636
-0.2919922, 0.2539062, -1.0551758, -101.0975647, -117.6219559, -17.0731716, 0.0840925
-0.3173828, 0.2241211, -0.9995117, -99.146347, -118.5975647, -16.8902435, 0.0669718
-0.3120117, 0.2070312, -0.9467773, -90.9756088, -121.1585388, -13.1707315, 0.043473
-0.2402344, 0.2412109, -0.9619141, -85.7317123, -122.2561035, -10.6097565, 0.0152743
-0.1918945, 0.2680664, -0.9741211, -78.1097565, -124.0243912, -6.5853658, -0.0142672
-0.1113281, 0.3085938, -0.9750977, -77.0121994, -122.0731735, -6.8292685, -0.043473
-0.0874023, 0.3100586, -0.9545898, -78.2317123, -119.8780518, -7.5609756, -0.0706645
-0.0708008, 0.2885742, -0.9316406, -80.0609741, -114.2073212, -8.4146347, -0.0928206
-0.0668945, 0.2709961, -0.9301758, -80, -111.5243912, -8.5975609, -0.1116197
-0.0849609, 0.2597656, -0.9501953, -77.68293, -107.2561035, -9.0243902, -0.1240406
-0.1044922, 0.2753906, -0.9609375, -75.9146347, -106.3414688, -9.3292685, -0.1341115
-0.159668, 0.3359375, -0.9887695, -73.7804871, -105.5487823, -10.6707315, -0.1381399
-0.1894531, 0.371582, -1.0087891, -73.3536606, -105.18293, -10.5487804, -0.1386435
-0.2192383, 0.4326172, -1.0869141, -74.1463394, -103.6585388, -8.9024391, -0.1404898
-0.2275391, 0.4824219, -1.1611328, -75.4878082, -102.1341476, -7.8658538, -0.1374685
-0.2270508, 0.5073242, -1.1811523, -80.18293, -98.5975647, -5.8536587, -0.142504
-0.215332, 0.5332031, -1.199707, -87.68293, -96.9512253, -6.890244, -0.1351186
-0.21875, 0.5273438, -1.2041016, -91.4024429, -96.5853653, -7.8658538, -0.1257191
-0.2138672, 0.4780273, -1.2036133, -97.6219559, -96.8292694, -10.7926836, -0.1169909
-0.2241211, 0.440918, -1.2021484, -99.4512253, -97.3780518, -12.5, -0.1028916
-0.2685547, 0.3662109, -1.1850586, -101.4634171, -99.4512253, -16.0365849, -0.0864424
-0.2988281, 0.3227539, -1.1625977, -102.1951218, -101.3414688, -17.9268303, -0.0753643
-0.3769531, 0.2402344, -1.074707, -102.68293, -105.4878082, -21.3414631, -0.0686503
-0.4091797, 0.2114258, -1.0102539, -101.5853653, -107.3780518, -22.1341476, -0.066804
-0.4462891, 0.2050781, -0.8764648, -96.1585388, -110.9756088, -19.2682934, -0.0696574
-0.3935547, 0.2675781, -0.800293, -91.4024429, -112.6219559, -16.0365849, -0.0693217
-0.3325195, 0.3032227, -0.8125, -81.7073212, -113.3536606, -6.5853658, -0.064622
-0.1948242, 0.3481445, -0.8979492, -75.3048782, -108.7804871, -1.097561, -0.06009
-0.1503906, 0.3554688, -0.9521484, -74.8170776, -105.3658524, -0.6097561, -0.0582437
-0.1298828, 0.3554688, -1.0273438, -77.9268341, -97.3780518, -1.7682927, -0.0525368
-0.1494141, 0.3569336, -1.0424805, -80.0609741, -94.3902435, -2.5609756, -0.0438087
-0.2329102, 0.3388672, -1.0488281, -84.0243912, -92.5609741, -4.0853658, -0.0364233
-0.2802734, 0.3330078, -1.0439453, -84.146347, -93.9634171, -4.5731707, -0.0246738
-0.3647461, 0.3237305, -1.0546875, -81.9512177, -98.9634171, -5.5487804, -0.0149386
-0.3989258, 0.3339844, -1.0654297, -79.5731735, -101.9512253, -5.3658538, -0.0065461
-0.440918, 0.3793945, -1.1005859, -73.5975647, -108.3536606, -4.0853658, 0.0018463
-0.4448242, 0.4375, -1.152832, -70.9756088, -111.7682953, -3.5975611, 0.0078889
-0.4311523, 0.4624023, -1.1777344, -68.1097565, -117.0121994, -2.2560976, 0.0132601
-0.4013672, 0.5161133, -1.203125, -69.3902435, -119.9390259, -2.6219513, 0.0224918
-0.3867188, 0.5415039, -1.190918, -70.7317123, -121.0365906, -3.0487804, 0.0307164
-0.3496094, 0.5761719, -1.1298828, -75, -121.9512253, -5.5487804, 0.0379339
-0.3291016, 0.5722656, -1.0913086, -77.5, -122.2561035, -6.9512196, 0.0532082
-0.2719727, 0.5249023, -1.0302734, -82.0731735, -121.3414688, -8.2317076, 0.0837568
-0.246582, 0.4868164, -1.0048828, -83.6585388, -120, -8.9634151, 0.1193408
-0.2124023, 0.4223633, -0.9477539, -85.7926865, -115.7926865, -10.9146347, 0.117998
-0.2094727, 0.4023438, -0.9155273, -86.5243912, -113.4756088, -11.8292685, 0.0978561
-0.2314453, 0.3774414, -0.8759766, -87.6219559, -108.5975647, -12.4390249, 0.0730144
-0.262207, 0.3730469, -0.8754883, -87.68293, -106.4634171, -12.2560978, 0.0748608
-0.2744141, 0.3793945, -0.8959961, -86.2804871, -101.1585388, -9.9390249, 0.0918135
-0.3144531, 0.4311523, -0.9575195, -84.6341476, -96.1585388, -7.4390244, 0.082414
-0.3364258, 0.4570312, -0.9960938, -84.7560959, -94.0853653, -6.5243902, 0.0572366
-0.3945312, 0.4990234, -1.0717773, -86.4024429, -91.7073212, -4.8170733, 0.0293736
-0.4155273, 0.5087891, -1.109375, -87.6219559, -90.9146347, -4.6341462, -0.0001678
-0.4726562, 0.5205078, -1.1655273, -88.7195129, -91.4024429, -4.5731707, -0.0209812
-0.4980469, 0.5268555, -1.1621094, -88.9024429, -92.9268341, -5, -0.0344091
-0.5405273, 0.5361328, -1.0878906, -89.7560959, -98.1097565, -7.0731707, -0.0471656
-0.5522461, 0.5283203, -1.0283203, -90.2439041, -100.4878082, -8.1097565, -0.0585794
-0.5336914, 0.484375, -0.8886719, -90.9756088, -103.5365906, -9.5121956, -0.0592508
-0.4580078, 0.4174805, -0.7783203, -90.3048782, -103.1097565, -9.2682924, -0.063447
-0.4086914, 0.390625, -0.7519531, -87.68293, -100.2439041, -6.8292685, -0.0632792
-0.3046875, 0.3525391, -0.7714844, -83.8414688, -96.0975647, -3.0487804, -0.0626078
-0.2685547, 0.3461914, -0.8208008, -82.3780518, -93.4756088, -1.2804878, -0.0788891
-0.2524414, 0.3579102, -0.9697266, -80.3048782, -87.9878082, 0.3658537, -0.090135
-0.2783203, 0.3886719, -1.0390625, -80.18293, -85.3048782, 0.3048781, -0.0975204
-0.3774414, 0.4726562, -1.112793, -81.5243912, -83.5365906, -1.8902439, -0.0997024
-0.4443359, 0.5205078, -1.1040039, -82.9268341, -83.9634171, -3.6585367, -0.0877852
-0.5498047, 0.5883789, -0.9887695, -86.1585388, -88.2317123, -5.9756098, -0.0686503
-0.5708008, 0.5864258, -0.909668, -87.3170776, -91.2195129, -6.4024391, -0.0552224
-0.5302734, 0.5288086, -0.7783203, -86.4024429, -95.0609741, -6.0975609, -0.0458228
-0.4267578, 0.4243164, -0.7729492, -84.6951218, -95.3658524, -4.8780489, -0.0391089
-0.3691406, 0.3818359, -0.828125, -79.5121994, -94.0243912, -1.5243902, -0.0317235
-0.293457, 0.3413086, -0.9931641, -75.3048782, -92.1951218, 1.4634147, -0.0206455
-0.2861328, 0.3432617, -1.0712891, -74.8170776, -91.5853653, 1.5243902, -0.0184634
-0.3496094, 0.4008789, -1.1533203, -77.5609741, -90.6707306, -1.5853659, -0.0142672
-0.4169922, 0.4384766, -1.1464844, -80.5487823, -90.4878082, -4.4512196, -0.0043641
-0.5654297, 0.5048828, -1.0639648, -85.18293, -93.5365906, -8.1707315, -0.0011749
-0.6171875, 0.5239258, -1.0087891, -85.7317123, -96.8902435, -8.4146347, 0.0010071
-0.6308594, 0.5253906, -0.9111328, -82.1951218, -104.8780518, -6.4024391, 0.0045319
-0.6005859, 0.5161133, -0.8730469, -79.146347, -108.7195129, -5.5487804, 0.0152743
-0.4956055, 0.512207, -0.8540039, -74.0853653, -113.0487823, -3.9024391, 0.0253452
-0.3955078, 0.5180664, -0.8818359, -72.8658524, -113.0487823, -3.6585367, 0.0320592
-0.3510742, 0.5258789, -0.9091797, -72.9268341, -108.8414688, -2.0731707, 0.0330663
-0.3076172, 0.5512695, -0.9599609, -76.0975647, -102.5, -1.8292683, 0.0313878
-0.3134766, 0.5571289, -0.972168, -78.4146347, -99.2682953, -2.804878, 0.03122
-0.3720703, 0.5668945, -0.9697266, -83.7804871, -93.7195129, -5.3048782, 0.0276951
-0.4160156, 0.5644531, -0.9550781, -86.1585388, -92.3780518, -6.7682929, 0.0109102
-0.4960938, 0.5322266, -0.9101562, -89.0243912, -91.7682953, -8.4146347, 0.0010071
-0.5292969, 0.5161133, -0.8833008, -89.4512253, -92.68293, -8.5365858, 0.0018463
-0.5610352, 0.4941406, -0.8344727, -87.6219559, -94.5121994, -8.4146347, 0.0078889
-0.5649414, 0.4951172, -0.8178711, -86.0975647, -95.18293, -7.5609756, 0.0151064
-0.5385742, 0.5180664, -0.7958984, -82.8048782, -95.1219559, -4.2682929, 0.0253452
-0.4829102, 0.559082, -0.7993164, -81.8292694, -94.6341476, -2.5, 0.0320592
-0.4550781, 0.5688477, -0.8115234, -82.1341476, -90.9756088, 0.2439024, 0.0404517
-0.4204102, 0.5717773, -0.8310547, -84.5121994, -85.4878082, 0.8536586, 0.0320592
-0.4150391, 0.5605469, -0.8427734, -86.0975647, -82.1951218, 0.6707317, 0.0196384
-0.4526367, 0.543457, -0.8608398, -88.1707306, -77.4390259, -0.7317073, 0.0159457
-0.4814453, 0.5375977, -0.8666992, -89.2073212, -76.1585388, -1.1585366, 0.0381018
-0.5366211, 0.5185547, -0.8710938, -89.6951218, -76.0365906, -1.8902439, 0.0730144
-0.5712891, 0.5161133, -0.8676758, -89.4512253, -76.5853653, -1.7073171, 0.0733501
-0.6171875, 0.5195312, -0.8535156, -88.7195129, -77.68293, -1.5243902, 0.0663005
-0.6259766, 0.5288086, -0.8442383, -88.4146347, -78.2317123, -0.7317073, 0.0491798
-0.6201172, 0.5463867, -0.8295898, -87.3780518, -78.6585388, 2.0121951, 0.027863
-0.5834961, 0.5566406, -0.840332, -86.8902435, -78.9024429, 4.8170733, -0.002182
-0.5541992, 0.5541992, -0.8535156, -86.7073212, -78.9634171, 5.7926831, -0.0270237
-0.5258789, 0.5385742, -0.8945312, -87.4390259, -78.6585388, 6.0365853, -0.018967
-0.5195312, 0.5351562, -0.9199219, -87.9268341, -78.5975647, 5.7926831, 0.0213169
-0.5375977, 0.5317383, -0.9550781, -89.7560959, -79.6341476, 4.9390244, 0.0166171
-0.5507812, 0.5380859, -0.9619141, -90.7926865, -80.6707306, 4.4512196, -0.008896
-0.5893555, 0.565918, -0.9560547, -92.6219559, -83.9024429, 4.0853658, -0.0323949
-0.6040039, 0.5693359, -0.9487305, -93.1707306, -86.1585388, 4.0853658, -0.0532082
-0.6186523, 0.5649414, -0.9487305, -93.4756088, -91.3414688, 4.6951222, -0.0683146
-0.6142578, 0.5585938, -0.9443359, -92.9268341, -93.7804871, 4.6951222, -0.0733501
-0.5966797, 0.5625, -0.9135742, -92.68293, -97.0731735, 3.4146342, -0.0814069
-0.5888672, 0.6123047, -0.8500977, -92.1341476, -99.4512253, 2.3170731, -0.0975204
-0.5776367, 0.6386719, -0.8183594, -92.0121994, -100.4268341, 2.6829269, -0.110277
-0.5253906, 0.6723633, -0.7675781, -92.0731735, -101.2804871, 4.3292685, -0.1166552
-0.487793, 0.65625, -0.7553711, -92.9878082, -100.7926865, 4.9390244, -0.1210193
-0.440918, 0.5942383, -0.7436523, -94.5121994, -97.3170776, 3.8414636, -0.128069
-0.4394531, 0.5620117, -0.7460938, -95.4268341, -94.146347, 2.5, -0.1331044
-0.4897461, 0.5234375, -0.7412109, -95.3048782, -89.3292694, 0.3048781, -0.1344472
-0.5292969, 0.527832, -0.7421875, -94.3902435, -88.0487823, -0.0609756, -0.1317617
-0.6005859, 0.5625, -0.7319336, -90.6707306, -87.2560959, 0.4268293, -0.1285725
-0.6298828, 0.5844727, -0.7211914, -88.4146347, -87.5, 1.0365853, -0.1238727
-0.6630859, 0.6318359, -0.6948242, -85.3658524, -87.5609741, 1.7682927, -0.1206836
-0.6567383, 0.6489258, -0.6591797, -83.3536606, -86.4634171, 2.7439024, -0.1210193
-0.6401367, 0.6464844, -0.6469727, -82.5, -85.2439041, 3.6585367, -0.124712
-0.5898438, 0.6293945, -0.6538086, -80.4878082, -82.4390259, 5.670732, -0.1277333
-0.5668945, 0.6264648, -0.6782227, -79.3902435, -80.2439041, 6.6463418, -0.1240406
-0.5332031, 0.621582, -0.7294922, -78.2926865, -76.2195129, 7.6219516, -0.1122911
-0.5322266, 0.6293945, -0.7480469, -77.9268341, -74.5121994, 7.3780489, -0.0944991
-0.5717773, 0.6508789, -0.7607422, -79.4512177, -70.7926865, 5.3048782, -0.0837568
-0.6020508, 0.6650391, -0.7514648, -80.9756088, -69.5731735, 4.6341462, -0.0877852
-0.6645508, 0.6816406, -0.722168, -82.5, -67.9268341, 3.8414636, -0.0850996
-0.6816406, 0.6860352, -0.7124023, -82.1341476, -67.7439041, 4.1463413, -0.0767071
-0.6879883, 0.6831055, -0.7143555, -79.8170776, -68.1097565, 5.5487804, -0.0659648
-0.6669922, 0.6748047, -0.7275391, -77.68293, -68.8414688, 6.9512196, -0.0562295
-0.6547852, 0.6679688, -0.7294922, -77.0121994, -68.8414688, 7.4390244, -0.0352483
-0.6352539, 0.65625, -0.7348633, -77.1951218, -68.6585388, 6.7073174, -0.0035248
-0.6269531, 0.6474609, -0.7407227, -77.5, -67.9268341, 6.0975609, 0.0229953
-0.6274414, 0.6430664, -0.7504883, -77.0121994, -66.7682953, 5.4268293, 0.0565652
-0.6279297, 0.6450195, -0.7514648, -76.5853653, -66.2195129, 5.3048782, 0.0965133
-0.6352539, 0.6655273, -0.762207, -75.3048782, -66.2195129, 5.5487804, 0.0985275
-0.6376953, 0.6787109, -0.7602539, -75.18293, -66.8292694, 5.3048782, 0.0783856
-0.6289062, 0.6860352, -0.7539062, -76.2195129, -67.6219559, 5, 0.04448
-0.6298828, 0.6850586, -0.75, -77.2560959, -67.8048782, 4.5121951, 0.0129244
-0.621582, 0.6743164, -0.7641602, -78.5365906, -67.8658524, 4.390244, -0.0102388
-0.6103516, 0.6582031, -0.7773438, -79.2682953, -68.2926865, 4.4512196, -0.0285344
-0.6142578, 0.6616211, -0.7788086, -79.6341476, -68.7804871, 4.6341462, -0.0350805
-0.6289062, 0.6435547, -0.7885742, -80.7317123, -70.6097565, 3.2317073, -0.0407874
-0.6420898, 0.6313477, -0.7900391, -81.2195129, -71.2804871, 2.5609756, -0.0397803
-0.6748047, 0.6147461, -0.7915039, -80.18293, -73.2317123, 1.6463414, -0.0364233
-0.6889648, 0.6118164, -0.7836914, -79.3292694, -74.7560959, 1.7073171, -0.0303807
-0.6972656, 0.6323242, -0.7602539, -76.8902435, -78.1707306, 1.8902439, -0.0290379
-0.6923828, 0.6518555, -0.7387695, -76.2195129, -79.7560959, 1.7682927, -0.0236667
-0.6538086, 0.6816406, -0.6816406, -75.3048782, -82.7439041, 1.8902439, -0.0191348
-0.6323242, 0.6904297, -0.6494141, -75.4878082, -83.3536606, 2.3170731, -0.0035248
-0.5703125, 0.684082, -0.6054688, -75.7926865, -82.8048782, 2.0731707, 0.0276951
-0.5283203, 0.6625977, -0.6064453, -75.4268341, -80.18293, 1.9512196, 0.0370947
-0.5161133, 0.6538086, -0.621582, -74.9390259, -78.2926865, 2.1341465, 0.0258488
-0.5263672, 0.6450195, -0.6494141, -74.1463394, -74.8170776, 1.2804878, 0.0058747
-0.5419922, 0.6469727, -0.6538086, -74.0243912, -73.3536606, 0.3048781, -0.0102388
-0.6010742, 0.6547852, -0.6401367, -74.4512177, -70.7926865, -1.5853659, -0.0216526
-0.6347656, 0.6513672, -0.6191406, -74.5121994, -70.3658524, -2.0121951, -0.0323949
-0.6640625, 0.6533203, -0.574707, -73.5975647, -70.4878082, -1.4634147, -0.0359197
-0.6655273, 0.6533203, -0.5634766, -71.8902435, -70.8536606, -0.8536586, -0.0310521
-0.6416016, 0.6577148, -0.5732422, -68.5365906, -71.4634171, 0.4878049, -0.0246738
-0.6293945, 0.6572266, -0.5996094, -67.0731735, -70.7926865, 1.0365853, 0.0083925
-0.6074219, 0.6777344, -0.6704102, -64.3902435, -69.0853653, 2.3780489, 0.0258488
-0.6030273, 0.7099609, -0.7158203, -63.7804909, -67.3170776, 2.5, 0.0213169
-0.6074219, 0.7207031, -0.7143555, -64.4512177, -66.4634171, 1.7682927, 0.0060426
-0.6259766, 0.7382812, -0.6787109, -66.4634171, -65.4878082, -0.8536586, -0.0102388
-0.6425781, 0.7382812, -0.6469727, -67.5, -65.2439041, -1.5853659, -0.0193027
-0.6577148, 0.7231445, -0.5922852, -67.9878082, -65.18293, -2.4390244, -0.0130922
-0.6557617, 0.7133789, -0.5805664, -67.4390259, -65.2439041, -2.1341465, -0.0078889
-0.6518555, 0.7011719, -0.5932617, -65.1219559, -64.8780518, -0.3658537, -0.0075532
-0.6489258, 0.6928711, -0.609375, -63.7804909, -63.9634171, 0.4268293, -0.0092317
-0.6513672, 0.6821289, -0.637207, -63.3536606, -61.7073174, 1.3414634, -0.0135958
-0.6762695, 0.671875, -0.6352539, -63.6585388, -60.18293, 1.097561, -0.0041962
-0.6875, 0.6713867, -0.6264648, -63.9024391, -58.2926826, 0.4878049, 0.011078
-0.7114258, 0.6860352, -0.5957031, -62.1951218, -58.9024391, 0.7926829, 0.0109102
-0.7109375, 0.6953125, -0.5844727, -60.5487823, -59.5121956, 1.097561, 0.005539
-0.6870117, 0.7045898, -0.5737305, -57.68293, -60.7926826, 1.8292683, -0.0035248
-0.6777344, 0.7104492, -0.5678711, -56.2804909, -61.1585388, 1.6463414, -0.0075532
-0.6411133, 0.7246094, -0.5649414, -55.2439041, -60.6707344, 1.4634147, -0.012253
-0.6279297, 0.7299805, -0.5654297, -55.1219521, -60.1219521, 1.402439, -0.0132601
-0.6152344, 0.7124023, -0.5766602, -55.4268303, -58.2317085, 1.2804878, -0.0206455
-0.6132812, 0.6972656, -0.5834961, -55.6097565, -57.2560997, 1.1585366, -0.0186313
-0.621582, 0.6806641, -0.5751953, -55.9756126, -55.0609779, 0.3048781, -0.0099031
-0.6508789, 0.671875, -0.5683594, -55.7926826, -54.0853653, -0.1219512, -0.008896
-0.6630859, 0.671875, -0.5610352, -54.4512215, -53.4756126, -0.8536586, -0.0129244
-0.6762695, 0.6894531, -0.5551758, -51.9512215, -54.3292694, -0.1219512, -0.0166171
-0.6665039, 0.6992188, -0.5537109, -50.7926826, -55.0609779, 0.1219512, -0.0142672
-0.6435547, 0.7148438, -0.5429688, -49.8170738, -55.5487823, -0.2439024, -0.0045319
-0.6342773, 0.7202148, -0.5405273, -49.4512215, -54.9390259, -0.6097561, -0.0028534
-0.6166992, 0.7099609, -0.5361328, -49.8170738, -53.1097565, -1.1585366, 0.0025177
-0.6137695, 0.7011719, -0.5390625, -49.3902435, -52.3780518, -1.1585366, -0.0001678
-0.6166992, 0.6894531, -0.5595703, -48.2926826, -51.4634171, -1.1585366, 0.0011749
-0.6191406, 0.6904297, -0.5717773, -47.7439041, -51.341465, -1.2195122, 0.0097353
-0.6362305, 0.6967773, -0.5908203, -47.7439041, -50.8536606, -1.5243902, 0.0146029
-0.652832, 0.7075195, -0.5947266, -47.9878044, -50.3658562, -1.2804878, 0.0172885
-0.6640625, 0.7075195, -0.5927734, -48.5365868, -49.6951218, -1.9512196, 0.0216526
-0.6860352, 0.703125, -0.574707, -49.4512215, -49.6951218, -2.6219513, 0.0263523
-0.6889648, 0.6967773, -0.5625, -49.2073174, -49.6951218, -2.5, 0.0273594
-0.6977539, 0.6992188, -0.5605469, -48.2926826, -50.1219521, -2.4390244, 0.0199741
-0.6972656, 0.7011719, -0.5620117, -47.5609779, -50.1829262, -2.0121951, 0.036759
-0.6933594, 0.7055664, -0.5771484, -46.0975609, -50.0609779, -1.097561, 0.033402
-0.6914062, 0.6967773, -0.5830078, -45.4268303, -49.7560997, -1.0365853, 0.0005035
-0.6918945, 0.6811523, -0.5883789, -44.9390259, -49.6951218, -0.4268293, -0.0208133
-0.6943359, 0.6723633, -0.5864258, -44.8170738, -49.8780518, -0.7317073, -0.0480049
-0.7070312, 0.6660156, -0.5639648, -44.1463432, -49.7560997, -0.6097561, -0.0760357
-0.7026367, 0.6806641, -0.5449219, -43.4146347, -49.8170738, -0.8536586, -0.0842603
-0.6948242, 0.6865234, -0.5332031, -41.7682953, -50.2439041, -0.1219512, -0.0854353
-0.6660156, 0.6962891, -0.5219727, -39.5731735, -50.2439041, 0.6097561, -0.0871138
-0.6445312, 0.6987305, -0.5175781, -38.6585388, -50.3048782, 0.7317073, -0.0896315
-0.6088867, 0.7006836, -0.4946289, -38.2926826, -49.0243912, 0.4878049, -0.0931563
-0.5957031, 0.7001953, -0.4819336, -38.0487823, -47.9878044, 0, -0.0998703
-0.5800781, 0.7026367, -0.4521484, -37.8048782, -44.1463432, -1.097561, -0.103563
-0.5800781, 0.7080078, -0.449707, -37.6829262, -42.1951218, -1.402439, -0.1022202
-0.5849609, 0.7167969, -0.4550781, -36.341465, -38.4146347, -1.7073171, -0.0951705
-0.5883789, 0.7231445, -0.4667969, -35.6097565, -36.5243912, -1.3414634, -0.0894636
-0.5981445, 0.7270508, -0.4936523, -34.2073174, -32.8658562, -1.3414634, -0.0834211
-0.621582, 0.7114258, -0.5146484, -33.9634171, -31.341465, -1.5243902, -0.079057
-0.6362305, 0.7094727, -0.5214844, -34.3292694, -28.4146347, -2.6829269, -0.0762036
-0.6606445, 0.7114258, -0.5268555, -33.4146347, -26.1585369, -3.4756098, -0.0673075
-0.6733398, 0.71875, -0.5283203, -32.5609779, -25.8536587, -3.5975611, -0.0565652
-0.6757812, 0.7255859, -0.5322266, -30.7926846, -25.7317085, -3.0487804, -0.0488441
-0.671875, 0.7260742, -0.527832, -30.060976, -25.3658543, -3.1707318, -0.0377661
-0.6699219, 0.7114258, -0.5180664, -28.841465, -24.8170738, -3.8414636, -0.0323949
-0.6611328, 0.7006836, -0.5068359, -29.0243912, -24.2682934, -3.9634147, -0.0246738
-0.6586914, 0.6713867, -0.4819336, -27.5, -23.4146347, -3.9634147, -0.0169528
-0.6547852, 0.6586914, -0.4682617, -26.6463413, -23.2926826, -3.5365853, -0.0072175
-0.6499023, 0.6484375, -0.4619141, -24.2682934, -22.2560978, -3.0487804, -0.0035248
-0.6577148, 0.6386719, -0.4619141, -22.9878063, -21.5243912, -2.8658538, 0.0016785
-0.6640625, 0.6425781, -0.4711914, -20.6707325, -20, -2.4390244, 0.008896
-0.6791992, 0.6704102, -0.5083008, -17.2560978, -20.060976, -0.7926829, 0.0186313
-0.6826172, 0.6762695, -0.5424805, -15.6097565, -20.7317085, 0.3048781, 0.0223239
-0.6806641, 0.6757812, -0.6123047, -13.2317076, -22.6829281, 1.5243902, 0.0240024
-0.6894531, 0.675293, -0.6381836, -13.0487804, -23.5365868, 1.402439, 0.0327306
-0.7001953, 0.6738281, -0.6557617, -13.4146347, -24.6341476, 0.1219512, 0.0379339
-0.7094727, 0.6772461, -0.6401367, -13.780488, -25.2439022, -0.6097561, 0.0448157
-0.7207031, 0.690918, -0.5751953, -14.1463413, -26.7682934, -1.8292683, 0.0520333
-0.7172852, 0.7011719, -0.5366211, -13.7195129, -27.9878063, -1.7073171, 0.0569009
-0.7001953, 0.7094727, -0.4897461, -12.0121956, -29.0853672, -0.8536586, 0.0602579
-0.6669922, 0.706543, -0.4765625, -10.5487804, -29.0243912, 0, 0.0594186
-0.6567383, 0.7036133, -0.4833984, -8.9024391, -26.8902454, 0.9756098, 0.0555581
-0.6450195, 0.6923828, -0.5053711, -7.7439027, -23.1097565, 1.8902439, 0.0448157
-0.6445312, 0.690918, -0.5224609, -7.6829271, -20.9756107, 2.0731707, 0.0340734
-0.6518555, 0.6987305, -0.5244141, -7.3780489, -18.5975609, 1.8292683, 0.0280308
-0.6538086, 0.6992188, -0.5239258, -7.0121951, -18.3536587, 1.7073171, 0.0240024
-0.6542969, 0.7094727, -0.5288086, -6.1585369, -18.0487804, 1.7682927, 0.0104067
-0.6518555, 0.7099609, -0.5356445, -5.4268293, -17.9268303, 1.5243902, 0.0041962
-0.6313477, 0.715332, -0.5385742, -4.1463413, -18.2926826, 1.7682927, 0.0031891
-0.6210938, 0.7114258, -0.5385742, -4.1463413, -18.0487804, 1.8292683, 0.0162814
-0.5966797, 0.7104492, -0.5297852, -4.390244, -16.280489, 0.7317073, 0.0360876
-0.5981445, 0.7094727, -0.5166016, -4.6341462, -14.8780489, -0.0609756, 0.0310521
-0.6044922, 0.7119141, -0.5117188, -4.6951222, -12.1951218, -0.3048781, 0.0112459
-0.6220703, 0.7148438, -0.5229492, -3.6585367, -10.060976, 0.0609756, -0.0193027
-0.6289062, 0.7119141, -0.5283203, -3.6585367, -9.1463413, 0.4878049, -0.0498512
-0.6337891, 0.6967773, -0.5390625, -2.6829269, -6.7682929, 0.7926829, -0.0666361
-0.6430664, 0.6918945, -0.5292969, -2.5609756, -5.4268293, 0.2439024, -0.0693217
-0.6523438, 0.6928711, -0.5004883, -2.0121951, -3.2317073, 0, -0.0647898
-0.6455078, 0.6904297, -0.4868164, -1.402439, -2.8658538, 0.1219512, -0.0574044
-0.6333008, 0.6831055, -0.4863281, 0.7317073, -2.0731707, 1.1585366, -0.0464942
-0.6210938, 0.6835938, -0.4960938, 1.9512196, -1.4634147, 1.5853659, -0.0323949
-0.6113281, 0.6796875, -0.5493164, 3.5975611, 0.7926829, 2.7439024, -0.0384375
-0.6142578, 0.6826172, -0.590332, 3.5365853, 3.1707318, 3.2926829, -0.0458228
-0.6225586, 0.6811523, -0.5991211, 3.1097562, 4.7560978, 2.9878049, -0.0485084
-0.6645508, 0.6757812, -0.5859375, 2.1341465, 6.0975609, 2.1341465, -0.0498512
-0.6860352, 0.6669922, -0.5683594, 2.2560976, 5.8536587, 1.7682927, -0.043473
-0.71875, 0.6450195, -0.5327148, 4.2073174, 4.7560978, 1.8292683, -0.0394446
-0.7246094, 0.640625, -0.5209961, 5.9146342, 3.9024391, 2.3780489, -0.0473335
-0.7216797, 0.6523438, -0.5288086, 10.4268293, 3.2926829, 4.0243902, -0.0565652
-0.7192383, 0.668457, -0.5395508, 12.3780489, 3.4146342, 4.8780489, -0.0538796
-0.6982422, 0.6953125, -0.5600586, 15.3048782, 3.5975611, 6.5243902, -0.0508583
-0.6791992, 0.7055664, -0.5678711, 16.1585369, 3.7195122, 7.1341467, -0.0471656
-0.6464844, 0.706543, -0.574707, 16.280489, 4.6341462, 7.1341467, -0.0448157
-0.625, 0.6928711, -0.5708008, 16.1585369, 5.609756, 6.5853658, -0.043473
-0.6206055, 0.6806641, -0.5776367, 16.3414631, 5.8536587, 6.4634147, -0.0446479
-0.621582, 0.659668, -0.5839844, 16.3414631, 6.4634147, 6.7682929, -0.0488441
-0.6279297, 0.6469727, -0.5849609, 16.5243912, 7.0121951, 6.5243902, -0.0491798
-0.6499023, 0.6318359, -0.5878906, 17.9268303, 7.9268293, 5.9146342, -0.0491798
-0.6645508, 0.6362305, -0.5834961, 19.0243912, 7.9268293, 5.3658538, -0.0270237
-0.6811523, 0.659668, -0.5625, 22.5, 6.3414636, 5.1219511, 0.0219883
-0.6782227, 0.6748047, -0.5498047, 24.0853672, 5.3048782, 5.4878049, 0.0609293
-0.6494141, 0.7060547, -0.5224609, 27.8658543, 2.9878049, 5.9146342, 0.0555581
-0.6337891, 0.7104492, -0.5136719, 29.5731716, 3.2317073, 5.8536587, 0.0275273
-0.5966797, 0.7099609, -0.5117188, 31.2195129, 5.8536587, 6.4024391, -0.0068818
-0.5751953, 0.7001953, -0.5195312, 31.5853672, 10.4268293, 6.7073174, -0.0350805
-0.5742188, 0.7011719, -0.5263672, 31.1585369, 12.7439032, 6.7073174, -0.0340734
-0.5859375, 0.7060547, -0.5307617, 30.6097565, 17.0731716, 6.280488, 0.0206455
-0.5957031, 0.7143555, -0.5288086, 30.7317085, 18.780489, 6.0975609, 0.0976883
-0.6220703, 0.71875, -0.5107422, 31.2195129, 21.7073174, 5.4878049, 0.1022202
-0.6289062, 0.7255859, -0.5078125, 31.2195129, 22.8048782, 5.1219511, 0.0602579
-0.6333008, 0.7231445, -0.5268555, 32.1951218, 25.3658543, 4.9390244, 0.0206455
-0.6352539, 0.7163086, -0.5537109, 32.7439041, 26.4634151, 5.3658538, -0.0132601
-0.6337891, 0.7075195, -0.6279297, 33.5975609, 29.0853672, 6.4634147, -0.0448157
-0.6381836, 0.7060547, -0.6606445, 33.7804871, 30.3048782, 7.1951222, -0.057908
-0.6503906, 0.7124023, -0.6860352, 33.2317085, 31.7073174, 6.7682929, -0.0532082
-0.6733398, 0.7109375, -0.6567383, 32.2560997, 31.4634151, 6.0975609, -0.0491798
-0.6791992, 0.6992188, -0.6269531, 31.9512196, 30.9756107, 5.2439027, -0.0485084
-0.6889648, 0.6733398, -0.5795898, 32.7439041, 30.6097565, 5.1219511, -0.0370947
-0.6938477, 0.6577148, -0.5668945, 33.9634171, 30.7317085, 5.1829271, -0.018967
-0.7001953, 0.6479492, -0.5620117, 36.9512215, 32.9268303, 6.8292685, -0.0125887
-0.7114258, 0.6450195, -0.5610352, 37.9268303, 34.2073174, 7.5609756, -0.0132601
-0.7226562, 0.6450195, -0.5644531, 40.1219521, 37.0121956, 9.0853662, -0.0199741
-0.7294922, 0.6425781, -0.5620117, 40.7926826, 37.5609779, 9.5731707, -0.0213169
-0.7290039, 0.6391602, -0.5595703, 44.2682953, 38.6585388, 11.0975609, -0.0317235
-0.7202148, 0.644043, -0.5600586, 46.341465, 38.841465, 11.6463413, -0.0340734
-0.6884766, 0.6606445, -0.5830078, 50.2439041, 38.3536606, 13.3536587, -0.0344091
-0.6420898, 0.6875, -0.6240234, 52.6829262, 39.1463432, 13.6585369, -0.0379339
-0.6220703, 0.690918, -0.6396484, 52.9878044, 39.6951218, 13.6585369, -0.0364233
-0.605957, 0.6958008, -0.6591797, 52.1951218, 41.7073174, 12.560976, -0.0384375
-0.6040039, 0.690918, -0.6611328, 50.9146347, 43.4146347, 11.7073174, -0.0485084
-0.6162109, 0.6762695, -0.6669922, 49.6951218, 45.9756126, 10.7317076, -0.0595865
-0.6269531, 0.671875, -0.6679688, 49.4512215, 46.5243912, 10.7317076, -0.0694896
-0.6450195, 0.6879883, -0.6850586, 50.5487823, 46.9512215, 11.4634151, -0.0746929
-0.6518555, 0.6962891, -0.6923828, 51.2195129, 46.8292694, 11.5243902, -0.0847639
-0.6616211, 0.7124023, -0.6855469, 52.0731735, 46.7073174, 10.6097565, -0.0976883
-0.6606445, 0.7192383, -0.6708984, 51.9512215, 46.7682953, 10, -0.0995346
-0.6748047, 0.7094727, -0.6484375, 52.7439041, 48.5975609, 8.6585369, -0.0961776
-0.6762695, 0.6889648, -0.6572266, 54.3902435, 50.3048782, 10.060976, -0.0997024
-0.6694336, 0.6791992, -0.6694336, 55.3658562, 51.4634171, 11.341464, -0.0931563
-0.6547852, 0.6572266, -0.6914062, 56.7682953, 53.1097565, 13.1707315, -0.0820783
-0.6503906, 0.6523438, -0.6953125, 56.9512215, 54.3292694, 13.1707315, -0.0757
-0.6635742, 0.6479492, -0.6782227, 56.7682953, 55.9146347, 12.5, -0.0713359
-0.6728516, 0.644043, -0.671875, 57.5, 55.9756126, 12.6219511, -0.0414588
-0.6791992, 0.6445312, -0.6875, 60.3048782, 55.3048782, 13.9024391, -0.0270237
-0.6743164, 0.6430664, -0.7182617, 62.0121956, 55.18293, 15.1829271, -0.0216526
-0.6547852, 0.6425781, -0.7827148, 64.8170776, 55.3048782, 17.7439022, 0.0063783
-0.6391602, 0.6464844, -0.7958984, 65.18293, 55.5487823, 18.3536587, 0.0065461
-0.6245117, 0.6572266, -0.7841797, 63.7804909, 55.3048782, 17.8048782, -0.0162814
-0.6225586, 0.659668, -0.7275391, 61.8902435, 55.3048782, 16.4024391, -0.0377661
-0.6147461, 0.6582031, -0.6943359, 61.8292694, 55.7317085, 15.9146347, -0.0626078
-0.5927734, 0.6586914, -0.6479492, 62.8048782, 57.6219521, 15.9756098, -0.0847639
-0.5888672, 0.6635742, -0.6435547, 64.2682953, 59.1463432, 15.8536587, -0.0995346
-0.5742188, 0.6855469, -0.6611328, 67.5, 62.9878082, 16.8902435, -0.110277
-0.5664062, 0.6928711, -0.6816406, 67.9878082, 64.7560959, 17.2560978, -0.114641
-0.5668945, 0.706543, -0.7333984, 69.0853653, 68.2926865, 17.9268303, -0.1178302
-0.5683594, 0.703125, -0.7563477, 69.0853653, 69.8780518, 17.6829281, -0.1190051
-0.5922852, 0.6904297, -0.7763672, 68.7804871, 71.7682953, 17.3170738, -0.1109483
-0.6186523, 0.6523438, -0.7851562, 68.5365906, 71.8902435, 17.439024, -0.0944991
-0.6308594, 0.6362305, -0.7817383, 68.9634171, 71.2195129, 16.8902435, -0.0814069
-0.6420898, 0.6079102, -0.7558594, 71.1585388, 70.2439041, 16.8902435, -0.0733501
-0.6411133, 0.5996094, -0.7426758, 72.7439041, 69.4512177, 17.0121956, -0.0659648
-0.6367188, 0.5976562, -0.7333984, 75.9146347, 67.9268341, 18.1707325, -0.0659648
-0.625, 0.5952148, -0.7485352, 78.0487823, 67.0731735, 19.2073174, -0.0647898
-0.6049805, 0.5986328, -0.8037109, 82.0731735, 65.8536606, 21.8902435, -0.0486763
-0.5981445, 0.6044922, -0.8378906, 83.2926865, 65.7317123, 23.1097565, -0.0313878
-0.5991211, 0.6279297, -0.8935547, 83.9634171, 66.1585388, 23.780489, -0.0327306
-0.6137695, 0.6411133, -0.9072266, 83.4756088, 66.2195129, 23.7195129, -0.0364233
-0.6494141, 0.6645508, -0.8842773, 82.4390259, 65.6707306, 23.0487804, -0.0414588
-0.6699219, 0.6733398, -0.8330078, 81.8292694, 65.18293, 22.5, -0.0431373
-0.6679688, 0.6743164, -0.8134766, 81.7682953, 64.3292694, 23.2926826, -0.0513619
-0.6386719, 0.6845703, -0.7963867, 83.6585388, 64.9390259, 25.4878063, -0.0518654
-0.6162109, 0.6923828, -0.7998047, 84.6951218, 65.8536606, 26.5853672, -0.0518654
-0.5673828, 0.6889648, -0.8046875, 85.0609741, 68.7195129, 28.1097565, -0.0498512
-0.546875, 0.6806641, -0.8095703, 84.2682953, 70.7317123, 28.2926826, -0.0417945
-0.5361328, 0.6557617, -0.8076172, 82.1951218, 75.7926865, 27.3780499, -0.0323949
-0.5429688, 0.6391602, -0.800293, 81.1585388, 77.8658524, 26.8902454, -0.0229953
-0.5615234, 0.6240234, -0.7871094, 81.8292694, 81.0365906, 26.7682934, -0.0095674
-0.5688477, 0.6201172, -0.7836914, 82.5609741, 81.8292694, 27.3780499, -0.002182
-0.5751953, 0.6166992, -0.7880859, 84.5121994, 82.9268341, 27.6829281, -0.0030213
-0.5742188, 0.6103516, -0.8051758, 85.6097565, 83.6585388, 27.560976, -0.0102388
-0.5791016, 0.6162109, -0.815918, 87.5, 85.9146347, 27.0731716, -0.0260166
-0.5878906, 0.6430664, -0.8417969, 89.8780518, 87.3780518, 28.5365868, -0.0139315
-0.5776367, 0.6582031, -0.859375, 90.6707306, 87.4390259, 29.3902454, 0.0028534
-0.5546875, 0.6748047, -0.8789062, 91.1585388, 87.8048782, 29.5731716, 0.0330663
-0.5507812, 0.6767578, -0.8828125, 90.6097565, 88.4756088, 28.7195129, 0.079057
-0.5517578, 0.6811523, -0.8793945, 89.6341476, 90.18293, 26.9512196, 0.1089342
-0.5532227, 0.6772461, -0.8828125, 89.6951218, 90.6707306, 26.280489, 0.1253834
-0.5400391, 0.6567383, -0.8925781, 89.2073212, 91.8902435, 25.3048782, 0.1300832
-0.5380859, 0.6513672, -0.9067383, 89.2073212, 92.5609741, 24.2682934, 0.1341115
-0.5375977, 0.6689453, -0.925293, 89.5731735, 92.7439041, 23.2926826, 0.1431754
-0.5400391, 0.6894531, -0.9326172, 89.4512253, 92.4390259, 23.3536587, 0.1337758
-0.534668, 0.7011719, -0.9316406, 87.9268341, 92.9268341, 22.560976, 0.1131304
-0.5302734, 0.7021484, -0.9321289, 85.4878082, 94.5731735, 21.5853672, 0.0871138
-0.5356445, 0.6850586, -0.9467773, 84.7560959, 95.6707306, 21.0975609, 0.0572366
-0.5576172, 0.6396484, -0.9873047, 82.6219559, 97.8658524, 20.3658543, 0.0337377
-0.574707, 0.6225586, -1.0029297, 82.5, 98.1707306, 20.1829281, 0.021149
-0.6108398, 0.6069336, -0.9985352, 81.8902435, 97.3780518, 19.4512196, 0.0137636
-0.6396484, 0.6137695, -0.9863281, 82.1341476, 95.4268341, 19.4512196, 0.0099031
-0.652832, 0.6425781, -0.9501953, 83.2317123, 91.2195129, 20.4878044, 0.0045319
-0.6445312, 0.6601562, -0.940918, 84.2073212, 89.9390259, 21.1585369, 0.0025177
-0.6005859, 0.6640625, -0.9541016, 85.18293, 90.4268341, 22.2560978, 0.0077211
-0.5625, 0.6665039, -0.9882812, 84.8780518, 92.1341476, 22.6829281, 0.0172885
-0.5429688, 0.6650391, -1.0048828, 83.7195129, 95.1219559, 23.2317085, 0.0518654
-0.5078125, 0.6679688, -1.0219727, 81.8292694, 96.2195129, 23.2926826, 0.0793927
-0.5, 0.6655273, -1.0185547, 80, 96.0365906, 22.560976, 0.0822461
-0.4985352, 0.6499023, -0.9941406, 77.4390259, 95.3048782, 20.4268303, 0.0746929
-0.5043945, 0.6357422, -0.9824219, 76.4634171, 95.1219559, 19.6341476, 0.0649577
-0.5170898, 0.6020508, -0.9560547, 75.9146347, 95, 17.9878044, 0.043473
-0.5263672, 0.5893555, -0.9511719, 76.7682953, 94.7561035, 17.6219521, 0.0253452
-0.5366211, 0.5673828, -0.9682617, 78.3536606, 94.3902435, 18.4146347, 0.0129244
-0.5341797, 0.5615234, -0.9848633, 79.3292694, 94.2073212, 19.2073174, 0.0234989
-0.5317383, 0.5751953, -1.0068359, 81.1585388, 93.7804871, 20.6097565, 0.0998703
-0.5283203, 0.6166992, -0.9907227, 81.7073212, 93.5365906, 20.9146347, 0.2173648
-0.5205078, 0.6298828, -0.9770508, 81.9512177, 92.1951218, 21.1585369, 0.297261
-0.4829102, 0.6303711, -0.9682617, 82.3780518, 92.68293, 21.280489, 0.2398566
-0.4555664, 0.6186523, -0.9711914, 82.1951218, 93.6585388, 21.0975609, 0.1344472
-0.4086914, 0.5830078, -0.9975586, 81.5853653, 96.7073212, 21.280489, 0.0172885
-0.3984375, 0.5737305, -1.019043, 81.0365906, 98.1097565, 21.2195129, -0.0740215
-0.4038086, 0.5625, -1.0698242, 78.9024429, 100.6707306, 20.8536587, -0.13579
-0.4248047, 0.5649414, -1.0834961, 78.4756088, 101.1585388, 20.9756107, -0.1666743
-0.4750977, 0.5878906, -1.0722656, 77.5609741, 100, 20.4878044, -0.1743954
-0.496582, 0.5976562, -1.0415039, 77.4390259, 98.2926865, 19.5731716, -0.1921874
-0.5063477, 0.5800781, -0.9936523, 77.4390259, 95.18293, 18.3536587, -0.2066224
-0.4726562, 0.5327148, -0.9897461, 78.4756088, 94.5121994, 18.2317085, -0.2086366
-0.4428711, 0.5205078, -1.0043945, 81.0365906, 95.6707306, 19.8780499, -0.2044404
-0.4008789, 0.5175781, -1.0288086, 81.7682953, 98.0487823, 21.5853672, -0.1841306
-0.3833008, 0.5415039, -1.0292969, 81.3414688, 99.3902435, 22.5, -0.1384756
-0.3564453, 0.5634766, -1.0053711, 79.8170776, 100.4268341, 23.1097565, -0.0555581
-0.3349609, 0.5615234, -0.9853516, 78.9024429, 101.2804871, 22.560976, -0.0115816
-0.3217773, 0.5229492, -0.9609375, 78.2317123, 103.4756088, 20.7317085, -0.027863
-0.3222656, 0.496582, -0.9506836, 78.9634171, 105, 20.060976, -0.0565652
-0.3217773, 0.4555664, -0.9560547, 80.7317123, 107.1341476, 19.0853672, -0.0961776
-0.3261719, 0.4433594, -0.9770508, 81.9512177, 107.7439041, 19.4512196, -0.1320974
-0.3496094, 0.4345703, -1.0371094, 84.0243912, 108.3536606, 20.6097565, -0.1559319
-0.387207, 0.4614258, -1.1074219, 84.3902435, 108.2926865, 21.7073174, -0.149218
-0.4077148, 0.4785156, -1.1245117, 83.5365906, 108.4756088, 23.3536587, -0.1344472
-0.4345703, 0.5253906, -1.1064453, 82.3170776, 107.5609818, 24.6951218, -0.1203479
-0.4345703, 0.5410156, -1.0698242, 81.7682953, 106.4024429, 25.1829281, -0.1062486
-0.3813477, 0.5288086, -0.9799805, 81.0365906, 104.5121994, 25.4268303, -0.0908064
-0.3354492, 0.4970703, -0.9541016, 81.1585388, 104.3902435, 25.4878063, -0.0814069
-0.2446289, 0.4194336, -0.980957, 82.9878082, 107.8048782, 25.9146347, -0.0740215
-0.2172852, 0.3950195, -1.0117188, 83.6585388, 110.36586, 26.1585369, -0.0740215
-0.2104492, 0.4086914, -1.0454102, 84.4512253, 114.9390259, 26.4024391, -0.0814069
-0.2265625, 0.4291992, -1.0424805, 84.4512253, 115.5487823, 25.9756107, -0.0834211
-0.2641602, 0.4594727, -1.0141602, 84.2682953, 114.5121994, 24.3902435, -0.0767071
-0.2822266, 0.4458008, -1.0092773, 84.6951218, 113.9634171, 23.7195129, -0.0713359
-0.2788086, 0.4291992, -1.0200195, 86.2195129, 114.3292694, 23.8414631, -0.0699931
-0.2646484, 0.4057617, -1.0463867, 87.3170776, 116.7073212, 24.5121956, -0.0632792
-0.2592773, 0.4042969, -1.0449219, 87.8048782, 117.5, 24.6951218, -0.0236667
-0.2617188, 0.4086914, -1.0239258, 88.1097565, 118.2317123, 24.8780499, -0.0152743
-0.253418, 0.4135742, -1.0180664, 88.4756088, 118.0487823, 25.4268303, -0.0196384
-0.2236328, 0.3862305, -1.0415039, 89.6341476, 117.5, 26.6463413, -0.0196384
-0.2026367, 0.3647461, -1.0615234, 90.0609741, 118.1097565, 27.0121956, -0.0250095
-0.1958008, 0.3334961, -1.0883789, 90.18293, 119.5121994, 25.9146347, -0.0406195
-0.2148438, 0.3291016, -1.0981445, 90.7317123, 119.5121994, 25.2439022, -0.0458228
-0.2519531, 0.3740234, -1.1186523, 92.3780518, 117.6219559, 26.2195129, -0.0256809
-0.2583008, 0.449707, -1.1386719, 93.6585388, 115.9146347, 28.1097565, -0.0082246
-0.2446289, 0.4692383, -1.1513672, 92.9268341, 115.6707306, 27.8658543, 0.0078889
-0.2080078, 0.4638672, -1.1650391, 90, 115.8536606, 27.3170738, 0.0213169
-0.1879883, 0.4448242, -1.1606445, 88.7195129, 116.2195129, 26.8902454, 0.0424659
-0.1655273, 0.40625, -1.1264648, 86.7682953, 116.7073212, 25.9756107, 0.0642863
-0.1533203, 0.3769531, -1.1054688, 86.2804871, 116.3414688, 24.8170738, 0.1055772
-0.1523438, 0.3520508, -1.0668945, 86.9512253, 115.18293, 22.3780499, 0.1378042
-0.1508789, 0.3525391, -1.0649414, 87.8048782, 114.5731735, 21.8902435, 0.1173266
-0.1337891, 0.3774414, -1.0878906, 89.5121994, 114.5731735, 22.6219521, 0.0743572
-0.1181641, 0.3803711, -1.1123047, 89.8780518, 115.36586, 22.5, 0.0280308
-0.1132812, 0.4023438, -1.152832, 89.0243912, 117.4390259, 21.8902435, -0.0048676
-0.1328125, 0.4140625, -1.1547852, 87.3170776, 118.7804871, 21.0975609, -0.0184634
-0.1401367, 0.4042969, -1.1435547, 86.7682953, 118.5365906, 20.4878044, -0.0223239
-0.1621094, 0.3583984, -1.1230469, 86.2195129, 117.6219559, 18.9634151, -0.0129244
-0.1787109, 0.3413086, -1.1103516, 86.646347, 116.7073212, 18.4756107, -0.0048676
-0.1855469, 0.3027344, -1.1123047, 88.4756088, 115.1219559, 19.2073174, -0.0109102
-0.184082, 0.3027344, -1.1206055, 90, 114.7561035, 19.939024, -0.0179599
-0.1743164, 0.3266602, -1.137207, 91.5853653, 113.8414688, 20.9146347, -0.0112459
-0.1674805, 0.3374023, -1.1567383, 92.3780518, 113.5975647, 21.5243912, 0.0330663
-0.1533203, 0.3266602, -1.175293, 92.8658524, 112.6219559, 21.5853672, 0.0548867
-0.1611328, 0.3110352, -1.1777344, 92.7439041, 112.86586, 20.7317085, 0.0381018
-0.2133789, 0.2978516, -1.1689453, 93.2926865, 110.7926865, 19.4512196, 0.0354162
-0.2231445, 0.3305664, -1.1464844, 95.1219559, 106.7682953, 20.9756107, 0.0407874
-0.1933594, 0.347168, -1.1328125, 95.7317123, 104.6951218, 22.0731716, 0.0167849
-0.1157227, 0.3466797, -1.1083984, 95, 103.2317123, 22.0121956, -0.01561
-0.0834961, 0.3271484, -1.0981445, 93.8414688, 103.4756088, 21.0975609, -0.040116
-0.0292969, 0.3046875, -1.109375, 92.1341476, 105.8536606, 20.6707325, -0.0585794
-0.0151367, 0.2988281, -1.1274414, 91.7073212, 107.5609818, 21.0365868, -0.0607614
-0.0097656, 0.3085938, -1.1923828, 90.3658524, 110.36586, 20.3658543, -0.04448
-0.0336914, 0.3178711, -1.2119141, 89.3292694, 110.9146347, 19.3292694, -0.0454871
-0.1000977, 0.3173828, -1.2094727, 86.7073212, 108.6585388, 16.7073174, -0.0629435
-0.1313477, 0.3056641, -1.1826172, 85.7317123, 105.9146347, 15.3048782, -0.0807355
-0.1621094, 0.2597656, -1.1337891, 85.4268341, 98.9024429, 13.4756098, -0.0938277
-0.1552734, 0.234375, -1.137207, 88.0487823, 94.146347, 13.2317076, -0.1045701
-0.1401367, 0.2446289, -1.1474609, 89.0853653, 93.2926865, 14.3902445, -0.1049058
-0.0942383, 0.2978516, -1.1518555, 89.146347, 92.2561035, 16.1585369, -0.0834211
-0.0664062, 0.3154297, -1.140625, 87.9878082, 91.5853653, 16.1585369, -0.0619364
-0.0268555, 0.2832031, -1.1010742, 85, 90.6707306, 14.1463413, -0.0532082
-0.0166016, 0.2509766, -1.0795898, 84.3902435, 90.4268341, 12.560976, -0.0731823
-0.019043, 0.1801758, -1.059082, 85.2439041, 89.6951218, 10.4268293, -0.1049058
-0.0239258, 0.1616211, -1.0507812, 86.8902435, 89.146347, 9.8170738, -0.0988632
-0.0429688, 0.1914062, -1.0556641, 89.8780518, 88.5975647, 9.7560978, -0.085771
-0.0488281, 0.2138672, -1.0742188, 90.6707306, 88.2926865, 10, -0.0656291
-0.0512695, 0.2368164, -1.121582, 90.8536606, 88.7195129, 9.7560978, -0.0464942
-0.0800781, 0.2319336, -1.1303711, 88.9024429, 89.3292694, 9.1463413, -0.018967
-0.0966797, 0.2226562, -1.1171875, 87.6219559, 88.5975647, 8.841464, 0.0166171
-0.1000977, 0.1938477, -1.0727539, 86.2195129, 85.4878082, 8.4756098, 0.0903029
-0.0957031, 0.1816406, -1.0527344, 86.7073212, 83.7804871, 8.3536587, 0.1770809
-0.0610352, 0.1791992, -1.0415039, 88.6585388, 82.4390259, 10, 0.2103151
-0.0307617, 0.1875, -1.0512695, 89.3292694, 83.2317123, 10.6097565, 0.1663386
0.0166016, 0.1816406, -1.0703125, 88.5365906, 85.9756088, 10.9146347, 0.1038987
0.0322266, 0.1728516, -1.0688477, 87.2560959, 87.6219559, 10.5487804, 0.0407874
0.0297852, 0.1381836, -1.0571289, 85.0609741, 89.4512253, 8.5975609, -0.0095674
0.015625, 0.1235352, -1.065918, 84.8780518, 90.3048782, 7.9878049, -0.0283665
-0.0185547, 0.1162109, -1.0942383, 85.9146347, 89.5731735, 7.9878049, -0.0297093
-0.0585938, 0.1455078, -1.0732422, 85.2439041, 86.4634171, 8.0487804, -0.0216526
-0.0693359, 0.1582031, -1.0366211, 84.6341476, 84.146347, 7.6829271, -0.0072175
-0.0400391, 0.1503906, -0.9589844, 84.5121994, 80, 7.1951222, 0.0058747
-0.0053711, 0.1245117, -0.9384766, 84.6341476, 79.6951218, 7.1341467, 0.0001678
0.0742188, 0.0615234, -0.9658203, 85.3048782, 83.1707306, 7.5, -0.0169528
0.0986328, 0.0410156, -0.9931641, 85.6097565, 86.2195129, 7.9268293, -0.0303807
0.1040039, 0.0415039, -1.0385742, 84.8170776, 91.7073212, 8.2926826, -0.0411231
0.0864258, 0.0610352, -1.0454102, 84.146347, 93.1097565, 7.9878049, -0.0558938
0.027832, 0.0961914, -1.0380859, 82.7439041, 91.8292694, 6.8292685, -0.0780499
-0.0087891, 0.0893555, -0.996582, 82.0121994, 90.1219559, 6.1585369, -0.090135
-0.0175781, 0.0727539, -0.9663086, 81.8292694, 87.5609741, 4.3292685, -0.1062486
-0.0087891, 0.0273438, -0.9155273, 84.0853653, 86.5243912, 3.5975611, -0.1169909
0.0024414, 0.0039062, -0.9047852, 85.6707306, 86.646347, 3.9634147, -0.128069
0.0395508, -0.0214844, -0.9399414, 88.4756088, 87.8048782, 6.280488, -0.1606317
0.0600586, -0.0258789, -0.9702148, 89.5121994, 89.5731735, 7.8658538, -0.1727169
0.0854492, -0.0063477, -1.0014648, 89.4512253, 93.4756088, 10.4268293, -0.1572747
0.0859375, 0.0078125, -0.9941406, 88.6585388, 94.9390259, 10.6707315, -0.1173266
0.0742188, 0.0224609, -0.9609375, 88.1097565, 95.3658524, 10.060976, -0.1190051
0.0649414, 0.0092773, -0.9453125, 88.4146347, 95, 9.2073174, -0.1347829
0.0639648, -0.027832, -0.9326172, 90.5487823, 93.4756088, 8.0487804, -0.100206
0.0581055, -0.0498047, -0.9506836, 92.1341476, 93.2926865, 7.6219516, -0.01561
0.0566406, -0.0390625, -0.9609375, 94.9390259, 93.1097565, 8.5365858, 0.0327306
0.0795898, -0.0092773, -0.996582, 95.0609741, 91.8902435, 11.341464, 0.0428016
0.0966797, -0.003418, -1.0141602, 94.5121994, 92.3170776, 12.0731707, 0.0260166
0.1196289, 0.0097656, -1.0180664, 92.68293, 93.9634171, 12.3170738, -0.012253
0.1181641, 0.0078125, -0.9941406, 91.7073212, 94.8170776, 11.7682934, -0.0256809
0.1040039, -0.0068359, -0.9272461, 90.6707306, 94.6341476, 9.8780489, -0.0209812
0.1142578, -0.0244141, -0.8950195, 91.3414688, 93.0487823, 9.0853662, 0.0213169
0.1391602, -0.0654297, -0.8745117, 93.5365906, 91.0365906, 8.4146347, 0.0830854
0.1616211, -0.0893555, -0.9033203, 95.3048782, 90.9756088, 8.5365858, 0.1445182
0.1713867, -0.0966797, -1.0063477, 97.3170776, 94.2682953, 10.1219511, 0.2066224
0.1416016, -0.0444336, -1.0888672, 97.4390259, 96.7682953, 11.1585369, 0.2536202
0.1108398, -0.0063477, -1.1035156, 96.4024429, 100.5487823, 12.2560978, 0.2187076
0.0483398, 0.0488281, -1.0566406, 93.2317123, 97.6219559, 11.280488, 0.1552605
0.0395508, 0.0546875, -1.0126953, 92.2561035, 94.2682953, 10.7926836, 0.0938277
0.0576172, -0.0092773, -0.9516602, 93.1707306, 87.5, 9.3902445, 0.0229953
0.0795898, -0.0507812, -0.9467773, 94.5121994, 85.6097565, 9.2073174, -0.0041962
0.1235352, -0.0966797, -0.9819336, 97.68293, 86.2804871, 10.4268293, 0.0025177
0.1484375, -0.0922852, -0.9941406, 98.5365906, 87.5, 12.0731707, 0.03122
0.1904297, -0.0473633, -1.0073242, 97.9268341, 88.8414688, 13.9024391, 0.0323949
0.2041016, -0.0361328, -1.0131836, 97.0731735, 88.5975647, 14.0853662, 0.0102388
0.2094727, -0.0380859, -1.0322266, 95.4268341, 87.4390259, 12.4390249, -0.0176242
0.1728516, -0.0498047, -1.0419922, 95, 87.0121994, 12.0731707, -0.0451514
0.1503906, -0.0498047, -1.0327148, 95.4268341, 86.7682953, 10.3658543, -0.0663005
0.1171875, -0.046875, -0.9711914, 95.8536606, 83.3536606, 9.5121956, -0.0908064
0.1157227, -0.0473633, -0.9365234, 96.0975647, 80.6707306, 9.0243902, -0.0975204
0.1538086, -0.0825195, -0.8803711, 96.8292694, 76.2804871, 8.719512, -0.0965133
0.1884766, -0.097168, -0.8793945, 97.68293, 75.3658524, 9.0853662, -0.1025559
0.2529297, -0.1123047, -0.9472656, 98.7195129, 76.7682953, 10.4878054, -0.1089342
0.2807617, -0.1123047, -1.0083008, 98.5975647, 79.0243912, 12.0731707, -0.1136339
0.2851562, -0.0839844, -1.0888672, 95.7317123, 82.4390259, 13.0487804, -0.1290761
0.2636719, -0.0620117, -1.0693359, 92.8658524, 82.9878082, 11.7682934, -0.1404898
0.1816406, -0.0556641, -0.9018555, 88.4756088, 77.3170776, 7.0121951, -0.1331044
0.1591797, -0.1049805, -0.75, 88.2317123, 72.5, 4.6341462, -0.1196765
0.184082, -0.1494141, -0.7333984, 92.68293, 65.3658524, 3.5365853, -0.1022202
0.2695312, -0.234375, -0.8110352, 99.7561035, 67.68293, 5.2439027, -0.090135
0.3022461, -0.2480469, -0.8608398, 101.4634171, 70.7926865, 6.3414636, -0.0844282
0.309082, -0.206543, -0.9018555, 100.5487823, 75.8536606, 7.9878049, -0.0797284
0.3027344, -0.1704102, -0.8886719, 99.0243912, 76.3414688, 8.4756098, -0.0699931
0.2973633, -0.1254883, -0.8251953, 96.5853653, 74.0853653, 8.0487804, -0.0538796
0.3017578, -0.1279297, -0.8071289, 96.5243912, 72.9878082, 6.9512196, -0.0317235
0.3154297, -0.1738281, -0.8017578, 98.2926865, 73.5975647, 5.2439027, -0.0152743
0.3193359, -0.1958008, -0.809082, 98.9024429, 75.0609741, 4.3292685, 0.0018463
0.3056641, -0.2172852, -0.8154297, 99.4512253, 77.8658524, 4.0243902, 0.0099031
0.3027344, -0.2275391, -0.8364258, 99.6341476, 77.68293, 4.3292685, 0.0364233
0.3081055, -0.2338867, -0.8505859, 99.4512253, 76.4634171, 5.4878049, 0.0736858
0.3037109, -0.2319336, -0.8881836, 99.6341476, 76.1585388, 6.4024391, 0.0621042
0.2919922, -0.2148438, -0.8911133, 99.9390259, 76.3414688, 6.3414636, 0.0327306
0.2631836, -0.1567383, -0.8608398, 99.146347, 75.18293, 6.5243902, 0.0226596
0.2636719, -0.1347656, -0.8300781, 98.4756088, 73.8414688, 6.3414636, 0.0626078
0.2954102, -0.1469727, -0.7783203, 96.2195129, 70.6097565, 5.609756, 0.1092699
0.3173828, -0.1816406, -0.7739258, 95.7317123, 70.3658524, 5.1219511, 0.102388
0.3569336, -0.2382812, -0.8056641, 95.5487823, 71.8292694, 5.2439027, 0.0407874
0.3647461, -0.2495117, -0.828125, 95.7317123, 72.8658524, 5.7317076, -0.0438087
0.3647461, -0.2412109, -0.8735352, 96.2804871, 73.5975647, 7.0731707, -0.0985275
0.3369141, -0.2055664, -0.8828125, 95.6097565, 72.9268341, 6.890244, -0.1183337
0.3183594, -0.1835938, -0.8691406, 94.6341476, 70.1219559, 5.609756, -0.1109483
0.284668, -0.1538086, -0.8178711, 94.146347, 66.7073212, 4.3292685, -0.100206
0.284668, -0.1445312, -0.7895508, 94.0853653, 65.0609741, 3.6585367, -0.0847639
0.3178711, -0.1591797, -0.769043, 94.2073212, 63.2317085, 3.6585367, -0.0693217
0.3457031, -0.1762695, -0.7758789, 94.5121994, 63.2317085, 4.1463413, -0.0565652
0.3901367, -0.2011719, -0.7851562, 93.6585388, 64.6341476, 4.390244, -0.068986
0.4086914, -0.1967773, -0.7841797, 92.8048782, 65.2439041, 4.6341462, -0.1022202
0.4326172, -0.1865234, -0.8027344, 90.4268341, 65.6707306, 4.8170733, -0.1119554
0.4360352, -0.1860352, -0.824707, 88.9024429, 65.8536606, 4.9390244, -0.1116197
0.4194336, -0.1875, -0.8461914, 85.1219559, 68.3536606, 4.0243902, -0.1015488
0.3681641, -0.1875, -0.8325195, 83.0487823, 68.8414688, 3.2317073, -0.0854353
0.3413086, -0.1772461, -0.8188477, 80.7317123, 67.5, 2.2560976, -0.0720073
0.3237305, -0.1582031, -0.7822266, 79.5121994, 62.0731735, 2.2560976, -0.0424659
0.3295898, -0.1606445, -0.7685547, 79.2073212, 59.1463432, 2.1341465, -0.0273594
