Application:, Trigno Discover (1.6.5)
Date/Time:, 12/02/2025 16:33:35
Collection Length (seconds):, 32.9805
wrist (81457), , , , , , bicep (81139)
sensor mode: 609, , , , , , sensor mode: 40
ACC X (G), ACC Y (G), ACC Z (G), GYRO X (deg/s), GYRO Y (deg/s), GYRO Z (deg/s), EMG 1 (mV)
370.3704 Hz, 370.3704 Hz, 370.3704 Hz, 370.3704 Hz, 370.3704 Hz, 370.3704 Hz, 2148.1481 Hz
0.9716797, -0.0791016, -0.2167969, -16.9512196, -8.841464, 3.7804878, 0.0320592
0.9609375, -0.090332, -0.2294922, -16.7682934, -9.0853662, 3.8414636, 0.0209812
0.9614258, -0.0961914, -0.2368164, -16.280489, -9.9390249, 4.390244, 0.0052033
0.965332, -0.1025391, -0.2504883, -15.6097565, -10.2439022, 4.3292685, -0.0105745
0.9775391, -0.1000977, -0.2475586, -14.7560978, -10, 4.0243902, -0.0263523
0.9907227, -0.1005859, -0.2387695, -13.4146347, -9.0853662, 2.6829269, -0.0364233
0.9970703, -0.0996094, -0.234375, -12.6219511, -8.780488, 2.3780489, -0.0431373
0.996582, -0.090332, -0.2338867, -11.7073174, -8.1707315, 1.9512196, -0.0424659
0.9912109, -0.0844727, -0.2373047, -11.7073174, -7.9878049, 2.0731707, -0.0468299
0.9882812, -0.0688477, -0.2446289, -12.0731707, -8.2317076, 2.3780489, -0.0431373
0.9902344, -0.0644531, -0.2470703, -12.0731707, -8.9024391, 2.4390244, -0.0357519
0.9951172, -0.0527344, -0.2524414, -12.5, -9.0853662, 2.6219513, -0.030045
1, -0.0498047, -0.2578125, -12.3170738, -8.6585369, 2.6219513, -0.0298772
0.9941406, -0.0458984, -0.2612305, -12.7439032, -8.719512, 2.9268293, -0.0283665
0.9941406, -0.0473633, -0.2548828, -13.4756098, -8.4756098, 3.4146342, -0.0238346
0.9892578, -0.0517578, -0.2529297, -13.9024391, -8.4756098, 3.2926829, -0.0206455
0.987793, -0.0498047, -0.2358398, -14.2073174, -8.6585369, 3.4146342, -0.0149386
0.9829102, -0.0522461, -0.2280273, -14.5731707, -8.6585369, 3.7195122, -0.01561
0.9790039, -0.0668945, -0.21875, -15.1829271, -8.5365858, 3.5365853, -0.0179599
0.9736328, -0.0712891, -0.2172852, -15.060976, -8.6585369, 3.3536587, -0.0276951
0.9672852, -0.0717773, -0.2275391, -15.2439032, -9.2073174, 4.2682929, -0.0290379
0.9682617, -0.0732422, -0.2324219, -15.3048782, -9.3292685, 4.2682929, -0.0330663
0.9702148, -0.0683594, -0.2358398, -14.6951227, -9.4512196, 4.0853658, -0.0397803
0.9804688, -0.0610352, -0.2353516, -14.5731707, -9.2073174, 3.9024391, -0.0448157
0.9853516, -0.0600586, -0.2353516, -14.2682934, -8.780488, 3.7804878, -0.0491798
0.9838867, -0.0610352, -0.2397461, -14.9390249, -8.5365858, 3.6585367, -0.0485084
0.9819336, -0.0678711, -0.2387695, -15.4878054, -9.0243902, 3.8414636, -0.0498512
0.9799805, -0.078125, -0.2387695, -15.9146347, -9.0243902, 3.9024391, -0.0538796
0.9790039, -0.0834961, -0.2387695, -15.9146347, -9.4512196, 4.0243902, -0.0595865
0.9799805, -0.0849609, -0.2348633, -15.5487804, -9.3292685, 4.1463413, -0.0659648
0.9814453, -0.0869141, -0.2319336, -14.8780489, -9.2682924, 4.0853658, -0.0693217
0.9819336, -0.0854492, -0.2338867, -14.1463413, -9.0243902, 3.3536587, -0.0639506
0.9804688, -0.0844727, -0.2314453, -13.9634151, -8.841464, 3.1097562, -0.0572366
0.9799805, -0.0800781, -0.2304688, -13.4146347, -8.5975609, 2.8658538, -0.0438087
0.980957, -0.0776367, -0.237793, -13.4756098, -8.4756098, 2.6219513, -0.0377661
0.980957, -0.0732422, -0.2397461, -13.5975609, -8.719512, 2.804878, -0.0287022
0.9775391, -0.0649414, -0.2446289, -13.9024391, -8.780488, 3.1097562, -0.0303807
0.9750977, -0.0649414, -0.2441406, -14.0853662, -8.780488, 3.1097562, -0.0404517
0.9819336, -0.0625, -0.2426758, -13.5365858, -8.4756098, 2.7439024, -0.0585794
0.9780273, -0.0649414, -0.2485352, -13.5975609, -8.4146347, 2.6829269, -0.0699931
0.9785156, -0.0756836, -0.2509766, -13.7195129, -8.1707315, 2.5, -0.068986
0.9780273, -0.0830078, -0.25, -13.841464, -8.2926826, 2.5609756, -0.0594186
0.9799805, -0.0786133, -0.246582, -13.7195129, -8.0487804, 3.0487804, -0.051194
0.9848633, -0.0776367, -0.2382812, -13.5975609, -7.6219516, 3.1097562, -0.0404517
0.980957, -0.0566406, -0.2285156, -12.6829271, -7.2560978, 2.6219513, -0.0280308
0.980957, -0.0390625, -0.2319336, -12.3170738, -7.4390244, 2.3780489, -0.0182956
0.980957, -0.0356445, -0.2363281, -12.6219511, -7.7439027, 2.4390244, -0.0072175
0.9882812, -0.0449219, -0.2460938, -13.6585369, -8.4756098, 3.2317073, -0.0062104
0.987793, -0.0522461, -0.246582, -14.0853662, -8.4146347, 3.4756098, -0.0015106
0.9868164, -0.059082, -0.2421875, -14.2073174, -8.4756098, 3.5975611, 0.0038605
0.9848633, -0.0678711, -0.2358398, -14.2073174, -8.4756098, 3.9024391, 0.0151064
0.9804688, -0.0639648, -0.234375, -13.2926836, -7.6219516, 3.6585367, 0.0223239
0.9785156, -0.0649414, -0.2314453, -13.1707315, -7.6829271, 3.5365853, 0.0184634
0.9726562, -0.0649414, -0.2358398, -13.1707315, -7.9268293, 3.3536587, 0.0159457
0.9765625, -0.0668945, -0.2348633, -12.6829271, -8.1097565, 3.2317073, 0.0179599
0.9838867, -0.0688477, -0.2324219, -12.5, -8.4756098, 3.2317073, 0.0191348
0.987793, -0.0771484, -0.2338867, -12.2560978, -8.4756098, 3.0487804, 0.0182956
0.9863281, -0.0810547, -0.2324219, -11.5853662, -8.2317076, 2.7439024, 0.0099031
0.9775391, -0.0859375, -0.2319336, -10.6097565, -7.9878049, 2.9268293, -0.0015106
0.9726562, -0.0864258, -0.2265625, -10.4268293, -7.8048782, 2.8658538, -0.0176242
0.9677734, -0.0776367, -0.2133789, -8.841464, -8.1097565, 2.4390244, -0.0285344
0.9658203, -0.0791016, -0.2099609, -7.6219516, -8.5975609, 1.9512196, -0.0344091
0.9638672, -0.0761719, -0.2109375, -5.9756098, -9.3292685, 1.097561, -0.0377661
0.9619141, -0.0839844, -0.2128906, -5.3048782, -9.5731707, 0.9146342, -0.043473
0.9702148, -0.097168, -0.2167969, -4.6341462, -10.060976, 1.1585366, -0.0468299
0.9726562, -0.1005859, -0.2158203, -4.1463413, -10.2439022, 1.2195122, -0.0486763
0.972168, -0.1152344, -0.222168, -1.7682927, -10.4878054, 0.6707317, -0.0486763
0.9667969, -0.1152344, -0.2412109, -0.2439024, -10.9146347, 0.4268293, -0.0370947
0.9609375, -0.1118164, -0.2480469, 3.9634147, -12.0121956, 0.1219512, -0.0152743
0.96875, -0.0981445, -0.262207, 7.6219516, -12.8658543, -0.5487805, 0.0058747
0.9741211, -0.0917969, -0.2661133, 9.0243902, -12.8658543, -1.0365853, 0.0270237
0.9863281, -0.0805664, -0.2724609, 11.0365858, -12.3780489, -1.7682927, 0.0508583
0.9882812, -0.0776367, -0.2753906, 11.219512, -12.1341467, -2.195122, 0.0693217
0.9863281, -0.059082, -0.2768555, 10.8536587, -11.341464, -1.8902439, 0.0777142
0.9780273, -0.0541992, -0.2797852, 10.3658543, -11.219512, -1.6463414, 0.0767071
0.9741211, -0.0336914, -0.277832, 8.719512, -10.9146347, -1.2195122, 0.0649577
0.9731445, -0.0283203, -0.2763672, 7.8658538, -10.7926836, -1.2195122, 0.0552224
0.9731445, -0.0351562, -0.2695312, 5.4268293, -10.7317076, -1.2804878, 0.0426337
0.9736328, -0.0454102, -0.265625, 4.390244, -10.6707315, -0.8536586, 0.0313878
0.9804688, -0.0507812, -0.2651367, 2.9268293, -10.4268293, 0.1219512, 0.0240024
0.9775391, -0.0458984, -0.2548828, 1.6463414, -9.6951218, 0.3048781, 0.0130922
0.9760742, -0.050293, -0.2470703, 1.0365853, -9.2682924, 0.2439024, 0.0045319
0.9648438, -0.0532227, -0.2368164, 0, -8.3536587, 0.3048781, 0.0031891
0.9628906, -0.0595703, -0.2368164, -0.1829268, -8.6585369, 0.4268293, -0.0048676
0.956543, -0.0727539, -0.2363281, -0.6097561, -8.5975609, 0.6707317, -0.0135958
0.9560547, -0.0849609, -0.2387695, -0.6097561, -8.719512, 0.9146342, -0.0270237
0.9628906, -0.0932617, -0.2412109, -0.3658537, -9.2073174, 1.3414634, -0.0411231
0.9619141, -0.0888672, -0.2416992, -0.3658537, -8.841464, 1.1585366, -0.0652934
0.9628906, -0.0883789, -0.2416992, 0.2439024, -8.3536587, 0.4878049, -0.0981918
0.9677734, -0.0849609, -0.2412109, -0.1219512, -7.9878049, 0.2439024, -0.1164874
0.9702148, -0.0849609, -0.2412109, -0.8536586, -7.8048782, -0.3658537, -0.1257191
0.9790039, -0.0791016, -0.2324219, -1.7073171, -7.6219516, -0.1829268, -0.1290761
0.9829102, -0.0742188, -0.2241211, -2.0121951, -7.4390244, -0.4268293, -0.1337758
0.980957, -0.0634766, -0.215332, -2.5, -7.1951222, -0.4878049, -0.1344472
0.9770508, -0.0629883, -0.2143555, -2.5, -6.8292685, -0.4268293, -0.13579
0.965332, -0.0566406, -0.2197266, -2.804878, -6.5853658, -0.7317073, -0.1307546
0.9628906, -0.0493164, -0.2231445, -3.1097562, -6.5853658, -0.3658537, -0.1166552
0.9614258, -0.0541992, -0.2260742, -4.6341462, -7.2560978, -0.4268293, -0.0908064
0.9624023, -0.0595703, -0.2280273, -5.1829271, -7.2560978, -0.3658537, -0.0458228
0.9663086, -0.074707, -0.2285156, -6.0365853, -7.8658538, -0.5487805, -0.0015106
0.9711914, -0.0820312, -0.2241211, -5.9756098, -7.8658538, -0.5487805, 0.0404517
0.96875, -0.0825195, -0.2255859, -5.9756098, -7.3780489, 0, 0.072343
0.965332, -0.0756836, -0.2197266, -5.670732, -7.0121951, -0.1829268, 0.0909743
0.9648438, -0.0644531, -0.2128906, -5.3048782, -7.3780489, -0.2439024, 0.0958419
0.9619141, -0.0483398, -0.2075195, -5.2439027, -7.1341467, -0.7317073, 0.0877852
0.9628906, -0.0429688, -0.2182617, -5.4268293, -7.5609756, -0.6097561, 0.0636149
0.9614258, -0.0478516, -0.2373047, -7.1951222, -8.0487804, -0.0609756, 0.0397803
0.9638672, -0.0541992, -0.2480469, -8.1707315, -7.8658538, 0.6097561, 0.0179599
0.972168, -0.0585938, -0.2539062, -9.0853662, -7.9268293, 1.4634147, -0.0001678
0.9750977, -0.0615234, -0.2519531, -9.3902445, -7.8658538, 1.402439, -0.0149386
0.9775391, -0.0595703, -0.2397461, -9.5121956, -7.2560978, 0.9756098, -0.0320592
0.9648438, -0.0605469, -0.234375, -9.6951218, -6.890244, 0.5487805, -0.0394446
0.96875, -0.059082, -0.2275391, -9.8170738, -6.890244, 0.6097561, -0.0471656
0.9628906, -0.0664062, -0.2338867, -10.4878054, -7.3170733, 0.9146342, -0.0616007
0.9643555, -0.0698242, -0.237793, -10.9146347, -7.0731707, 1.3414634, -0.0686503
0.9619141, -0.0698242, -0.2495117, -11.7073174, -7.5, 1.7682927, -0.0669718
0.9663086, -0.0761719, -0.2475586, -11.7073174, -7.6829271, 1.8292683, -0.0565652
0.9697266, -0.0712891, -0.2407227, -11.8292685, -7.3780489, 1.402439, -0.0424659
0.9638672, -0.0654297, -0.2397461, -11.7682934, -6.8292685, 1.2195122, -0.0287022
0.9633789, -0.0498047, -0.2275391, -10.7926836, -6.280488, 1.0365853, -0.0149386
0.9663086, -0.0488281, -0.2294922, -10.5487804, -6.4024391, 0.8536586, 0.0011749
0.9746094, -0.0517578, -0.2338867, -11.219512, -6.890244, 0.9146342, 0.0115816
0.9819336, -0.0610352, -0.2426758, -11.5243902, -7.0121951, 1.0365853, 0.0166171
0.9863281, -0.0722656, -0.2475586, -12.0121956, -6.8292685, 1.2804878, 0.0142672
0.9848633, -0.0849609, -0.2456055, -12.8048782, -6.4024391, 1.2195122, 0.0182956
0.9858398, -0.0893555, -0.2460938, -12.6829271, -6.2195125, 1.1585366, 0.0213169
0.9829102, -0.0810547, -0.2373047, -12.0121956, -5.3048782, 0.9146342, 0.0213169
0.9785156, -0.0712891, -0.237793, -11.5853662, -5.0609756, 0.7317073, 0.0219883
0.9780273, -0.0654297, -0.2460938, -11.5853662, -5.1219511, 0.6097561, 0.014435
0.9750977, -0.0625, -0.2490234, -12.0121956, -5.0609756, 0.8536586, 0.0109102
0.9829102, -0.0673828, -0.2553711, -12.9268293, -5.1829271, 0.7926829, 0.0099031
0.9863281, -0.0639648, -0.2558594, -13.3536587, -5.3048782, 0.8536586, 0.0016785
0.9873047, -0.0629883, -0.2607422, -13.4146347, -5.1219511, 1.097561, -0.0025177
0.9873047, -0.0693359, -0.2563477, -13.2926836, -4.6341462, 0.5487805, -0.0112459
0.9794922, -0.0703125, -0.2524414, -13.1707315, -4.390244, 0.5487805, -0.0223239
0.9814453, -0.0732422, -0.2456055, -13.4756098, -4.7560978, 0.7317073, -0.0270237
0.9750977, -0.0791016, -0.2426758, -13.4756098, -4.5121951, 0.4268293, -0.0297093
0.9672852, -0.0742188, -0.2363281, -13.1097565, -4.5121951, 0.4268293, -0.0377661
0.9692383, -0.0693359, -0.230957, -12.7439032, -4.390244, 0.2439024, -0.0498512
0.9697266, -0.0600586, -0.2192383, -12.6219511, -4.8170733, 0, -0.0565652
0.9692383, -0.0512695, -0.2148438, -12.5, -4.8780489, -0.1829268, -0.0592508
0.9741211, -0.0488281, -0.2099609, -12.6219511, -5, -0.1219512, -0.0622721
0.9711914, -0.0571289, -0.2246094, -12.7439032, -5.3658538, 0.1829268, -0.0619364
0.9707031, -0.0585938, -0.2275391, -13.4146347, -5.609756, 0.8536586, -0.0589151
0.9682617, -0.0639648, -0.2177734, -13.4756098, -6.2195125, 1.1585366, -0.0647898
0.972168, -0.0678711, -0.2138672, -12.9268293, -6.4024391, 1.0365853, -0.0683146
0.9716797, -0.0717773, -0.2133789, -12.1341467, -6.4024391, 0.6707317, -0.0642863
0.9726562, -0.0722656, -0.2133789, -11.8902445, -6.5243902, 0.6707317, -0.0592508
0.9658203, -0.074707, -0.2192383, -11.7073174, -6.7073174, 0.7926829, -0.0538796
0.9648438, -0.0722656, -0.2250977, -12.0121956, -6.8292685, 1.2804878, -0.0438087
0.9736328, -0.0678711, -0.2299805, -11.8902445, -7.9268293, 1.5853659, -0.0317235
0.9829102, -0.0683594, -0.2333984, -11.7682934, -7.9878049, 1.2804878, -0.0270237
0.9892578, -0.0712891, -0.2392578, -11.7073174, -7.9268293, 1.5243902, -0.0216526
0.9892578, -0.0654297, -0.2446289, -11.7073174, -7.6219516, 1.6463414, -0.0159457
0.9873047, -0.0644531, -0.2460938, -12.0121956, -7.3780489, 1.7682927, -0.01561
0.9838867, -0.0664062, -0.2421875, -12.1341467, -7.2560978, 2.0731707, -0.0162814
0.9804688, -0.0693359, -0.2392578, -12.0121956, -7.5, 1.6463414, -0.0203098
0.9833984, -0.0771484, -0.246582, -11.280488, -7.6829271, 1.8902439, -0.0260166
0.984375, -0.0810547, -0.2470703, -11.341464, -7.8658538, 1.8292683, -0.0276951
0.9838867, -0.0874023, -0.2421875, -10.9756098, -7.5609756, 1.2804878, -0.033402
0.987793, -0.0932617, -0.2387695, -11.0975609, -7.4390244, 1.2195122, -0.0330663
0.9833984, -0.0981445, -0.2280273, -10.4878054, -7.0121951, 0.5487805, -0.0384375
0.9814453, -0.0961914, -0.2231445, -10.2439022, -6.9512196, 0.5487805, -0.0404517
0.9760742, -0.090332, -0.2172852, -9.7560978, -7.0731707, 0.4878049, -0.04448
0.980957, -0.0854492, -0.222168, -9.3292685, -7.5, 0.3658537, -0.0411231
0.9853516, -0.0864258, -0.2226562, -9.0243902, -8.2317076, 0.2439024, -0.0352483
0.9960938, -0.0825195, -0.2250977, -9.1463413, -8.4146347, 0.0609756, -0.0377661
0.9975586, -0.0776367, -0.2241211, -9.1463413, -8.719512, 0, -0.0310521
1.0014648, -0.0717773, -0.2236328, -9.5121956, -7.9268293, 0.3658537, -0.0256809
0.9985352, -0.0688477, -0.2280273, -9.7560978, -7.5, 0.4878049, -0.026688
0.9848633, -0.0683594, -0.2387695, -9.6951218, -8.1707315, 0.8536586, -0.0310521
0.9848633, -0.0693359, -0.2436523, -9.5121956, -8.719512, 0.9756098, -0.033402
0.9853516, -0.0625, -0.2519531, -9.3902445, -9.5731707, 1.1585366, -0.0397803
0.9873047, -0.0649414, -0.2504883, -9.1463413, -9.5731707, 1.1585366, -0.0451514
0.9833984, -0.0654297, -0.2475586, -9.0853662, -9.1463413, 0.5487805, -0.0491798
0.9750977, -0.0732422, -0.2363281, -8.9024391, -9.0243902, 0.4268293, -0.0505226
0.9726562, -0.0776367, -0.2324219, -9.0243902, -8.9634151, 0.4268293, -0.0495155
0.9584961, -0.0791016, -0.2236328, -8.780488, -9.0853662, 0.7317073, -0.0493477
0.9555664, -0.0825195, -0.2207031, -8.3536587, -8.9634151, 0.8536586, -0.0506905
0.9604492, -0.0737305, -0.2089844, -7.7439027, -9.4512196, 0.6707317, -0.0485084
0.9638672, -0.0698242, -0.2050781, -7.3170733, -9.6951218, 0.3658537, -0.0458228
0.9702148, -0.0629883, -0.1982422, -6.5853658, -9.9390249, -0.2439024, -0.0411231
0.9707031, -0.0600586, -0.2016602, -6.5243902, -9.8780489, -0.1829268, -0.0364233
0.9726562, -0.0527344, -0.222168, -6.890244, -10.060976, 0.1829268, -0.0303807
0.9736328, -0.0556641, -0.2319336, -7.6829271, -10.1219511, 0.5487805, -0.0203098
0.9746094, -0.0678711, -0.2441406, -8.5365858, -10.4268293, 1.2195122, -0.0068818
0.9780273, -0.0771484, -0.2402344, -8.9634151, -10.7926836, 1.097561, 0.0036927
0.9775391, -0.0761719, -0.2368164, -8.1707315, -10.7926836, 0.9146342, 0.0139315
0.9824219, -0.0805664, -0.230957, -7.4390244, -10, 0.1829268, 0.0223239
0.9785156, -0.078125, -0.2265625, -7.1341467, -9.8780489, 0.1219512, 0.0172885
0.9711914, -0.059082, -0.2285156, -7.1341467, -9.8170738, 0.1829268, 0.0052033
0.9736328, -0.0517578, -0.2304688, -7.3780489, -9.6341467, 0.4268293, -0.011078
0.9716797, -0.043457, -0.2431641, -8.719512, -10.1219511, 0.6707317, -0.026688
0.9760742, -0.0424805, -0.2509766, -9.3902445, -10.3658543, 0.9146342, -0.0412909
0.9814453, -0.0571289, -0.2626953, -11.219512, -10.6707315, 1.5243902, -0.0532082
0.9853516, -0.065918, -0.2675781, -11.9512196, -10.6097565, 1.7073171, -0.0592508
0.9887695, -0.0722656, -0.2617188, -12.560976, -10.060976, 2.0121951, -0.0666361
0.9848633, -0.0849609, -0.2558594, -12.3780489, -9.9390249, 2.195122, -0.0736858
0.9790039, -0.0834961, -0.2524414, -12.4390249, -9.2073174, 1.6463414, -0.082414
0.9736328, -0.0849609, -0.2524414, -12.3780489, -8.719512, 1.5243902, -0.0874495
0.9731445, -0.0844727, -0.2519531, -12.3780489, -8.841464, 1.5853659, -0.082414
0.9794922, -0.0800781, -0.253418, -11.7073174, -9.0243902, 1.5243902, -0.0708324
0.9853516, -0.078125, -0.2495117, -12.0731707, -8.9024391, 1.3414634, -0.0552224
0.9887695, -0.0712891, -0.2451172, -12.2560978, -8.841464, 0.7926829, -0.0397803
0.9897461, -0.0615234, -0.2431641, -12.2560978, -8.3536587, 0.6097561, -0.0229953
0.9887695, -0.0576172, -0.2421875, -12.7439032, -7.8658538, 0.7317073, -0.0139315
0.9838867, -0.0556641, -0.2441406, -13.1707315, -7.6829271, 1.097561, -0.0102388
0.9755859, -0.0522461, -0.2480469, -14.2682934, -7.8658538, 1.3414634, -0.0063783
0.972168, -0.0473633, -0.2382812, -14.3902445, -7.7439027, 1.7682927, -0.0028534
0.9716797, -0.0532227, -0.2329102, -14.8780489, -7.9878049, 1.6463414, 0.0058747
0.9755859, -0.0561523, -0.2255859, -15.2439032, -8.0487804, 1.2804878, 0.0085603
0.9790039, -0.0610352, -0.2260742, -15.2439032, -7.6219516, 1.097561, 0.0068818
0.96875, -0.065918, -0.2265625, -15.8536587, -7.6219516, 1.097561, 0.0129244
0.9726562, -0.0703125, -0.2329102, -16.0365849, -7.7439027, 1.5243902, 0.0112459
0.9736328, -0.074707, -0.2260742, -16.280489, -7.9878049, 1.8902439, 0.0065461
0.9750977, -0.0727539, -0.2280273, -16.2195129, -8.1707315, 2.1341465, -0.005539
0.9736328, -0.0703125, -0.2260742, -15.9146347, -7.9268293, 1.8292683, -0.0193027
0.9755859, -0.065918, -0.2255859, -15.3658543, -7.8658538, 1.7682927, -0.0216526
0.9697266, -0.0620117, -0.2231445, -15.3048782, -8.0487804, 1.097561, -0.0276951
0.9667969, -0.0600586, -0.2158203, -15.3048782, -8.2317076, 1.2195122, -0.0229953
0.9658203, -0.0595703, -0.2148438, -15.4878054, -8.719512, 1.4634147, -0.0206455
0.9736328, -0.0654297, -0.2167969, -15.4268293, -9.1463413, 1.5243902, -0.0199741
0.9716797, -0.0737305, -0.2241211, -15.4878054, -9.6341467, 1.7682927, -0.0209812
0.9799805, -0.0688477, -0.2304688, -14.8170738, -9.6951218, 2.0121951, -0.0223239
0.9804688, -0.0737305, -0.2304688, -14.7560978, -10, 1.9512196, -0.0162814
0.9833984, -0.0693359, -0.2299805, -14.0243902, -9.8780489, 1.7682927, -0.0095674
0.9833984, -0.0688477, -0.2294922, -13.9024391, -9.8780489, 1.7073171, -0.0132601
0.9814453, -0.0708008, -0.2290039, -14.3292685, -9.7560978, 1.7073171, -0.0135958
0.9819336, -0.0703125, -0.230957, -14.4512196, -9.5121956, 1.9512196, -0.0162814
0.9731445, -0.0703125, -0.2285156, -15.3658543, -9.4512196, 2.4390244, -0.0135958
0.9741211, -0.0595703, -0.2290039, -15.3048782, -9.6341467, 2.6829269, -0.0115816
0.9765625, -0.0537109, -0.2285156, -14.3902445, -9.6951218, 2.2560976, -0.0095674
0.9780273, -0.0507812, -0.2382812, -14.5121956, -9.9390249, 2.0121951, -0.0070497
0.9814453, -0.0517578, -0.2451172, -14.8170738, -9.9390249, 2.2560976, -0.0031891
0.9863281, -0.0698242, -0.2480469, -15.7317076, -9.8780489, 2.7439024, 0.0025177
0.9887695, -0.0766602, -0.2475586, -16.0365849, -9.8780489, 2.5609756, 0.0065461
0.9892578, -0.0805664, -0.2358398, -15.9756098, -9.5121956, 2.5609756, 0.0119173
0.987793, -0.0825195, -0.2314453, -15.4878054, -9.3902445, 2.195122, 0.0146029
0.984375, -0.0810547, -0.2202148, -14.9390249, -9.2682924, 1.8902439, 0.0092317
0.9760742, -0.0820312, -0.2192383, -14.8170738, -9.3292685, 1.7073171, 0.0065461
0.9658203, -0.0859375, -0.215332, -14.7560978, -9.0853662, 1.8292683, -0.0057069
0.9677734, -0.0791016, -0.215332, -14.6951227, -9.2682924, 1.9512196, -0.0162814
0.9726562, -0.0756836, -0.2167969, -14.3902445, -9.2682924, 1.7682927, -0.0196384
0.9702148, -0.0566406, -0.2114258, -14.1463413, -9.8170738, 1.5853659, -0.014435
0.9760742, -0.0551758, -0.2099609, -13.9024391, -9.5731707, 1.5243902, -0.005539
0.9819336, -0.0498047, -0.2124023, -14.3902445, -9.5121956, 1.5853659, -0.0028534
0.9814453, -0.046875, -0.2119141, -14.9390249, -9.5121956, 1.8902439, -0.0090639
0.9770508, -0.0463867, -0.2133789, -16.2195129, -9.5731707, 2.5, -0.0129244
0.972168, -0.043457, -0.2202148, -16.6463413, -10, 2.5609756, -0.0105745
0.9746094, -0.0463867, -0.2236328, -16.8292694, -11.0365858, 2.7439024, -0.0146029
0.9775391, -0.0537109, -0.2216797, -17.1341476, -11.0975609, 2.804878, -0.0199741
0.9760742, -0.0654297, -0.2211914, -17.1341476, -11.0975609, 2.5, -0.0206455
0.9790039, -0.0737305, -0.2124023, -16.8292694, -10.8536587, 2.3170731, -0.0209812
0.9750977, -0.0717773, -0.2084961, -17.1341476, -10.060976, 2.5609756, -0.0276951
0.9711914, -0.0620117, -0.2075195, -17.1341476, -9.6341467, 2.4390244, -0.0307164
0.96875, -0.0581055, -0.203125, -16.8292694, -9.6951218, 2.2560976, -0.0223239
0.9633789, -0.0654297, -0.2109375, -16.7073174, -10.3658543, 2.2560976, -0.0139315
0.9643555, -0.0678711, -0.215332, -16.6463413, -10.4268293, 2.3170731, -0.014435
0.9711914, -0.078125, -0.2241211, -17.1951218, -10.7926836, 2.6219513, -0.0169528
0.9755859, -0.0830078, -0.2275391, -17.3170738, -10.7926836, 2.5609756, -0.0209812
0.9790039, -0.0888672, -0.2270508, -16.9512196, -10.7317076, 2.804878, -0.0273594
0.9746094, -0.090332, -0.2260742, -16.7073174, -10.4268293, 2.4390244, -0.024506
0.9750977, -0.0849609, -0.2348633, -15.8536587, -10.1829271, 2.0731707, -0.0303807
0.9780273, -0.0727539, -0.2329102, -15.7317076, -9.8780489, 1.8902439, -0.0303807
0.9838867, -0.0683594, -0.2333984, -15.7926836, -9.9390249, 1.7073171, -0.0323949
0.9868164, -0.0644531, -0.237793, -16.0365849, -10, 1.8902439, -0.033402
0.9838867, -0.0629883, -0.2416992, -16.1585369, -10.060976, 1.7073171, -0.0357519
0.9770508, -0.0600586, -0.2470703, -17.2560978, -9.8780489, 2.0121951, -0.0337377
0.9726562, -0.0634766, -0.2485352, -17.0121956, -9.8780489, 2.3780489, -0.0260166
0.9663086, -0.0634766, -0.2509766, -17.0121956, -9.8780489, 2.804878, -0.012253
0.9716797, -0.0664062, -0.2470703, -16.7682934, -9.6951218, 2.8658538, 0.0085603
0.9746094, -0.0688477, -0.2485352, -16.6463413, -9.3292685, 2.8658538, 0.0256809
0.9736328, -0.0683594, -0.2509766, -16.7073174, -8.841464, 2.804878, 0.033402
0.9702148, -0.0742188, -0.2514648, -16.8902435, -8.9024391, 2.7439024, 0.0374304
0.9785156, -0.0786133, -0.2402344, -17.1951218, -8.719512, 2.5, 0.0347448
0.984375, -0.0776367, -0.2294922, -16.5243912, -8.3536587, 2.3780489, 0.0253452
0.9829102, -0.0751953, -0.2241211, -15.7926836, -8.0487804, 2.0731707, 0.0196384
0.9799805, -0.0698242, -0.2260742, -15.6097565, -7.5609756, 2.0121951, 0.0112459
0.9755859, -0.0551758, -0.2314453, -15.4878054, -7.5, 2.4390244, 0.0072175
0.9755859, -0.0517578, -0.2348633, -15.8536587, -7.5609756, 2.6219513, 0.008896
0.9750977, -0.046875, -0.2324219, -16.5853653, -7.7439027, 2.5, 0.0052033
0.9804688, -0.046875, -0.2324219, -16.8292694, -7.8048782, 2.3170731, 0.0005035
0.9858398, -0.0610352, -0.2211914, -17.1341476, -7.8658538, 2.0731707, -0.0001678
0.9833984, -0.0654297, -0.2172852, -17.439024, -8.0487804, 2.195122, 0.0038605
0.9814453, -0.0864258, -0.2045898, -17.1951218, -7.5, 2.0121951, 0.0135958
0.96875, -0.0952148, -0.1928711, -17.0731716, -6.890244, 1.7682927, 0.0139315
0.9628906, -0.097168, -0.1889648, -16.4634151, -6.6463418, 1.6463414, 0.014435
0.9448242, -0.0952148, -0.1972656, -14.8780489, -7.0731707, 1.3414634, 0.0104067
0.9389648, -0.0922852, -0.2094727, -14.5731707, -7.5, 1.5853659, 0.0058747
0.9370117, -0.0888672, -0.2299805, -13.841464, -8.5975609, 1.4634147, -0.0052033
0.9467773, -0.0913086, -0.2392578, -13.780488, -8.841464, 1.7073171, -0.0135958
0.9575195, -0.0820312, -0.2504883, -13.780488, -8.841464, 1.5243902, -0.0226596
0.9628906, -0.0761719, -0.2470703, -13.4146347, -9.0243902, 1.5243902, -0.0263523
0.9794922, -0.0654297, -0.2421875, -12.9268293, -8.5365858, 0.9146342, -0.0285344
0.9829102, -0.0576172, -0.2358398, -12.6219511, -8.2926826, 0.9146342, -0.0350805
0.9897461, -0.046875, -0.2280273, -12.2560978, -8.2317076, 0.7317073, -0.0381018
0.9926758, -0.0478516, -0.2338867, -13.2317076, -8.4756098, 1.097561, -0.0344091
0.9985352, -0.0546875, -0.2353516, -13.7195129, -8.5975609, 1.5853659, -0.0350805
0.9960938, -0.0610352, -0.2387695, -14.3902445, -8.719512, 2.4390244, -0.0370947
0.9975586, -0.0644531, -0.237793, -14.4512196, -8.3536587, 2.6219513, -0.0377661
0.9926758, -0.0595703, -0.2338867, -13.9634151, -8.0487804, 2.4390244, -0.0431373
0.9829102, -0.0605469, -0.2304688, -13.2926836, -8.1707315, 2.5, -0.0461585
0.9804688, -0.0541992, -0.2416992, -12.8658543, -7.5609756, 1.9512196, -0.0530404
0.9790039, -0.050293, -0.2431641, -12.8658543, -7.6829271, 2.195122, -0.0565652
0.9819336, -0.0576172, -0.253418, -13.7195129, -8.4756098, 2.3170731, -0.0555581
0.9853516, -0.0629883, -0.2524414, -14.2682934, -8.780488, 2.6219513, -0.0542153
0.9941406, -0.0766602, -0.246582, -14.2073174, -8.5975609, 2.6829269, -0.0495155
1.0009766, -0.0717773, -0.2407227, -13.3536587, -7.9878049, 2.3780489, -0.0525368
0.9985352, -0.0703125, -0.2368164, -12.9878054, -7.8048782, 2.5, -0.0540475
0.9970703, -0.065918, -0.2290039, -12.6829271, -7.3780489, 2.1341465, -0.0592508
0.9970703, -0.0668945, -0.2255859, -12.4390249, -7.4390244, 1.8902439, -0.0661326
1.0014648, -0.0698242, -0.2231445, -12.6219511, -7.6219516, 1.6463414, -0.0736858
0.996582, -0.0756836, -0.2241211, -12.560976, -7.5, 1.5853659, -0.0897993
0.9960938, -0.0766602, -0.2290039, -13.2926836, -7.1951222, 1.8902439, -0.0985275
0.9931641, -0.0756836, -0.2290039, -12.7439032, -6.9512196, 2.0731707, -0.0975204
0.9858398, -0.0771484, -0.2319336, -13.0487804, -6.4634147, 2.1341465, -0.0938277
0.980957, -0.0742188, -0.2246094, -13.1707315, -6.4024391, 2.0121951, -0.0988632
0.980957, -0.074707, -0.2265625, -12.9268293, -6.5853658, 1.3414634, -0.1032273
0.9921875, -0.0737305, -0.2192383, -13.0487804, -6.9512196, 0.6097561, -0.1082628
0.9946289, -0.0766602, -0.2182617, -12.8048782, -6.890244, 0.6707317, -0.1129625
0.9985352, -0.0732422, -0.2163086, -12.9878054, -6.890244, 0.4268293, -0.0998703
0.9995117, -0.0717773, -0.2172852, -13.0487804, -6.7682929, 0.5487805, -0.0867781
0.9897461, -0.0581055, -0.2172852, -13.3536587, -6.0365853, 0.8536586, -0.0649577
0.9848633, -0.0507812, -0.2158203, -13.2317076, -6.1585369, 0.9146342, -0.0391089
0.9819336, -0.0390625, -0.2172852, -13.780488, -6.0365853, 0.6707317, -0.0159457
0.9785156, -0.0380859, -0.2177734, -13.841464, -6.4024391, 0.6707317, 0.0092317
0.9794922, -0.0478516, -0.2211914, -14.7560978, -6.5243902, 0.7926829, 0.0332341
0.9829102, -0.0620117, -0.2158203, -15.1219511, -6.0365853, 1.097561, 0.0475013
0.9804688, -0.0693359, -0.2148438, -15.6707325, -5.9146342, 1.5853659, 0.0609293
0.9697266, -0.0761719, -0.2211914, -15.8536587, -5.609756, 1.402439, 0.072343
0.9663086, -0.0698242, -0.2290039, -15.6097565, -5.4878049, 1.5853659, 0.0864424
0.9624023, -0.050293, -0.2333984, -15.060976, -5.4268293, 1.5243902, 0.0894636
0.9628906, -0.0439453, -0.2333984, -15, -5.609756, 1.4634147, 0.085771
0.9731445, -0.0332031, -0.2314453, -14.6341467, -5.5487804, 1.097561, 0.0777142
0.9804688, -0.0297852, -0.2338867, -14.8780489, -5.2439027, 1.2195122, 0.068986
0.9848633, -0.0415039, -0.2392578, -16.7682934, -4.5731707, 1.6463414, 0.0562295
0.9794922, -0.0454102, -0.2416992, -17.439024, -4.8170733, 2.1341465, 0.0428016
0.9760742, -0.0517578, -0.2314453, -18.2926826, -4.6341462, 2.9268293, 0.0297093
0.9794922, -0.0566406, -0.215332, -18.2317085, -4.6341462, 3.0487804, 0.018967
0.9790039, -0.0595703, -0.2055664, -17.3170738, -4.7560978, 2.3170731, 0.0085603
0.9731445, -0.0600586, -0.2050781, -16.5853653, -4.8170733, 1.8292683, -0.002182
0.9790039, -0.0644531, -0.2094727, -16.280489, -4.9390244, 1.6463414, -0.0109102
0.9858398, -0.0708008, -0.2163086, -16.7682934, -5.4268293, 2.4390244, -0.0196384
0.9892578, -0.0766602, -0.2182617, -16.8292694, -5.609756, 2.5, -0.0216526
0.9926758, -0.0737305, -0.2231445, -16.8902435, -6.0975609, 2.5609756, -0.0203098
0.9956055, -0.0683594, -0.2192383, -16.7073174, -6.0365853, 2.6219513, -0.0243381
0.9951172, -0.0634766, -0.2163086, -16.1585369, -5.8536587, 2.5, -0.0243381
0.9960938, -0.0654297, -0.2143555, -15.7317076, -5.9146342, 2.3780489, -0.0256809
0.9863281, -0.0737305, -0.2119141, -16.0975609, -6.0975609, 2.3170731, -0.0337377
0.9863281, -0.0839844, -0.2036133, -16.3414631, -6.280488, 2.3170731, -0.0438087
0.9853516, -0.0888672, -0.2006836, -16.5243912, -6.5853658, 2.5, -0.0488441
0.9829102, -0.09375, -0.1884766, -15.8536587, -6.7073174, 2.5609756, -0.0542153
0.9755859, -0.0942383, -0.1845703, -15.1219511, -6.6463418, 2.0121951, -0.057908
0.9716797, -0.0922852, -0.1889648, -14.5121956, -6.7682929, 1.9512196, -0.0639506
0.9658203, -0.0917969, -0.1948242, -14.0853662, -6.7073174, 1.7073171, -0.0636149
0.9624023, -0.0908203, -0.1948242, -13.5975609, -7.4390244, 1.8902439, -0.0626078
0.9633789, -0.0922852, -0.1918945, -12.9878054, -7.8048782, 1.8902439, -0.0602579
0.9711914, -0.0844727, -0.1806641, -12.3170738, -7.6219516, 1.3414634, -0.0498512
0.9711914, -0.081543, -0.184082, -11.8902445, -7.5, 1.0365853, -0.0352483
0.9643555, -0.0849609, -0.1943359, -11.4634151, -7.2560978, 0.6097561, -0.0256809
0.965332, -0.0922852, -0.206543, -11.7073174, -7.5, 0.8536586, -0.018967
0.9667969, -0.0922852, -0.2104492, -12.0731707, -7.8658538, 1.1585366, -0.0135958
0.9731445, -0.0830078, -0.21875, -11.6463413, -7.8048782, 0.8536586, -0.0092317
0.9746094, -0.081543, -0.21875, -11.0975609, -7.7439027, 0.7926829, -0.0062104
0.9736328, -0.0664062, -0.2260742, -10.6097565, -7.0731707, 0.4878049, -0.0085603
0.9672852, -0.0610352, -0.2304688, -10.6707315, -6.8292685, 0.3658537, -0.0125887
0.9643555, -0.0605469, -0.2416992, -11.280488, -6.7073174, 0.4268293, -0.0219883
0.9599609, -0.0605469, -0.2485352, -11.5243902, -6.9512196, 0.7926829, -0.036759
0.9599609, -0.0478516, -0.2451172, -11.1585369, -7.1341467, 0.8536586, -0.0446479
0.9628906, -0.046875, -0.2407227, -11.0975609, -6.8292685, 0.8536586, -0.0441444
0.9711914, -0.0336914, -0.2338867, -10.5487804, -6.5243902, 0.3658537, -0.0391089
0.9731445, -0.0307617, -0.2358398, -10.3658543, -6.0975609, 0.3048781, -0.0384375
0.96875, -0.0317383, -0.237793, -11.5853662, -6.0975609, 0.3048781, -0.0485084
0.9667969, -0.0449219, -0.2324219, -12.9268293, -6.0365853, 0.9146342, -0.0585794
0.9697266, -0.0458984, -0.2265625, -13.3536587, -6.2195125, 1.4634147, -0.0741894
0.9711914, -0.0571289, -0.2260742, -13.0487804, -6.3414636, 1.097561, -0.079057
0.972168, -0.0595703, -0.2290039, -12.5, -6.5243902, 1.402439, -0.0783856
0.9750977, -0.0668945, -0.2387695, -12.0121956, -6.0975609, 1.2195122, -0.0783856
0.9760742, -0.0673828, -0.2426758, -12.0731707, -6.1585369, 1.3414634, -0.0679789
0.9799805, -0.0654297, -0.230957, -11.8902445, -5.670732, 1.402439, -0.0605936
0.9819336, -0.0625, -0.2285156, -12.0121956, -5.1219511, 1.2804878, -0.0491798
0.9824219, -0.0532227, -0.2270508, -11.4024391, -5.2439027, 1.0365853, -0.0313878
0.9848633, -0.0512695, -0.2324219, -11.5243902, -5.3048782, 0.8536586, -0.0193027
0.9838867, -0.0551758, -0.2329102, -11.5243902, -5.7926831, 1.2804878, -0.0115816
0.9946289, -0.0605469, -0.2387695, -12.3780489, -5.8536587, 1.6463414, 0.0001678
0.9975586, -0.065918, -0.2363281, -12.6219511, -5.670732, 1.8902439, 0.0072175
1.0019531, -0.0634766, -0.2314453, -12.7439032, -5.4268293, 1.8292683, 0.0132601
1.0014648, -0.0629883, -0.2280273, -12.8048782, -4.9390244, 1.6463414, 0.0206455
0.9951172, -0.0634766, -0.2167969, -12.9878054, -4.5731707, 0.9756098, 0.0250095
0.9902344, -0.0683594, -0.2114258, -13.0487804, -4.5731707, 1.097561, 0.0283665
0.9902344, -0.0771484, -0.2128906, -13.1707315, -5, 1.0365853, 0.0318914
0.9873047, -0.0771484, -0.2055664, -12.9878054, -5.1829271, 0.8536586, 0.0317235
0.9873047, -0.0844727, -0.206543, -12.7439032, -5.1829271, 0.9756098, 0.0287022
0.9853516, -0.0898438, -0.2021484, -12.1951218, -5.609756, 0.8536586, 0.0290379
0.9912109, -0.0922852, -0.1987305, -11.280488, -5.4268293, 0.8536586, 0.0204776
0.9907227, -0.0942383, -0.2016602, -10.1219511, -5.3048782, 0.7926829, 0.0172885
0.987793, -0.0898438, -0.2041016, -9.5121956, -5.1829271, 0.3048781, 0.01561
0.9892578, -0.0820312, -0.206543, -8.4146347, -4.6951222, -0.1829268, 0.0085603
0.9848633, -0.0805664, -0.2080078, -8.2317076, -4.8170733, -0.3658537, 0.0058747
0.9853516, -0.0712891, -0.2119141, -7.8658538, -5, -0.6097561, -0.0052033
0.9868164, -0.0683594, -0.2104492, -7.5, -4.6341462, -0.4878049, -0.0095674
0.9892578, -0.0634766, -0.2094727, -6.8292685, -4.6951222, -0.3048781, -0.0115816
0.9892578, -0.0581055, -0.2099609, -6.4024391, -4.8170733, -0.5487805, -0.0159457
0.9902344, -0.0507812, -0.2143555, -6.1585369, -4.6341462, -0.9146342, -0.0203098
0.9707031, -0.0507812, -0.2226562, -6.280488, -4.6951222, -0.4878049, -0.0290379
0.9770508, -0.0483398, -0.2231445, -6.890244, -4.0853658, 0.2439024, -0.0350805
0.9765625, -0.0532227, -0.222168, -7.1341467, -3.9634147, 0.1219512, -0.0407874
0.9755859, -0.0561523, -0.2255859, -7.1341467, -4.0853658, 0.2439024, -0.0431373
0.9746094, -0.0629883, -0.2280273, -6.1585369, -4.1463413, -0.3658537, -0.0411231
0.9780273, -0.0693359, -0.2250977, -6.280488, -4.0243902, -0.6097561, -0.0417945
0.9780273, -0.0771484, -0.2124023, -5.1219511, -3.7195122, -1.3414634, -0.0414588
0.9853516, -0.0791016, -0.1972656, -4.4512196, -3.5975611, -1.402439, -0.0397803
0.9848633, -0.0742188, -0.1787109, -3.3536587, -3.3536587, -1.6463414, -0.0364233
0.9819336, -0.0708008, -0.1723633, -2.6219513, -3.2317073, -1.5243902, -0.0357519
0.9755859, -0.0625, -0.1645508, -1.402439, -3.2926829, -1.8292683, -0.0364233
0.9770508, -0.0551758, -0.1665039, -0.6707317, -3.4756098, -1.9512196, -0.040116
0.9829102, -0.0615234, -0.1694336, 0.1829268, -4.4512196, -1.7682927, -0.0475013
0.9921875, -0.0625, -0.1767578, 0.9146342, -4.6951222, -1.4634147, -0.0515297
0.9912109, -0.0649414, -0.1826172, 1.7073171, -4.6341462, -1.3414634, -0.0488441
0.9858398, -0.0507812, -0.1923828, 2.4390244, -4.8170733, -1.097561, -0.0498512
0.9824219, -0.0405273, -0.1977539, 2.3170731, -5.1829271, -1.1585366, -0.0459907
0.9780273, -0.027832, -0.2192383, 1.2195122, -5.5487804, -1.1585366, -0.047837
0.9785156, -0.0224609, -0.2333984, 0.1219512, -5.7926831, -1.3414634, -0.0448157
0.9780273, -0.0273438, -0.2456055, -2.4390244, -7.0121951, -0.2439024, -0.0394446
0.9829102, -0.0258789, -0.2563477, -3.5365853, -7.3780489, 0.0609756, -0.0377661
0.9902344, -0.0356445, -0.2651367, -5.3048782, -7.5609756, 0.3048781, -0.0325628
0.9794922, -0.0419922, -0.2675781, -6.0365853, -7.3170733, 0.4268293, -0.0365911
0.9790039, -0.0366211, -0.2636719, -6.5243902, -6.5243902, 0.6707317, -0.0391089
0.9726562, -0.0283203, -0.2402344, -6.7073174, -6.7073174, 0.7926829, -0.036759
0.9760742, -0.0317383, -0.2363281, -7.0731707, -6.4024391, 0.8536586, -0.0313878
0.9765625, -0.0283203, -0.2241211, -7.7439027, -6.5243902, 0.1829268, -0.0313878
0.9780273, -0.0351562, -0.21875, -8.4146347, -6.5853658, 0.4268293, -0.0270237
0.9750977, -0.0478516, -0.2119141, -8.841464, -6.7073174, 0.9756098, -0.0270237
0.9780273, -0.0541992, -0.2124023, -8.841464, -6.8292685, 1.402439, -0.024506
0.9794922, -0.0551758, -0.21875, -8.5365858, -6.5853658, 1.8292683, -0.0236667
0.9775391, -0.0483398, -0.2207031, -8.0487804, -6.8292685, 2.2560976, -0.0229953
0.9794922, -0.0415039, -0.2246094, -7.9878049, -6.3414636, 1.7073171, -0.0179599
0.9868164, -0.0332031, -0.2211914, -8.1097565, -6.280488, 1.5853659, -0.0062104
0.9829102, -0.0253906, -0.215332, -8.2926826, -6.4634147, 1.6463414, 0.0025177
0.9960938, -0.0102539, -0.2070312, -8.2926826, -6.4024391, 1.4634147, 0.0152743
0.9985352, -0.0131836, -0.2026367, -8.2926826, -6.4024391, 1.402439, 0.0179599
1.0019531, -0.0327148, -0.1992188, -8.780488, -6.1585369, 1.2804878, 0.0216526
0.9995117, -0.0444336, -0.203125, -9.2073174, -5.670732, 1.7073171, 0.0193027
0.9897461, -0.0585938, -0.2109375, -10, -5.7317076, 2.3170731, 0.0157778
0.9882812, -0.0629883, -0.2138672, -10.4268293, -5.670732, 2.4390244, 0.0146029
0.9863281, -0.0673828, -0.2080078, -9.8170738, -6.0365853, 2.3780489, 0.0193027
0.987793, -0.0649414, -0.2050781, -9.5121956, -5.9756098, 2.2560976, 0.0213169
0.9916992, -0.0683594, -0.2070312, -8.3536587, -6.1585369, 1.2195122, 0.0213169
0.9941406, -0.0698242, -0.2138672, -7.8048782, -5.9756098, 1.097561, 0.0226596
0.9926758, -0.0693359, -0.2197266, -7.9878049, -5.4268293, 1.5243902, 0.018967
0.9916992, -0.0610352, -0.2241211, -8.5975609, -5.2439027, 1.2804878, 0.0139315
0.9912109, -0.0566406, -0.2246094, -8.9024391, -5.1219511, 1.402439, 0.0115816
0.9912109, -0.0473633, -0.2250977, -8.9634151, -4.9390244, 0.9756098, 0.0075532
0.996582, -0.0458984, -0.2231445, -9.2682924, -4.7560978, 0.3658537, 0.0025177
0.9956055, -0.0527344, -0.2324219, -9.8170738, -4.9390244, 0.3048781, -0.005539
0.9936523, -0.0507812, -0.2363281, -10, -5.2439027, 0.2439024, -0.0204776
0.9970703, -0.0634766, -0.2451172, -11.0365858, -5.3048782, 0.6707317, -0.0337377
0.9946289, -0.0610352, -0.2431641, -11.341464, -4.7560978, 0.7926829, -0.0438087
0.9931641, -0.0644531, -0.2329102, -11.341464, -4.6341462, 0.4268293, -0.0498512
0.9951172, -0.0566406, -0.2236328, -11.280488, -4.7560978, 0.1219512, -0.0532082
0.9921875, -0.0581055, -0.2211914, -10.4878054, -4.8170733, -0.6097561, -0.0558938
0.9990234, -0.0615234, -0.2202148, -10.2439022, -4.5121951, -0.6707317, -0.0525368
0.9951172, -0.0639648, -0.2211914, -10.6097565, -4.4512196, -0.5487805, -0.0527047
0.9941406, -0.0600586, -0.2143555, -11.0975609, -4.390244, -0.3048781, -0.0530404
0.9946289, -0.0571289, -0.2104492, -11.1585369, -4.4512196, -0.1219512, -0.0569009
0.9960938, -0.0576172, -0.2026367, -10.8536587, -4.4512196, -0.4268293, -0.0652934
0.9946289, -0.0546875, -0.2016602, -10.7926836, -4.5731707, -0.5487805, -0.0663005
0.9873047, -0.0424805, -0.2089844, -10.5487804, -4.2682929, -0.6097561, -0.0649577
0.9907227, -0.046875, -0.2080078, -11.4024391, -4.0853658, -0.4878049, -0.0609293
0.9804688, -0.0429688, -0.2119141, -12.4390249, -4.8780489, 0, -0.0528725
0.9838867, -0.0498047, -0.2036133, -12.8658543, -5.1829271, 0.0609756, -0.0464942
0.9804688, -0.0463867, -0.2075195, -13.4146347, -5.3658538, 0.0609756, -0.0424659
0.9785156, -0.0380859, -0.2075195, -12.7439032, -5.4268293, -0.1829268, -0.0370947
0.9775391, -0.0322266, -0.2050781, -12.560976, -5.3658538, -0.3658537, -0.0364233
0.96875, -0.0166016, -0.203125, -12.3780489, -5.3658538, -0.3658537, -0.0297093
0.9711914, -0.012207, -0.2021484, -12.3170738, -5.609756, -0.3048781, -0.0283665
0.9736328, -0.0214844, -0.2055664, -13.5365858, -6.3414636, -0.4268293, -0.0243381
0.9790039, -0.0351562, -0.2109375, -14.0853662, -6.8292685, -0.1829268, -0.0265202
0.984375, -0.0571289, -0.2177734, -15.060976, -7.0121951, 0.2439024, -0.0283665
0.9887695, -0.0629883, -0.2246094, -15.060976, -6.8292685, 0.7317073, -0.0260166
0.984375, -0.0688477, -0.2299805, -14.9390249, -6.4634147, 0.9756098, -0.0248417
0.9765625, -0.0615234, -0.222168, -14.1463413, -5.670732, 0.4268293, -0.0203098
0.9741211, -0.0546875, -0.2133789, -13.780488, -5.8536587, 0, -0.0203098
0.9785156, -0.0522461, -0.2050781, -13.1097565, -5.670732, -0.7317073, -0.0193027
0.9770508, -0.0556641, -0.2055664, -12.8658543, -6.0365853, -0.7317073, -0.0142672
0.9819336, -0.0551758, -0.2163086, -12.8048782, -6.5243902, -0.6097561, -0.0095674
0.9794922, -0.0566406, -0.2241211, -12.7439032, -6.7682929, -0.3658537, -0.0048676
0.9838867, -0.0620117, -0.2304688, -13.2926836, -7.1341467, 0.1219512, -0.0082246
0.9750977, -0.0600586, -0.2294922, -13.3536587, -7.1341467, -0.0609756, -0.0179599
0.9731445, -0.0585938, -0.2167969, -12.8658543, -7.0121951, -0.2439024, -0.0176242
0.9750977, -0.0571289, -0.2084961, -12.560976, -6.8292685, -0.4878049, -0.0256809
0.972168, -0.0561523, -0.1967773, -12.2560978, -6.8292685, -0.6707317, -0.0384375
0.9716797, -0.0537109, -0.1938477, -12.1341467, -7.0731707, -0.5487805, -0.0518654
0.9746094, -0.0551758, -0.1958008, -12.1951218, -7.3170733, -0.6097561, -0.0713359
0.9736328, -0.0595703, -0.2001953, -12.2560978, -7.8658538, -0.4268293, -0.0867781
0.980957, -0.0654297, -0.2011719, -12.4390249, -7.9268293, -0.3048781, -0.096849
0.9790039, -0.0668945, -0.1967773, -12.4390249, -7.7439027, -0.3658537, -0.1025559
0.980957, -0.0668945, -0.1923828, -12.3780489, -7.9268293, -0.4268293, -0.1092699
0.9765625, -0.0649414, -0.1918945, -12.0121956, -7.6219516, -0.8536586, -0.1116197
0.9702148, -0.0595703, -0.190918, -11.9512196, -7.6219516, -0.8536586, -0.0995346
0.9609375, -0.0546875, -0.2001953, -12.1951218, -7.9878049, -0.6707317, -0.0840925
0.9599609, -0.0532227, -0.2089844, -12.4390249, -8.2926826, -0.4878049, -0.064622
0.9609375, -0.0556641, -0.2128906, -12.8048782, -9.0243902, -0.4268293, -0.0458228
0.96875, -0.0673828, -0.2158203, -12.9268293, -9.1463413, -0.3658537, -0.0350805
0.9760742, -0.0712891, -0.2119141, -12.4390249, -9.0243902, -0.4268293, -0.0251774
0.9760742, -0.0693359, -0.2119141, -11.7682934, -8.3536587, -0.6097561, -0.0152743
0.9736328, -0.0664062, -0.2099609, -11.341464, -8.2317076, -0.7926829, -0.0068818
0.9682617, -0.0634766, -0.2158203, -10.9146347, -7.5609756, -1.2195122, 0.0065461
0.9628906, -0.0625, -0.2163086, -10.8536587, -7.8658538, -1.0365853, 0.0193027
0.9594727, -0.0556641, -0.2241211, -11.4024391, -7.7439027, -0.9146342, 0.030045
0.9633789, -0.0532227, -0.2270508, -11.7073174, -7.6219516, -0.7317073, 0.0411231
0.9648438, -0.0429688, -0.2280273, -12.5, -7.5, -0.7926829, 0.0448157
0.9628906, -0.0385742, -0.2250977, -12.4390249, -7.6219516, -0.6707317, 0.0428016
0.9658203, -0.0371094, -0.2250977, -12.560976, -7.7439027, -0.9146342, 0.0387732
0.9726562, -0.0415039, -0.2275391, -12.6829271, -7.8658538, -0.6097561, 0.043473
0.9731445, -0.0473633, -0.2299805, -13.3536587, -7.8658538, -0.3658537, 0.0421302
0.9765625, -0.0644531, -0.2280273, -13.6585369, -7.5609756, -0.1219512, 0.0498512
0.9785156, -0.0727539, -0.2246094, -13.841464, -7.4390244, -0.2439024, 0.0555581
0.9765625, -0.0771484, -0.2167969, -13.2317076, -7.3780489, -0.5487805, 0.0621042
0.9794922, -0.0766602, -0.2158203, -12.9268293, -6.7682929, -0.6707317, 0.0654612
0.9741211, -0.0786133, -0.2128906, -12.560976, -6.4634147, -1.0365853, 0.0743572
0.9741211, -0.0722656, -0.215332, -12.0731707, -6.7073174, -0.8536586, 0.0743572
0.9711914, -0.0654297, -0.2143555, -11.4634151, -6.6463418, -0.7926829, 0.0642863
0.9780273, -0.0654297, -0.2216797, -11.4634151, -6.8292685, -0.4878049, 0.0528725
0.9794922, -0.0595703, -0.2241211, -10.9146347, -6.5853658, -0.9756098, 0.0379339
0.9848633, -0.0615234, -0.2197266, -10.9756098, -6.4634147, -1.097561, 0.0303807
0.984375, -0.0620117, -0.2163086, -11.4634151, -6.280488, -1.1585366, 0.0206455
0.9853516, -0.0629883, -0.2055664, -12.2560978, -5.4878049, -1.0365853, 0.0095674
0.9848633, -0.065918, -0.2026367, -12.0731707, -5.4878049, -1.097561, -0.002182
0.9785156, -0.0644531, -0.1958008, -12.2560978, -5.3048782, -1.2195122, -0.01561
0.9726562, -0.0664062, -0.190918, -12.3780489, -5.1829271, -1.2804878, -0.0263523
0.9614258, -0.0673828, -0.1982422, -12.3170738, -5.7317076, -1.2195122, -0.0438087
0.956543, -0.065918, -0.2016602, -12.3780489, -5.7926831, -1.2195122, -0.0558938
0.9570312, -0.0585938, -0.2099609, -12.0121956, -6.4634147, -0.9146342, -0.0666361
0.9633789, -0.059082, -0.2084961, -11.8902445, -6.5853658, -1.1585366, -0.0726787
0.9677734, -0.0585938, -0.2089844, -12.0121956, -6.7682929, -1.8292683, -0.0760357
0.9750977, -0.065918, -0.2099609, -12.5, -6.3414636, -1.6463414, -0.0793927
0.972168, -0.0693359, -0.2143555, -12.6829271, -6.2195125, -1.4634147, -0.0793927
0.9580078, -0.0600586, -0.2172852, -13.2317076, -6.4634147, -0.9146342, -0.0720073
0.9492188, -0.0556641, -0.215332, -13.2317076, -6.7073174, -0.8536586, -0.0587472
0.9472656, -0.0493164, -0.2128906, -13.3536587, -7.1341467, -0.9146342, -0.0552224
0.9511719, -0.0493164, -0.2167969, -13.5365858, -7.7439027, -1.0365853, -0.0535439
0.9624023, -0.0581055, -0.2148438, -13.780488, -8.1707315, -1.2804878, -0.0532082
0.9677734, -0.0644531, -0.2114258, -13.841464, -8.2317076, -1.2195122, -0.0582437
0.9663086, -0.0615234, -0.2021484, -13.7195129, -7.9268293, -0.6097561, -0.0575723
0.9638672, -0.0507812, -0.2045898, -13.6585369, -7.2560978, -0.2439024, -0.0498512
0.9628906, -0.0395508, -0.2055664, -13.2317076, -7.1341467, -0.4268293, -0.0387732
0.965332, -0.0292969, -0.2163086, -13.1707315, -7.8048782, -0.6707317, -0.0263523
0.9624023, -0.0292969, -0.222168, -13.4756098, -7.9878049, -0.6707317, -0.0166171
0.9726562, -0.0395508, -0.222168, -14.6341467, -8.5975609, 0.1219512, -0.0028534
0.9790039, -0.0449219, -0.2260742, -15, -8.4756098, 0.1219512, 0.005539
0.9794922, -0.0512695, -0.21875, -15.6707325, -8.1097565, 0.5487805, 0.0085603
0.9765625, -0.0610352, -0.2138672, -15.8536587, -8.0487804, 0.4268293, 0.0112459
0.9672852, -0.0595703, -0.203125, -15.4878054, -7.4390244, 0.9146342, 0.0159457
0.9658203, -0.0600586, -0.2021484, -15.3658543, -7.4390244, 0.5487805, 0.0105745
0.9575195, -0.0605469, -0.1923828, -14.6341467, -7.6829271, 0.3658537, 0.0063783
0.9697266, -0.0620117, -0.1889648, -14.5121956, -7.9878049, 0.2439024, 0.0045319
0.9746094, -0.0644531, -0.1875, -13.780488, -8.5365858, -0.0609756, -0.0008392
0.9897461, -0.0634766, -0.1933594, -13.2317076, -9.1463413, 0.1219512, -0.0102388
0.9951172, -0.0629883, -0.2006836, -12.8048782, -9.1463413, 0.0609756, -0.0199741
1.003418, -0.0561523, -0.2070312, -12.560976, -8.9634151, 0.3048781, -0.0344091
1.0004883, -0.0522461, -0.2138672, -12.5, -9.0243902, 0.6097561, -0.0485084
1.003418, -0.034668, -0.2158203, -12.8658543, -8.5975609, 0.1829268, -0.0599222
1.0039062, -0.0283203, -0.2158203, -12.9878054, -8.780488, -0.1829268, -0.0656291
1.0097656, -0.0200195, -0.2163086, -12.6829271, -8.9024391, -0.4268293, -0.0632792
1.0117188, -0.0219727, -0.2167969, -12.8048782, -8.9024391, -0.5487805, -0.0582437
1.0180664, -0.0258789, -0.2128906, -13.9634151, -8.4146347, -0.7317073, -0.0548867
1.0180664, -0.0361328, -0.21875, -14.5731707, -8.2926826, -0.7317073, -0.0471656
1.0102539, -0.0415039, -0.2202148, -15.6707325, -7.8048782, -0.4878049, -0.0439765
0.9985352, -0.0512695, -0.2163086, -16.280489, -8.1707315, -0.0609756, -0.0404517
0.9946289, -0.0581055, -0.2163086, -16.5243912, -8.1097565, 0.0609756, -0.0337377
0.9868164, -0.0576172, -0.2231445, -16.0975609, -7.5609756, -0.1829268, -0.0260166
0.9902344, -0.0551758, -0.2236328, -16.1585369, -7.1951222, -0.6707317, -0.0206455
0.9926758, -0.0610352, -0.2241211, -16.1585369, -7.1341467, -1.2195122, -0.0152743
0.9936523, -0.0629883, -0.2241211, -16.0365849, -7.3170733, -1.2804878, -0.0041962
0.9931641, -0.0703125, -0.2231445, -16.4634151, -7.0121951, -1.2195122, 0.0001678
0.996582, -0.0712891, -0.222168, -16.2195129, -6.7073174, -1.5243902, 0.002182
1.0014648, -0.0742188, -0.2236328, -16.2195129, -6.5243902, -1.2195122, 0.0011749
0.9990234, -0.0649414, -0.2265625, -15.7317076, -6.6463418, -1.2804878, -0.0058747
0.9970703, -0.0620117, -0.2329102, -14.9390249, -6.8292685, -1.7682927, -0.0072175
1.0078125, -0.0507812, -0.2333984, -14.4512196, -6.8292685, -1.8902439, -0.0099031
1.0161133, -0.046875, -0.2319336, -14.2682934, -6.3414636, -1.9512196, -0.0171206
1.019043, -0.0361328, -0.222168, -14.2073174, -5.670732, -1.7073171, -0.0253452
1.0170898, -0.0317383, -0.2246094, -14.3292685, -5.4268293, -1.7682927, -0.0270237
1.012207, -0.0214844, -0.2246094, -14.3902445, -4.8170733, -1.6463414, -0.0270237
1.0029297, -0.0185547, -0.2260742, -14.7560978, -4.9390244, -1.9512196, -0.0238346
0.9960938, -0.019043, -0.2241211, -15.3658543, -5.3658538, -1.5853659, -0.0199741
0.9931641, -0.0161133, -0.2172852, -15.8536587, -5.3048782, -1.6463414, -0.0135958
0.9868164, -0.0146484, -0.2094727, -17.0121956, -4.6951222, -1.1585366, -0.0036927
0.9829102, -0.0214844, -0.2045898, -16.8292694, -5.1829271, -1.7073171, -0.0031891
0.9780273, -0.0253906, -0.2055664, -16.4024391, -5.1219511, -1.6463414, -0.0135958
0.9736328, -0.0332031, -0.2114258, -15.9756098, -5.609756, -1.2804878, -0.0287022
0.9716797, -0.0361328, -0.2143555, -15.6097565, -6.0365853, -0.6707317, -0.0347448
0.9716797, -0.0336914, -0.2084961, -15.4268293, -6.5243902, -0.0609756, -0.0391089
0.972168, -0.0327148, -0.2084961, -15.3048782, -6.5853658, -0.1219512, -0.0463264
0.9790039, -0.0297852, -0.1948242, -14.8170738, -6.4024391, -0.6707317, -0.0500191
0.972168, -0.0302734, -0.1933594, -15, -6.7073174, -0.5487805, -0.0552224
0.9628906, -0.0229492, -0.1879883, -14.4512196, -7.5, -0.5487805, -0.0585794
0.9589844, -0.0151367, -0.1850586, -14.3902445, -7.9268293, -0.1829268, -0.0575723
0.9609375, -0.0014648, -0.1821289, -14.8780489, -9.1463413, 0.2439024, -0.0548867
0.9672852, 0.0019531, -0.1694336, -15.3048782, -9.6951218, 0.4268293, -0.0518654
0.9711914, -0.0009766, -0.1645508, -16.2195129, -10.6097565, 0.4878049, -0.0431373
0.9716797, -0.019043, -0.1621094, -16.8902435, -11.4024391, 1.402439, -0.0283665
0.9726562, -0.0229492, -0.1582031, -17.2560978, -11.1585369, 1.5243902, -0.0236667
0.9707031, -0.0288086, -0.1538086, -17.1341476, -12.0121956, 2.0121951, -0.0135958
0.9672852, -0.0283203, -0.1518555, -17.2560978, -12.1341467, 2.3170731, -0.0052033
0.9628906, -0.0292969, -0.1542969, -17.0121956, -12.8048782, 2.195122, 0.0008392
0.9682617, -0.0273438, -0.1542969, -16.5853653, -12.9268293, 2.1341465, -0.0015106
0.9648438, -0.0375977, -0.1567383, -16.1585369, -13.5975609, 2.195122, -0.012253
0.9633789, -0.0395508, -0.1591797, -15.7926836, -13.5365858, 2.3780489, -0.0149386
0.9672852, -0.0395508, -0.1621094, -15.7317076, -13.9024391, 2.5, -0.0162814
0.9697266, -0.0327148, -0.1640625, -15.4268293, -14.0853662, 2.3170731, -0.0125887
0.9746094, -0.0292969, -0.1694336, -15.6097565, -13.9634151, 1.8902439, -0.0068818
0.9672852, -0.0405273, -0.1835938, -16.0365849, -14.0853662, 2.195122, 0.0045319
0.9628906, -0.0400391, -0.1923828, -16.5853653, -14.4512196, 2.1341465, 0.0105745
0.956543, -0.0473633, -0.2124023, -17.3170738, -15.1829271, 2.8658538, 0.0157778
0.9536133, -0.0444336, -0.2226562, -17.5, -15.6707325, 3.1707318, 0.0132601
0.9594727, -0.0478516, -0.2329102, -17.1341476, -16.0975609, 3.1707318, 0.0092317
0.9633789, -0.0478516, -0.2353516, -16.7682934, -15.6097565, 2.7439024, 0.0008392
0.9702148, -0.0478516, -0.2387695, -16.5243912, -15.2439032, 1.7073171, -0.0062104
0.972168, -0.0527344, -0.2382812, -16.280489, -14.8780489, 1.402439, -0.0149386
0.9707031, -0.0512695, -0.2412109, -16.5853653, -14.1463413, 1.3414634, -0.0216526
0.9760742, -0.0483398, -0.2285156, -16.8292694, -13.9024391, 1.1585366, -0.0182956
0.9790039, -0.0449219, -0.2236328, -16.5243912, -13.6585369, 1.097561, -0.0176242
0.9765625, -0.0317383, -0.2314453, -16.3414631, -13.2317076, 0.9146342, -0.01561
0.9838867, -0.0273438, -0.2358398, -16.4024391, -12.6829271, 0.8536586, -0.0159457
0.9882812, -0.0283203, -0.2431641, -16.7073174, -12.560976, 0.6707317, -0.01561
0.987793, -0.0322266, -0.2470703, -17.0121956, -12.560976, 0.6097561, -0.0169528
0.9926758, -0.0405273, -0.2539062, -17.8048782, -11.8292685, 0.4878049, -0.0219883
0.9916992, -0.0444336, -0.2504883, -18.1097565, -11.341464, 0.6097561, -0.0283665
0.9960938, -0.0478516, -0.2421875, -18.3536587, -10.6707315, 0.7926829, -0.0263523
0.9921875, -0.0454102, -0.2363281, -18.2926826, -10.2439022, 0.5487805, -0.0250095
0.9824219, -0.0327148, -0.2280273, -18.1097565, -9.9390249, 0.1829268, -0.0250095
0.9858398, -0.0317383, -0.2236328, -17.7439022, -9.8170738, 0.1219512, -0.0276951
0.987793, -0.0307617, -0.2241211, -18.2926826, -9.9390249, -0.3048781, -0.030045
0.9897461, -0.0366211, -0.2211914, -18.9634151, -10.3658543, -0.1829268, -0.0310521
0.9912109, -0.0390625, -0.2177734, -19.3902435, -10.060976, 0, -0.0317235
0.9970703, -0.0385742, -0.2124023, -20.1219521, -9.2682924, 0.2439024, -0.0337377
0.9975586, -0.0385742, -0.2084961, -20.1829281, -8.841464, 0.4878049, -0.0357519
0.9931641, -0.0385742, -0.2084961, -20.3048782, -8.2317076, 0.2439024, -0.0411231
0.9941406, -0.0371094, -0.2104492, -20.1219521, -8.2926826, -0.0609756, -0.0441444
0.9892578, -0.0322266, -0.222168, -19.6951218, -8.2926826, 0.1219512, -0.0414588
0.9863281, -0.0249023, -0.2285156, -19.6341476, -8.4146347, 0.4268293, -0.0372625
0.9760742, -0.0078125, -0.230957, -19.8780499, -7.9878049, 0.6707317, -0.0310521
0.9902344, -0.012207, -0.2275391, -20.7317085, -7.8658538, 0.5487805, -0.0226596
0.9907227, -0.0175781, -0.2192383, -22.0731716, -7.6829271, -0.0609756, -0.0186313
0.9912109, -0.0424805, -0.2124023, -22.8048782, -7.5609756, -0.4878049, -0.01561
0.984375, -0.0458984, -0.2114258, -22.9878063, -7.6219516, -0.3658537, -0.012253
0.9873047, -0.0585938, -0.2177734, -23.1097565, -7.7439027, 0.0609756, -0.0129244
0.9887695, -0.0625, -0.2167969, -22.8658543, -7.6829271, 0.2439024, -0.0169528
0.9990234, -0.0683594, -0.2143555, -22.3780499, -7.8658538, -0.4268293, -0.0166171
1.0004883, -0.0708008, -0.215332, -22.1341476, -7.6829271, -1.097561, -0.0164492
0.9956055, -0.0678711, -0.2119141, -21.4634151, -7.4390244, -1.3414634, -0.0129244
0.9931641, -0.0678711, -0.206543, -21.5243912, -7.1341467, -1.1585366, -0.0196384
1, -0.0566406, -0.2011719, -21.0365868, -6.7073174, -1.4634147, -0.0256809
1.0024414, -0.0429688, -0.1899414, -20.9756107, -6.7073174, -1.6463414, -0.0243381
1.0097656, -0.0375977, -0.1879883, -20.3048782, -6.8292685, -2.195122, -0.0250095
1.0048828, -0.0229492, -0.199707, -20.4878044, -7.0731707, -2.0121951, -0.0280308
1.0063477, -0.0195312, -0.2084961, -21.0975609, -7.3780489, -1.6463414, -0.0292058
1.015625, -0.0146484, -0.215332, -22.560976, -7.8658538, -1.097561, -0.036759
1.0185547, -0.0219727, -0.2148438, -22.7439022, -7.7439027, -1.1585366, -0.0501869
1.0234375, -0.0283203, -0.2104492, -23.5365868, -7.1951222, -1.1585366, -0.066804
1.0200195, -0.0297852, -0.2109375, -23.5975609, -6.890244, -1.402439, -0.0762036
1.0039062, -0.0292969, -0.2133789, -23.5365868, -6.4024391, -0.9146342, -0.0783856
1.0004883, -0.0307617, -0.2119141, -23.5975609, -6.4634147, -0.9756098, -0.0834211
1.0053711, -0.0405273, -0.2133789, -23.9634151, -6.7682929, -1.0365853, -0.0864424
1.0004883, -0.0566406, -0.2158203, -23.9024391, -7.0121951, -1.3414634, -0.085771
0.9985352, -0.0605469, -0.2172852, -23.4756107, -6.7073174, -1.2195122, -0.073518
0.9975586, -0.0610352, -0.2197266, -22.8048782, -6.0975609, -1.3414634, -0.0629435
0.9926758, -0.0600586, -0.2099609, -21.9512196, -5.7317076, -0.9756098, -0.047837
0.9897461, -0.0371094, -0.1899414, -20.4268303, -5.1219511, -1.4634147, -0.0293736
0.9916992, -0.0219727, -0.1826172, -19.8780499, -4.8170733, -1.8902439, -0.0048676
0.9814453, 0, -0.1860352, -19.8170738, -5.3048782, -2.0731707, 0.021149
0.9814453, 0.0048828, -0.1918945, -20.1219521, -5.9756098, -2.3170731, 0.0394446
0.9863281, 0, -0.1938477, -21.5243912, -7.3780489, -1.5243902, 0.0535439
0.9931641, -0.0058594, -0.1962891, -21.9512196, -7.7439027, -1.1585366, 0.0565652
0.9990234, -0.0205078, -0.1943359, -22.8658543, -8.4146347, -0.5487805, 0.0562295
1.0102539, -0.0375977, -0.1875, -22.439024, -7.7439027, -0.6707317, 0.0481727
1.0053711, -0.0419922, -0.1821289, -22.3170738, -7.4390244, -0.8536586, 0.0327306
0.9970703, -0.0522461, -0.1767578, -21.4024391, -7.6219516, -0.8536586, 0.0169528
0.9912109, -0.0551758, -0.175293, -20.8536587, -8.0487804, -0.8536586, 0.0052033
0.9897461, -0.0581055, -0.1884766, -19.939024, -9.0243902, -0.6707317, -0.005539
0.9853516, -0.0551758, -0.1933594, -19.3902435, -9.2682924, -0.6097561, -0.008896
0.9848633, -0.0463867, -0.2099609, -18.6585369, -9.7560978, -0.3048781, -0.0152743
0.9858398, -0.0405273, -0.2143555, -18.1707325, -9.8780489, -0.4878049, -0.0204776
0.9931641, -0.0380859, -0.2143555, -17.5, -10.4268293, -0.7926829, -0.0290379
0.9960938, -0.043457, -0.2148438, -17.1341476, -10.6097565, -0.9146342, -0.0448157
0.996582, -0.0449219, -0.2211914, -17.1341476, -9.6341467, -0.7926829, -0.0558938
0.9873047, -0.043457, -0.222168, -17.5, -9.6951218, -0.5487805, -0.0614328
0.9838867, -0.0439453, -0.2207031, -17.6219521, -9.6341467, -0.6707317, -0.0605936
0.9863281, -0.034668, -0.2075195, -17.3780499, -10.1219511, -0.7926829, -0.0639506
0.9863281, -0.034668, -0.2055664, -16.6463413, -10.060976, -0.6707317, -0.0673075
0.9799805, -0.0288086, -0.2075195, -16.2195129, -10.1219511, -1.097561, -0.0676432
0.9799805, -0.0234375, -0.2133789, -16.4634151, -10.1829271, -0.7317073, -0.0619364
0.9824219, -0.027832, -0.2124023, -16.7073174, -10.1829271, -0.6097561, -0.0522011
0.9858398, -0.0317383, -0.2094727, -17.0121956, -10.1829271, -0.3048781, -0.040116
0.9853516, -0.0454102, -0.2011719, -17.1951218, -10.4878054, -0.4878049, -0.0276951
0.9916992, -0.0415039, -0.1982422, -16.4634151, -10.5487804, -0.5487805, -0.0159457
0.9892578, -0.0449219, -0.1977539, -15.4878054, -10.6097565, -0.5487805, -0.0068818
0.9892578, -0.0332031, -0.1865234, -14.9390249, -10.3048782, -0.5487805, 0.0052033
0.9897461, -0.0288086, -0.1850586, -14.7560978, -10.1219511, -0.4878049, 0.0146029
0.9799805, -0.0288086, -0.1811523, -14.8170738, -9.8170738, -0.8536586, 0.0179599
0.9814453, -0.0244141, -0.1860352, -14.6341467, -10, -0.7926829, 0.0193027
0.9755859, -0.034668, -0.1904297, -15.2439032, -10.7926836, -0.2439024, 0.0132601
0.9755859, -0.0405273, -0.1958008, -15.5487804, -10.9146347, 0.3048781, 0.0011749
0.9711914, -0.0444336, -0.1972656, -15.060976, -11.5243902, 0.4268293, -0.0062104
0.9667969, -0.0463867, -0.1982422, -14.5121956, -11.5243902, 0.7926829, -0.0095674
0.9726562, -0.0463867, -0.1987305, -13.5365858, -11.0365858, 0, -0.0075532
0.9765625, -0.0463867, -0.2075195, -13.4756098, -10.7926836, -0.4878049, -0.0058747
0.9770508, -0.0473633, -0.2124023, -13.6585369, -10.4268293, -0.6097561, -0.0092317
0.9873047, -0.050293, -0.2128906, -13.841464, -11.0365858, -0.4878049, -0.0068818
0.9863281, -0.0556641, -0.2109375, -13.9024391, -10.9146347, -0.3048781, 0.0001678
0.9912109, -0.0444336, -0.2114258, -13.0487804, -10.6707315, -0.1829268, 0.0065461
0.987793, -0.0400391, -0.2148438, -12.7439032, -10.3658543, -0.2439024, 0.0095674
0.9892578, -0.0341797, -0.2202148, -13.2926836, -9.7560978, -0.0609756, 0.0092317
0.9907227, -0.0302734, -0.2172852, -13.4756098, -10.1219511, -0.2439024, 0.0072175
0.9902344, -0.0263672, -0.2177734, -13.6585369, -10.1829271, 0.1219512, 0.0052033
0.9956055, -0.034668, -0.2182617, -13.9024391, -10.060976, -0.0609756, -0.0001678
0.9970703, -0.0336914, -0.2128906, -13.9634151, -10.2439022, 0.1829268, -0.0083925
0.9907227, -0.0375977, -0.2099609, -13.780488, -10.060976, 0.1219512, -0.0149386
0.9892578, -0.0380859, -0.2148438, -14.0243902, -10, 0.2439024, -0.0283665
0.9882812, -0.0371094, -0.21875, -13.9634151, -10.4268293, 0.7926829, -0.0370947
0.9853516, -0.0366211, -0.222168, -14.0853662, -10.2439022, 1.0365853, -0.0439765
0.9814453, -0.0283203, -0.2299805, -13.841464, -10.2439022, 1.1585366, -0.0548867
0.9833984, -0.0292969, -0.2299805, -13.5975609, -9.8170738, 1.0365853, -0.0669718
0.9775391, -0.0380859, -0.2368164, -13.6585369, -10, 0.9146342, -0.0688182
0.9804688, -0.0400391, -0.2363281, -13.841464, -9.9390249, 0.7317073, -0.0733501
0.9775391, -0.0483398, -0.2294922, -14.6341467, -9.7560978, 1.0365853, -0.082414
0.9814453, -0.0522461, -0.2236328, -14.6341467, -9.5121956, 0.9146342, -0.0931563
0.9824219, -0.0571289, -0.2104492, -14.2682934, -9.4512196, 0.7317073, -0.0965133
0.9794922, -0.0576172, -0.2001953, -13.841464, -9.2073174, 0.3658537, -0.0948348
0.9741211, -0.0532227, -0.1982422, -13.2317076, -8.9024391, 0.0609756, -0.1049058
0.9731445, -0.0522461, -0.1962891, -12.1341467, -8.9634151, 0.1219512, -0.1092699
0.9741211, -0.0507812, -0.2011719, -11.9512196, -9.3292685, 0.1829268, -0.1055772
0.9741211, -0.043457, -0.2084961, -11.5853662, -9.8170738, 0.7926829, -0.0988632
0.9731445, -0.0380859, -0.2133789, -11.4024391, -9.6951218, 0.3658537, -0.0847639
0.9780273, -0.0268555, -0.2211914, -12.1951218, -9.5731707, 0.5487805, -0.0814069
0.9819336, -0.0307617, -0.2246094, -13.0487804, -9.6951218, 0.6097561, -0.0807355
0.9838867, -0.0439453, -0.2207031, -13.780488, -9.8170738, 0.4268293, -0.0783856
0.9819336, -0.0527344, -0.2192383, -13.841464, -10, 0.6707317, -0.0666361
0.9775391, -0.0610352, -0.2216797, -13.5975609, -10.1219511, 1.402439, -0.0580758
0.9775391, -0.0551758, -0.2143555, -13.2317076, -9.8780489, 0.9756098, -0.0426337
0.9736328, -0.0532227, -0.2084961, -12.5, -10.1829271, 0.7317073, -0.012253
0.9707031, -0.050293, -0.2119141, -12.3780489, -9.6951218, 0.1829268, 0.0253452
0.9682617, -0.0473633, -0.215332, -12.0731707, -9.3902445, 0.6097561, 0.0636149
0.972168, -0.0400391, -0.2172852, -12.4390249, -9.0853662, 1.2804878, 0.0938277
0.9726562, -0.0380859, -0.2167969, -12.5, -9.0243902, 1.2195122, 0.1166552
0.9770508, -0.0390625, -0.2099609, -12.6829271, -8.9634151, 0.8536586, 0.1312581
0.9780273, -0.0371094, -0.2084961, -12.2560978, -8.5975609, 0.7317073, 0.1448539
0.9741211, -0.0439453, -0.1967773, -12.8048782, -8.5365858, 0.6707317, 0.1502251
0.9702148, -0.0483398, -0.1923828, -12.7439032, -8.4146347, 0.6707317, 0.1589532
0.9589844, -0.0605469, -0.1899414, -12.560976, -8.6585369, 1.0365853, 0.1653315
0.9555664, -0.065918, -0.1894531, -11.8902445, -9.2073174, 1.1585366, 0.1688563
0.9516602, -0.059082, -0.1904297, -11.0975609, -9.6341467, 0.9756098, 0.156939
0.9560547, -0.0478516, -0.1962891, -10.1829271, -10.3048782, 0.7317073, 0.1393149
0.9580078, -0.0375977, -0.1987305, -9.7560978, -10.4268293, 0.1829268, 0.1233692
0.9697266, -0.0239258, -0.203125, -9.3292685, -10.8536587, 0.2439024, 0.1025559
0.9780273, -0.0224609, -0.2099609, -9.3292685, -11.0975609, 0.3658537, 0.0800641
0.9926758, -0.019043, -0.2138672, -9.8780489, -11.0975609, 0.6097561, 0.0585794
0.9936523, -0.0185547, -0.2138672, -10.3658543, -10.8536587, 0.6097561, 0.0350805
0.9951172, -0.0336914, -0.2119141, -10.9756098, -10.2439022, 1.1585366, 0.0139315
0.9921875, -0.0390625, -0.2104492, -11.1585369, -9.9390249, 1.6463414, -0.0068818
0.9897461, -0.0454102, -0.190918, -11.5853662, -9.6341467, 1.7682927, -0.0216526
0.9741211, -0.0473633, -0.1938477, -11.341464, -9.7560978, 1.5853659, -0.0297093
0.9707031, -0.0522461, -0.1982422, -10.9146347, -9.7560978, 1.5243902, -0.0350805
0.9643555, -0.0561523, -0.203125, -10.5487804, -9.8780489, 1.4634147, -0.0438087
0.9638672, -0.0649414, -0.206543, -10.4268293, -10.3048782, 1.5243902, -0.0488441
0.9667969, -0.0717773, -0.2084961, -9.5731707, -10.6707315, 1.5243902, -0.051194
0.9692383, -0.0717773, -0.2119141, -8.5975609, -10.4268293, 1.6463414, -0.057908
0.9741211, -0.0732422, -0.2089844, -7.5609756, -10.1829271, 1.2195122, -0.0565652
0.9707031, -0.0693359, -0.2094727, -7.2560978, -9.8170738, 0.8536586, -0.0592508
0.9682617, -0.059082, -0.2167969, -7.0121951, -9.2073174, 0.7317073, -0.0599222
0.965332, -0.0532227, -0.2177734, -7.4390244, -8.9024391, 0.7317073, -0.0592508
0.9658203, -0.0400391, -0.21875, -7.3780489, -8.9634151, 1.2195122, -0.0558938
0.9838867, -0.0273438, -0.2128906, -7.0121951, -9.5121956, 1.0365853, -0.0525368
0.9941406, -0.0253906, -0.2094727, -6.7073174, -9.6951218, 0.6097561, -0.0475013
1.0014648, -0.0263672, -0.2045898, -6.4634147, -8.9024391, 0.3658537, -0.0404517
1.0087891, -0.0292969, -0.2060547, -6.7073174, -8.5975609, 0.5487805, -0.0391089
1.0039062, -0.0292969, -0.2006836, -7.8658538, -8.0487804, 0.7926829, -0.0391089
1.0014648, -0.0268555, -0.2001953, -8.0487804, -7.9268293, 1.402439, -0.0407874
0.9975586, -0.0195312, -0.2036133, -8.719512, -7.6829271, 2.1341465, -0.0438087
1, -0.019043, -0.2041016, -8.9634151, -7.8658538, 1.8902439, -0.0485084
0.9902344, -0.0209961, -0.2172852, -9.0853662, -7.8658538, 2.2560976, -0.0491798
0.9863281, -0.0185547, -0.2226562, -9.2682924, -7.8658538, 2.195122, -0.054551
0.980957, -0.0258789, -0.2333984, -9.6341467, -8.1097565, 2.804878, -0.0565652
0.9838867, -0.03125, -0.2319336, -9.9390249, -8.2926826, 2.8658538, -0.054551
0.9848633, -0.0356445, -0.230957, -10, -8.3536587, 2.3170731, -0.0522011
0.9868164, -0.0385742, -0.2177734, -10, -7.8048782, 2.0731707, -0.0522011
0.9868164, -0.0375977, -0.2089844, -9.8780489, -7.4390244, 1.9512196, -0.0639506
0.9863281, -0.0419922, -0.2089844, -9.8780489, -7.3170733, 1.8292683, -0.0721752
0.9868164, -0.0473633, -0.2089844, -10.060976, -7.8658538, 1.9512196, -0.0767071
0.9863281, -0.0478516, -0.2084961, -9.7560978, -7.8658538, 2.2560976, -0.0748608
0.987793, -0.0444336, -0.2084961, -9.6951218, -7.8658538, 2.3170731, -0.0708324
0.9882812, -0.0361328, -0.2045898, -9.3292685, -7.2560978, 2.0731707, -0.0710002
0.9882812, -0.0366211, -0.2021484, -8.780488, -7.1951222, 1.8902439, -0.063447
0.9829102, -0.0258789, -0.199707, -9.1463413, -6.890244, 1.4634147, -0.0542153
0.9741211, -0.0195312, -0.2128906, -9.3902445, -7.0121951, 1.402439, -0.040116
0.96875, -0.0224609, -0.2163086, -10.4878054, -7.1341467, 2.1341465, -0.0280308
0.9667969, -0.0214844, -0.2241211, -11.5243902, -7.9268293, 2.7439024, -0.0243381
0.9624023, -0.0214844, -0.2260742, -11.5853662, -8.2926826, 2.9878049, -0.0176242
0.9677734, -0.0136719, -0.2231445, -11.4024391, -8.4756098, 2.804878, -0.0169528
0.9755859, -0.0175781, -0.21875, -10.8536587, -8.3536587, 2.5, -0.0139315
0.9790039, -0.0180664, -0.2109375, -10.9146347, -7.2560978, 2.0731707, -0.0169528
0.9750977, -0.0224609, -0.2094727, -11.341464, -7.4390244, 1.8902439, -0.0216526
0.9672852, -0.0288086, -0.2070312, -12.3170738, -7.4390244, 2.804878, -0.0243381
0.96875, -0.0327148, -0.2099609, -12.3170738, -7.8658538, 3.4146342, -0.0303807
0.9775391, -0.0356445, -0.2128906, -12.1341467, -8.780488, 3.6585367, -0.0327306
0.987793, -0.0361328, -0.2211914, -11.7682934, -8.6585369, 3.4146342, -0.0354162
0.9882812, -0.0405273, -0.2231445, -11.4024391, -8.841464, 3.5365853, -0.0417945
0.9897461, -0.0351562, -0.2236328, -11.5853662, -8.5365858, 3.5365853, -0.0498512
0.9907227, -0.03125, -0.2197266, -11.7073174, -8.2926826, 3.6585367, -0.0488441
0.9882812, -0.0224609, -0.2075195, -11.5243902, -7.6219516, 3.5975611, -0.0411231
0.987793, -0.0185547, -0.2016602, -11.4634151, -7.5609756, 3.4756098, -0.0317235
0.9804688, -0.0092773, -0.2006836, -11.5853662, -7.8658538, 3.0487804, -0.0256809
0.9741211, -0.0058594, -0.2026367, -12.1341467, -8.5365858, 3.3536587, -0.018967
0.9765625, -0.0092773, -0.2124023, -13.4146347, -9.6951218, 3.5975611, -0.0182956
0.984375, -0.0151367, -0.2119141, -13.9634151, -10, 3.7195122, -0.0219883
0.984375, -0.034668, -0.2080078, -14.6341467, -10.5487804, 3.9024391, -0.0243381
0.9873047, -0.0458984, -0.1987305, -14.7560978, -10.4878054, 3.9634147, -0.0276951
0.9887695, -0.050293, -0.1943359, -13.6585369, -10.2439022, 3.8414636, -0.0251774
0.9799805, -0.050293, -0.1801758, -12.9878054, -10.1219511, 3.4756098, -0.0182956
0.9746094, -0.0473633, -0.1767578, -12.5, -10.060976, 3.4146342, -0.0065461
0.9677734, -0.0400391, -0.1723633, -11.8292685, -10.3658543, 3.4146342, 0.0092317
0.9672852, -0.0356445, -0.1777344, -11.7073174, -10.7317076, 3.2317073, 0.0234989
0.9750977, -0.0341797, -0.1923828, -11.7073174, -11.5243902, 3.1707318, 0.0340734
0.9741211, -0.0317383, -0.2036133, -11.7682934, -12.3170738, 3.5975611, 0.04448
0.9907227, -0.0375977, -0.2241211, -12.0121956, -13.2317076, 4.0853658, 0.0461585
0.9907227, -0.0380859, -0.2373047, -12.0121956, -13.1707315, 4.2682929, 0.0421302
0.9960938, -0.0361328, -0.2631836, -11.7682934, -13.5365858, 4.5121951, 0.0327306
0.9960938, -0.0390625, -0.2680664, -11.7682934, -13.6585369, 4.3292685, 0.0198062
1, -0.0405273, -0.2651367, -12.1951218, -13.7195129, 4.1463413, 0.0082246
0.9941406, -0.0385742, -0.2558594, -12.0731707, -13.6585369, 3.6585367, -0.0075532
0.9912109, -0.0415039, -0.2426758, -11.8902445, -13.2317076, 3.4146342, -0.0236667
0.9873047, -0.0439453, -0.2207031, -12.4390249, -12.8048782, 3.5365853, -0.0365911
0.9863281, -0.0458984, -0.2128906, -12.1951218, -13.2926836, 3.4146342, -0.04448
0.984375, -0.0444336, -0.2006836, -11.4634151, -13.5365858, 3.5975611, -0.0562295
0.9814453, -0.0429688, -0.199707, -11.280488, -13.841464, 3.8414636, -0.064622
0.9819336, -0.0302734, -0.2055664, -10.7317076, -14.0853662, 4.0853658, -0.0679789
0.9887695, -0.0219727, -0.2148438, -10.4878054, -14.5731707, 4.1463413, -0.0703288
1.0024414, -0.0244141, -0.230957, -10.6707315, -15.6707325, 4.0853658, -0.0636149
1.0058594, -0.0366211, -0.2392578, -10.7317076, -15.7317076, 4.2073174, -0.0594186
1.0136719, -0.0400391, -0.2382812, -11.4634151, -15.8536587, 4.9390244, -0.061265
1.0136719, -0.0478516, -0.2275391, -11.6463413, -15.6097565, 4.8780489, -0.0592508
1.0102539, -0.0454102, -0.21875, -11.7682934, -15.4268293, 4.6951222, -0.0525368
1.0039062, -0.0356445, -0.199707, -11.6463413, -14.8780489, 4.0243902, -0.0501869
0.9980469, -0.0375977, -0.1948242, -11.6463413, -14.9390249, 4.0853658, -0.0417945
0.980957, -0.0429688, -0.1938477, -12.1951218, -15.2439032, 3.6585367, -0.0357519
0.980957, -0.0444336, -0.2006836, -12.7439032, -15.7926836, 3.9634147, -0.0246738
0.9755859, -0.0537109, -0.2109375, -13.1707315, -16.4634151, 4.3292685, -0.018967
0.9731445, -0.0517578, -0.21875, -12.8048782, -16.3414631, 4.5121951, -0.0065461
0.9741211, -0.0449219, -0.2260742, -12.1951218, -15.8536587, 4.9390244, -0.0023499
0.9716797, -0.0322266, -0.2294922, -11.7682934, -15.060976, 4.5731707, -0.0035248
0.9726562, -0.0263672, -0.2304688, -11.5853662, -15.060976, 3.9024391, 0.0025177
0.9794922, -0.0307617, -0.2299805, -12.1951218, -14.7560978, 3.6585367, -0.002182
0.9814453, -0.0351562, -0.2363281, -12.5, -14.8170738, 3.6585367, -0.0050355
0.9824219, -0.0410156, -0.2490234, -13.780488, -15.2439032, 4.1463413, -0.0095674
0.9897461, -0.0439453, -0.2578125, -14.3292685, -15.1829271, 4.390244, -0.0082246
0.9931641, -0.0395508, -0.2763672, -15.2439032, -15, 4.8170733, -0.0132601
0.9892578, -0.0366211, -0.2885742, -15.7926836, -15.1219511, 5.3048782, -0.0223239
0.9863281, -0.0224609, -0.3051758, -16.0975609, -15.7317076, 5.8536587, -0.0270237
0.9892578, -0.0068359, -0.3129883, -16.280489, -16.0975609, 6.1585369, -0.0325628
0.9916992, 0.003418, -0.3154297, -16.4024391, -15.6097565, 6.280488, -0.0354162
1.0063477, 0.0073242, -0.3120117, -17.5, -14.6341467, 5.8536587, -0.0337377
1.0073242, 0.0039062, -0.3095703, -18.5365849, -14.2073174, 5.9146342, -0.0377661
1.0039062, -0.0175781, -0.2998047, -20.5487804, -13.6585369, 6.280488, -0.04448
1.0048828, -0.0302734, -0.2978516, -21.4634151, -13.780488, 6.5243902, -0.043473
0.9936523, -0.0620117, -0.3022461, -22.8658543, -13.6585369, 7.6829271, -0.0481727
0.9858398, -0.0722656, -0.3095703, -22.8658543, -13.7195129, 8.2317076, -0.047837
0.9711914, -0.0756836, -0.3266602, -22.3170738, -13.9634151, 8.5365858, -0.0458228
0.9707031, -0.0678711, -0.3359375, -21.5243912, -14.3292685, 8.5365858, -0.0451514
0.9716797, -0.0649414, -0.3452148, -20.3658543, -14.2073174, 7.4390244, -0.0431373
0.9804688, -0.0678711, -0.3422852, -19.8170738, -13.9024391, 7.0121951, -0.0339055
0.9882812, -0.0761719, -0.3398438, -18.9634151, -12.9268293, 6.280488, -0.0344091
0.9931641, -0.0927734, -0.3300781, -18.5365849, -12.0121956, 6.280488, -0.0411231
0.9868164, -0.0991211, -0.3320312, -18.4756107, -11.280488, 6.5853658, -0.0446479
0.9677734, -0.1025391, -0.3339844, -17.6829281, -10.8536587, 6.8292685, -0.0446479
0.9609375, -0.0947266, -0.3334961, -17.1341476, -11.0365858, 6.9512196, -0.0453193
0.9472656, -0.0825195, -0.3325195, -16.1585369, -11.6463413, 6.7073174, -0.0431373
0.9423828, -0.0844727, -0.3310547, -15.7317076, -12.0731707, 6.0365853, -0.04448
0.9316406, -0.09375, -0.315918, -15.4878054, -12.8048782, 5.4268293, -0.0411231
0.9291992, -0.0947266, -0.3012695, -15, -12.8048782, 5.2439027, -0.0364233
0.9208984, -0.0878906, -0.2768555, -12.8658543, -13.841464, 5, -0.0491798
0.918457, -0.0800781, -0.2617188, -11.4024391, -14.3292685, 5.5487804, -0.0720073
0.9199219, -0.0698242, -0.2612305, -7.3780489, -16.5853653, 5.7926831, -0.0861067
0.9296875, -0.0512695, -0.2714844, -4.4512196, -18.9024391, 6.280488, -0.0924849
0.9404297, -0.0473633, -0.2788086, -3.2317073, -19.6341476, 6.2195125, -0.0834211
0.9526367, -0.0444336, -0.2919922, -1.3414634, -20.9756107, 6.5853658, -0.0713359
0.9555664, -0.0488281, -0.2978516, -1.3414634, -21.8292694, 6.890244, -0.0552224
0.9614258, -0.0576172, -0.2866211, -0.7926829, -22.3780499, 8.2317076, -0.0399481
0.9624023, -0.0507812, -0.2734375, -0.3658537, -22.3780499, 8.3536587, -0.0213169
0.9594727, -0.0390625, -0.2592773, -0.1829268, -21.8292694, 8.2926826, -0.0139315
0.9492188, -0.0273438, -0.2490234, -0.6707317, -21.7682934, 8.5975609, -0.0030213
0.9487305, -0.0112305, -0.2294922, -2.3780489, -22.8048782, 9.6341467, 0.0132601
0.9750977, -0.0048828, -0.1972656, -3.5365853, -23.7195129, 10.3048782, 0.018967
0.9873047, -0.0117188, -0.1782227, -5.609756, -25.6707325, 10.9146347, 0.0146029
1.0092773, -0.0297852, -0.1523438, -8.2926826, -26.4634151, 11.8902445, 0.0172885
1.0136719, -0.0419922, -0.1503906, -9.6341467, -26.5853672, 12.3780489, 0.0250095
1.0141602, -0.0805664, -0.1630859, -12.4390249, -27.8048782, 13.9024391, 0.0317235
1.0083008, -0.1030273, -0.1767578, -13.7195129, -28.4146347, 14.6951227, 0.0347448
0.9931641, -0.1391602, -0.2294922, -14.6341467, -29.6341476, 16.8902435, 0.0370947
0.9833984, -0.1430664, -0.2753906, -14.3902445, -30.3658543, 17.5, 0.0357519
0.9902344, -0.1391602, -0.3095703, -11.9512196, -31.8292694, 18.4756107, 0.033402
1.0161133, -0.1381836, -0.2973633, -11.219512, -31.341465, 18.4146347, 0.0407874
1.0546875, -0.1235352, -0.3198242, -11.219512, -30.3658543, 16.2195129, 0.0468299
1.0214844, -0.1049805, -0.3447266, -12.2560978, -29.6951218, 15.060976, 0.0488441
1.0053711, -0.1132812, -0.3408203, -14.6951227, -29.1463413, 15, 0.0488441
0.9946289, -0.1225586, -0.3227539, -16.1585369, -30.3658543, 16.4024391, 0.0428016
0.9897461, -0.1171875, -0.3125, -16.4634151, -30.6707325, 16.280489, 0.0381018
0.9814453, -0.1000977, -0.3061523, -17.1341476, -30.7317085, 15.5487804, 0.0276951
0.9750977, -0.1000977, -0.3051758, -18.4146347, -31.341465, 15.1219511, 0.023331
0.9726562, -0.1025391, -0.3032227, -20.6097565, -33.1097565, 15.5487804, 0.0213169
0.9824219, -0.1044922, -0.2988281, -20.6097565, -34.0243912, 15.8536587, 0.0125887
1.0126953, -0.0952148, -0.28125, -20.3048782, -34.8170738, 15.9146347, 0.0045319
1.0297852, -0.0859375, -0.2724609, -20.2439022, -34.0243912, 16.0365849, -0.0109102
1.0356445, -0.0600586, -0.2685547, -21.8292694, -32.6829262, 15.8536587, -0.0203098
1.0205078, -0.0424805, -0.2651367, -23.4756107, -32.6219521, 15.7926836, -0.0236667
1.0151367, -0.0390625, -0.2587891, -25.8536587, -34.0243912, 17.1951218, -0.0213169
1.012207, -0.03125, -0.2553711, -27.2560978, -36.0975609, 17.9268303, -0.0182956
1.0043945, -0.0302734, -0.2626953, -27.6219521, -36.8902435, 18.2317085, -0.0248417
0.9921875, -0.0527344, -0.2866211, -28.7195129, -38.3536606, 18.6585369, -0.04448
0.9892578, -0.0732422, -0.300293, -29.3902454, -38.5365868, 19.1463413, -0.0639506
0.9873047, -0.1196289, -0.3100586, -29.7560978, -39.2682953, 19.8170738, -0.0820783
0.9873047, -0.1328125, -0.3095703, -29.0853672, -39.1463432, 19.939024, -0.0965133
0.9775391, -0.1411133, -0.3203125, -26.4024391, -39.1463432, 19.6951218, -0.1106126
0.9780273, -0.1420898, -0.3256836, -25.2439022, -39.2682953, 19.3902435, -0.1156481
0.9819336, -0.125, -0.3461914, -23.1707325, -39.8780479, 18.3536587, -0.1163195
0.9819336, -0.1083984, -0.371582, -22.7439022, -40.3658562, 18.4146347, -0.114641
0.9799805, -0.0976562, -0.3847656, -22.3780499, -41.0365868, 18.5365849, -0.1049058
0.984375, -0.0688477, -0.4042969, -23.3536587, -42.0731735, 18.4756107, -0.0928206
0.9931641, -0.0634766, -0.4023438, -24.2682934, -42.8048782, 18.2317085, -0.0783856
1.0087891, -0.0566406, -0.3774414, -25.6097565, -44.3292694, 17.8048782, -0.0616007
1.0141602, -0.0585938, -0.3608398, -26.4024391, -44.5731735, 17.8048782, -0.0431373
1.0170898, -0.0751953, -0.3232422, -27.3780499, -44.6951218, 18.6585369, -0.0203098
1.0141602, -0.078125, -0.3095703, -27.5, -44.5731735, 18.8414631, -0.0008392
0.9951172, -0.0727539, -0.2919922, -27.3170738, -44.8780479, 20.3048782, 0.0132601
0.9853516, -0.0688477, -0.2915039, -27.4390259, -45.3658562, 21.0975609, 0.0293736
0.9775391, -0.0576172, -0.3012695, -27.3170738, -46.7682953, 21.7682934, 0.040116
0.9882812, -0.0522461, -0.3193359, -27.6219521, -47.9878044, 21.8292694, 0.0424659
0.9980469, -0.0551758, -0.3227539, -27.9878063, -48.841465, 22.560976, 0.0498512
1.0092773, -0.0634766, -0.3271484, -28.9024391, -48.7195129, 22.6219521, 0.0459907
1.0141602, -0.0639648, -0.328125, -28.9634151, -48.7195129, 22.560976, 0.0394446
1.0019531, -0.0751953, -0.3266602, -29.3292694, -48.9024391, 23.4756107, 0.0246738
1.0019531, -0.0795898, -0.3295898, -29.4512196, -49.2073174, 23.6585369, 0.0085603
0.9916992, -0.0869141, -0.3374023, -29.1463413, -49.8170738, 23.9024391, -0.0008392
0.9868164, -0.09375, -0.3457031, -29.3292694, -50.5487823, 24.1463413, -0.0109102
0.9799805, -0.0859375, -0.371582, -29.6341476, -51.0975609, 24.5121956, -0.0203098
0.9726562, -0.0820312, -0.3823242, -30.3048782, -51.5243912, 24.9390259, -0.0273594
0.9750977, -0.0834961, -0.3925781, -32.0121956, -52.0121956, 24.8170738, -0.0327306
0.9711914, -0.0727539, -0.3974609, -32.3170738, -52.5609779, 24.8170738, -0.0337377
0.9731445, -0.0751953, -0.3950195, -32.8048782, -53.2317085, 25.1219521, -0.0397803
0.9804688, -0.0791016, -0.3823242, -33.9634171, -53.3536606, 25.1829281, -0.0391089
0.9848633, -0.0849609, -0.3701172, -34.8780479, -53.7195129, 25.1219521, -0.0293736
0.9833984, -0.0957031, -0.3549805, -36.2804871, -53.9634171, 25.6097565, -0.0223239
0.9711914, -0.1025391, -0.3603516, -37.0121956, -54.2682953, 26.0975609, -0.0162814
0.9536133, -0.1005859, -0.3867188, -38.5975609, -55.0609779, 27.9268303, -0.0095674
0.9467773, -0.0898438, -0.4023438, -39.3902435, -55.4268303, 28.9634151, -0.0068818
0.9453125, -0.0698242, -0.4111328, -39.9390259, -56.341465, 30.1829281, -0.012253
0.9560547, -0.0576172, -0.4106445, -40.4268303, -57.0731735, 29.9390259, -0.0340734
0.9804688, -0.043457, -0.4130859, -41.5853653, -57.9268303, 28.9634151, -0.0498512
0.9897461, -0.0410156, -0.4111328, -42.3170738, -58.3536606, 29.0853672, -0.0666361
0.9960938, -0.0478516, -0.4082031, -45.1219521, -58.841465, 29.9390259, -0.0847639
1.0009766, -0.0776367, -0.3979492, -47.3170738, -60.1219521, 31.2195129, -0.103563
0.9931641, -0.0869141, -0.3925781, -48.1097565, -60.9146347, 31.8902454, -0.1220264
0.9790039, -0.112793, -0.394043, -48.5975609, -62.0731735, 32.8048782, -0.1351186
0.96875, -0.1254883, -0.3979492, -48.2317085, -62.8048782, 32.9268303, -0.1346151
0.9550781, -0.1420898, -0.3994141, -47.9268303, -63.6585388, 33.4756088, -0.1304189
0.9477539, -0.1450195, -0.3955078, -47.1951218, -64.2682953, 33.4756088, -0.1190051
0.9511719, -0.1552734, -0.3950195, -45.1829262, -65.4268341, 33.3536606, -0.1012131
0.9467773, -0.1557617, -0.3989258, -44.0853653, -65.7926865, 32.9878044, -0.0822461
0.9414062, -0.1420898, -0.4116211, -42.4390259, -66.7682953, 33.5365868, -0.0654612
0.9418945, -0.1186523, -0.4204102, -41.2804871, -67.3780518, 33.7804871, -0.0424659
0.9521484, -0.1069336, -0.4199219, -39.2682953, -69.6951218, 33.841465, -0.0231632
0.9692383, -0.0922852, -0.4194336, -37.5609779, -71.5243912, 33.2926826, -0.0095674
0.9799805, -0.0893555, -0.4194336, -37.7439041, -72.0731735, 33.0487823, 0.0058747
0.984375, -0.1020508, -0.4199219, -37.9268303, -72.8048782, 32.9878044, 0.026688
0.9819336, -0.1049805, -0.4208984, -37.7439041, -73.7195129, 33.2926826, 0.0464942
0.9667969, -0.1123047, -0.4326172, -37.8658562, -74.8780518, 34.2073174, 0.0589151
0.9575195, -0.1098633, -0.4384766, -37.5609779, -75.6707306, 34.8170738, 0.0669718
0.9404297, -0.1049805, -0.4428711, -37.1341476, -77.3780518, 35.5487823, 0.0763714
0.9384766, -0.1030273, -0.4350586, -36.5853653, -78.3536606, 35.3048782, 0.0763714
0.9287109, -0.1040039, -0.4223633, -36.2195129, -80.4878082, 35.5487823, 0.0763714
0.9296875, -0.1088867, -0.3911133, -35.9146347, -81.0975647, 35.2439041, 0.0746929
0.9326172, -0.1098633, -0.3798828, -35.0609779, -82.8048782, 34.8170738, 0.0746929
0.9257812, -0.1020508, -0.3662109, -34.4512215, -84.6951218, 34.3902435, 0.0753643
0.9160156, -0.0913086, -0.3652344, -34.5121956, -85.6707306, 34.7560997, 0.0710002
0.9155273, -0.0859375, -0.3701172, -34.8780479, -88.0487823, 35.2439041, 0.0616007
0.9199219, -0.0922852, -0.3720703, -34.8780479, -89.6341476, 35.1829262, 0.0518654
0.9326172, -0.1225586, -0.3891602, -34.1463432, -92.6219559, 34.7560997, 0.036759
0.9394531, -0.1352539, -0.3994141, -33.1707306, -93.7195129, 34.0853653, 0.0159457
0.9589844, -0.1503906, -0.4301758, -31.0365868, -95.5487823, 33.841465, 0.0005035
0.9589844, -0.152832, -0.4492188, -29.5121956, -95.9146347, 34.0853653, -0.0112459
0.9555664, -0.1411133, -0.4951172, -28.0487804, -96.646347, 34.6341476, -0.0243381
0.9453125, -0.1381836, -0.5395508, -27.5, -97.1341476, 35.1829262, -0.0360876
0.9360352, -0.1347656, -0.5571289, -27.6219521, -97.5, 35.5487823, -0.0424659
0.9267578, -0.1254883, -0.5834961, -27.7439022, -97.8048782, 35.9146347, -0.0428016
0.9174805, -0.125, -0.5942383, -27.7439022, -98.1097565, 36.0365868, -0.0464942
0.9082031, -0.1357422, -0.6235352, -27.7439022, -98.4146347, 35.8536606, -0.0532082
0.9052734, -0.1401367, -0.6386719, -27.9268303, -98.5365906, 35.6097565, -0.0538796
0.9042969, -0.1616211, -0.6479492, -28.3536587, -98.9024429, 35.5487823, -0.0532082
0.9111328, -0.1694336, -0.6455078, -28.1097565, -99.2073212, 35.5487823, -0.0518654
0.9150391, -0.1879883, -0.6601562, -27.6829281, -98.5365906, 35.5487823, -0.0471656
0.9130859, -0.1899414, -0.6757812, -27.5, -97.9878082, 36.0975609, -0.0407874
0.9052734, -0.1806641, -0.7050781, -27.3170738, -97.4390259, 37.3780479, -0.0424659
0.9165039, -0.1689453, -0.6904297, -27.3170738, -97.1341476, 38.1707344, -0.0411231
0.9291992, -0.1591797, -0.6694336, -27.7439022, -97.68293, 38.7195129, -0.0404517
0.9487305, -0.1430664, -0.6230469, -27.560976, -97.6219559, 38.1707344, -0.04448
0.9458008, -0.1411133, -0.6049805, -27.2560978, -97.6219559, 37.8048782, -0.0532082
0.9355469, -0.137207, -0.5791016, -27.2560978, -96.5853653, 38.4146347, -0.0743572
0.9301758, -0.1313477, -0.5717773, -27.5, -96.4634171, 38.7195129, -0.0975204
0.9335938, -0.125, -0.5708008, -27.0121956, -97.2561035, 39.7560997, -0.1166552
0.9301758, -0.1171875, -0.5771484, -27.1341476, -98.1097565, 39.9390259, -0.1196765
0.9418945, -0.1103516, -0.6142578, -28.2317085, -99.7561035, 40.7926826, -0.1156481
0.9492188, -0.1098633, -0.6313477, -28.6585369, -100.1219559, 40.8536606, -0.1149767
0.9575195, -0.1220703, -0.6459961, -30.4268303, -101.1585388, 41.2804871, -0.10692
0.9697266, -0.140625, -0.6401367, -30.9756107, -101.0975647, 40.9146347, -0.0975204
0.9697266, -0.1557617, -0.6479492, -31.5853672, -100.8536606, 40.7926826, -0.0874495
0.9521484, -0.1884766, -0.6777344, -32.1951218, -100.6707306, 40.5487823, -0.0683146
0.9389648, -0.2021484, -0.6884766, -32.3170738, -100.9756088, 40.6097565, -0.047837
0.9194336, -0.2353516, -0.6777344, -32.3780479, -100.7926865, 40.8536606, -0.0323949
0.9091797, -0.2524414, -0.6591797, -31.7682934, -100.7317123, 40.4878044, -0.0213169
0.9047852, -0.2675781, -0.6079102, -30.1219521, -100.3658524, 40.0609779, -0.0099031
0.8964844, -0.2719727, -0.5952148, -29.3292694, -99.9390259, 39.4512215, -0.002182
0.8701172, -0.2729492, -0.6157227, -27.4390259, -99.6951218, 39.0853653, 0.0065461
0.8535156, -0.2705078, -0.6352539, -27.0121956, -100.1219559, 39.3292694, 0.0152743
0.8374023, -0.269043, -0.6704102, -25.8536587, -101.2804871, 40.3048782, 0.0182956
0.8569336, -0.2490234, -0.6806641, -23.8414631, -102.68293, 41.0365868, 0.0226596
0.8764648, -0.2412109, -0.6791992, -22.560976, -102.9268341, 40.7926826, 0.0240024
0.9067383, -0.2382812, -0.6787109, -20.3658543, -103.4146347, 39.0243912, 0.026688
0.9238281, -0.2412109, -0.6669922, -19.5121956, -103.1097565, 38.2926826, 0.0310521
0.9248047, -0.2636719, -0.6494141, -18.0487804, -102.4390259, 36.9512215, 0.033402
0.9199219, -0.2714844, -0.652832, -17.6219521, -102.1341476, 37.0731697, 0.0330663
0.8901367, -0.2729492, -0.6757812, -16.7682934, -102.6219559, 38.0487823, 0.0313878
0.8754883, -0.2680664, -0.6899414, -16.2195129, -102.7439041, 38.6585388, 0.0285344
0.8530273, -0.2597656, -0.6953125, -14.9390249, -103.8414688, 39.7560997, 0.0199741
0.855957, -0.2558594, -0.6879883, -14.1463413, -103.9634171, 39.8780479, 0.0104067
0.8666992, -0.2348633, -0.652832, -11.7682934, -103.8414688, 39.2073174, -0.0005035
0.8647461, -0.2080078, -0.6303711, -9.6341467, -103.4756088, 38.1097565, -0.0102388
0.8564453, -0.1933594, -0.6391602, -9.5121956, -103.2926865, 37.9268303, -0.0179599
0.8398438, -0.1796875, -0.6879883, -10.9146347, -104.146347, 38.5975609, -0.0273594
0.8447266, -0.1806641, -0.7133789, -12.5, -105.7926865, 39.3902435, -0.0374304
0.8662109, -0.2006836, -0.7338867, -14.3292685, -108.5975647, 40.9146347, -0.0448157
0.8837891, -0.206543, -0.7363281, -14.8170738, -109.4512253, 40.9756088, -0.0485084
0.902832, -0.2202148, -0.7373047, -14.2682934, -109.0853653, 41.0975609, -0.0498512
0.9042969, -0.2211914, -0.734375, -14.2682934, -108.5365906, 40.7926826, -0.0505226
0.9008789, -0.2202148, -0.7299805, -13.780488, -107.5609818, 40.9146347, -0.0441444
0.8974609, -0.2363281, -0.7080078, -13.780488, -107.3780518, 40.6097565, -0.0360876
0.8994141, -0.246582, -0.6958008, -13.1097565, -107.8048782, 40.1829262, -0.0243381
0.8886719, -0.2714844, -0.6845703, -12.0731707, -108.1707306, 39.3292694, -0.0179599
0.8798828, -0.2827148, -0.6826172, -10.7926836, -108.4146347, 39.6341476, -0.0082246
0.8583984, -0.293457, -0.6821289, -8.5975609, -108.5365906, 40.3048782, -0.0057069
0.8510742, -0.2910156, -0.6835938, -7.4390244, -108.6585388, 40.6097565, -0.0041962
0.8349609, -0.2685547, -0.6992188, -5.1219511, -108.1097565, 41.4634171, -0.0095674
0.8193359, -0.2485352, -0.7109375, -4.2682929, -107.8658524, 41.5853653, -0.0095674
0.8056641, -0.1953125, -0.7490234, -3.6585367, -107.9268341, 41.7073174, -0.0099031
0.8061523, -0.1762695, -0.7685547, -4.0853658, -108.7804871, 40.9756088, -0.012253
0.8422852, -0.1748047, -0.7773438, -5.8536587, -111.0975647, 39.6951218, -0.0169528
0.8916016, -0.2084961, -0.7587891, -6.890244, -112.2561035, 38.6585388, -0.0209812
0.90625, -0.2285156, -0.7480469, -8.4756098, -112.9268341, 36.8902435, -0.0236667
0.9018555, -0.2670898, -0.7265625, -9.0853662, -111.9512253, 36.7073174, -0.0276951
0.8901367, -0.2827148, -0.7319336, -8.780488, -111.7682953, 37.3780479, -0.0273594
0.8652344, -0.3081055, -0.7412109, -7.2560978, -111.4024429, 38.4146347, -0.0273594
0.8520508, -0.3188477, -0.7382812, -5.9756098, -111.5243912, 38.6585388, -0.030045
0.84375, -0.3349609, -0.7089844, -2.3170731, -111.4634171, 37.3170738, -0.0317235
0.8408203, -0.3359375, -0.6889648, 0.0609756, -110.9756088, 36.7073174, -0.0297093
0.8251953, -0.324707, -0.6772461, 3.7195122, -109.9390259, 34.5121956, -0.0323949
0.8081055, -0.3056641, -0.6845703, 5.2439027, -109.8170776, 33.841465, -0.0317235
0.7763672, -0.2636719, -0.7241211, 5.4878049, -110.3048782, 33.1097565, -0.0283665
0.7646484, -0.2202148, -0.7631836, 4.8170733, -111.2804871, 33.4756088, -0.0290379
0.7724609, -0.2075195, -0.7685547, 3.9634147, -113.6585388, 33.6585388, -0.0250095
0.7958984, -0.2045898, -0.7636719, 2.804878, -114.3292694, 33.2926826, -0.0226596
0.8037109, -0.2070312, -0.7587891, 2.6219513, -114.146347, 32.9878044, -0.0226596
0.8037109, -0.2231445, -0.753418, 2.195122, -113.0487823, 32.8658562, -0.0250095
0.7924805, -0.2387695, -0.7548828, 2.3780489, -112.5, 32.9878044, -0.0258488
0.7666016, -0.2758789, -0.7573242, 2.9878049, -111.7073212, 33.5975609, -0.0303807
0.7504883, -0.284668, -0.7714844, 3.5365853, -111.2804871, 34.0243912, -0.0320592
0.715332, -0.3012695, -0.8012695, 5.670732, -111.4634171, 34.8780479, -0.0357519
0.7060547, -0.3046875, -0.8188477, 6.9512196, -111.2195129, 35.1829262, -0.0391089
0.699707, -0.2890625, -0.8271484, 8.5975609, -111.2804871, 36.1585388, -0.0364233
0.7211914, -0.2592773, -0.7949219, 9.6341467, -111.2195129, 35.9146347, -0.0297093
0.7304688, -0.2387695, -0.7817383, 10.2439022, -110.9146347, 34.6341476, -0.0317235
0.7319336, -0.2163086, -0.769043, 9.6341467, -110.0609818, 33.3536606, -0.0293736
0.7260742, -0.2226562, -0.7749023, 8.841464, -109.7561035, 33.4756088, -0.0285344
0.7006836, -0.2485352, -0.8041992, 7.1341467, -109.9390259, 34.8170738, -0.0297093
0.6914062, -0.2597656, -0.8276367, 6.6463418, -110.4268341, 35.7317085, -0.0250095
0.6816406, -0.2802734, -0.8671875, 7.0731707, -111.646347, 37.6829262, -0.0196384
0.6850586, -0.2851562, -0.8774414, 7.8048782, -112.0121994, 37.8658562, -0.023331
0.7045898, -0.2929688, -0.8818359, 9.0853662, -111.4634171, 37.8658562, -0.0182956
0.7128906, -0.2924805, -0.8813477, 9.9390249, -111.0365906, 37.9268303, -0.0159457
0.7124023, -0.2910156, -0.8833008, 9.8170738, -109.3902435, 37.8048782, -0.0179599
0.6953125, -0.2890625, -0.8769531, 9.4512196, -108.9024429, 37.5609779, -0.018967
0.6889648, -0.2871094, -0.8696289, 8.4756098, -108.3536606, 37.9268303, -0.0246738
0.6552734, -0.2792969, -0.8774414, 7.4390244, -107.9878082, 38.4146347, -0.0283665
0.6342773, -0.2729492, -0.8901367, 7.0731707, -108.1097565, 38.7804871, -0.0323949
0.612793, -0.2480469, -0.9301758, 6.1585369, -108.8414688, 40.1829262, -0.0417945
0.6132812, -0.2407227, -0.9389648, 4.8780489, -109.6951218, 40.6097565, -0.0431373
0.6367188, -0.2407227, -0.9379883, 3.2926829, -112.2561035, 41.1585388, -0.0522011
0.6533203, -0.2519531, -0.9248047, 2.195122, -113.3536606, 41.2195129, -0.0602579
0.6875, -0.2822266, -0.8808594, 0.6097561, -114.0243912, 41.2804871, -0.0679789
0.6977539, -0.300293, -0.8608398, 0.1219512, -113.4146347, 41.4634171, -0.082414
0.6977539, -0.3300781, -0.8193359, 0.9146342, -110.9756088, 41.5853653, -0.0921492
0.6694336, -0.3413086, -0.8198242, 1.3414634, -110.3048782, 41.341465, -0.093492
0.6416016, -0.3339844, -0.8354492, 2.9268293, -108.1097565, 41.7682953, -0.0908064
0.5952148, -0.2988281, -0.8823242, 3.9634147, -108.1097565, 42.3170738, -0.0877852
0.5776367, -0.2832031, -0.8935547, 3.8414636, -108.5975647, 42.8048782, -0.0746929
0.5717773, -0.2597656, -0.8979492, 2.4390244, -110.36586, 43.1097565, -0.0642863
0.5810547, -0.2529297, -0.8852539, 1.7073171, -111.1585388, 42.6829262, -0.0438087
0.6049805, -0.2543945, -0.8647461, -0.7926829, -112.5609818, 41.8292694, -0.018967
0.6088867, -0.2636719, -0.8706055, -1.6463414, -112.7439041, 41.8902435, -0.0031891
0.6147461, -0.3046875, -0.8920898, -3.6585367, -114.3902435, 42.5, 0.0115816
0.6196289, -0.3325195, -0.894043, -4.5121951, -115.3048782, 43.1097565, 0.0219883
0.6337891, -0.3745117, -0.8701172, -3.7804878, -116.4024429, 44.1463432, 0.0347448
0.6367188, -0.375, -0.8393555, -2.7439024, -115.7317123, 44.3292694, 0.0468299
0.625, -0.3657227, -0.8461914, 0.1219512, -114.2073212, 42.7439041, 0.0627756
0.5766602, -0.3364258, -0.8974609, 1.3414634, -112.9268341, 41.7682953, 0.072343
0.5522461, -0.3320312, -0.9331055, 1.2804878, -113.4146347, 42.3780479, 0.0720073
0.5336914, -0.3271484, -0.9824219, 0.4268293, -116.1585388, 43.7195129, 0.0740215
0.5390625, -0.3183594, -0.9853516, 0.2439024, -117.5609818, 44.2682953, 0.0710002
0.5771484, -0.2954102, -0.9589844, -1.097561, -118.7195129, 43.7804871, 0.0703288
0.5917969, -0.293457, -0.9350586, -2.0121951, -118.2317123, 43.2926826, 0.0642863
0.5917969, -0.2895508, -0.9018555, -4.0243902, -116.2195129, 42.0121956, 0.0481727
0.5820312, -0.293457, -0.8916016, -5.4268293, -115.5487823, 42.3170738, 0.0359197
0.5488281, -0.3129883, -0.9125977, -7.1951222, -115.6707306, 43.3536606, 0.0213169
0.5219727, -0.3349609, -0.9438477, -7.8048782, -116.5243912, 44.1463432, 0.0005035
0.5131836, -0.3422852, -0.9628906, -7.1951222, -118.9024429, 45.8536606, -0.0149386
0.5087891, -0.3642578, -0.9853516, -5.3658538, -119.7561035, 46.4024391, -0.0280308
0.5205078, -0.3740234, -0.9819336, -4.390244, -120, 46.5853653, -0.0337377
0.5400391, -0.387207, -0.9575195, -2.5, -119.5731735, 46.2195129, -0.0354162
0.550293, -0.3920898, -0.9433594, -1.7682927, -118.9634171, 45.6097565, -0.0391089
0.5493164, -0.3974609, -0.9384766, -0.3658537, -117.68293, 44.6951218, -0.0404517
0.5449219, -0.3925781, -0.9418945, 0.3658537, -117.1341476, 44.7560997, -0.043473
0.5195312, -0.3876953, -0.9633789, 1.097561, -116.9512253, 44.8780479, -0.04448
0.5083008, -0.3867188, -0.9707031, 1.402439, -116.8902435, 44.6341476, -0.0397803
0.4941406, -0.3759766, -0.9780273, 2.1341465, -117.3780518, 44.6951218, -0.0344091
0.4814453, -0.3564453, -0.9682617, 2.3170731, -117.4390259, 44.2682953, -0.0276951
0.4736328, -0.3422852, -0.956543, 2.5609756, -117.1341476, 44.0243912, -0.0216526
0.4584961, -0.3173828, -0.9526367, 2.3170731, -117.2561035, 43.1707344, -0.01561
0.4599609, -0.3149414, -0.9555664, 2.3170731, -117.5, 42.9268303, -0.0152743
0.4594727, -0.3388672, -0.9648438, 0.9146342, -119.2682953, 43.5365868, -0.014435
0.4599609, -0.3588867, -0.9682617, 0.3658537, -120.0609818, 44.1463432, -0.0095674
0.4736328, -0.4038086, -0.9589844, 0.1219512, -120.0609818, 44.7560997, -0.0082246
0.4702148, -0.4165039, -0.9609375, 0.4268293, -119.5121994, 45.1219521, -0.0058747
0.4443359, -0.4013672, -0.9916992, 1.097561, -118.5365906, 44.7560997, -0.0008392
0.4267578, -0.3857422, -1.0131836, 1.4634147, -118.5975647, 44.6341476, 0.0031891
0.4086914, -0.3530273, -1.0478516, 1.097561, -120.1219559, 44.6341476, -0.0008392
0.4272461, -0.3178711, -1.0439453, 0.3658537, -120.9756088, 44.6341476, -0.0041962
0.4345703, -0.3115234, -1.0336914, -2.2560976, -121.4024429, 44.0853653, -0.005539
0.4414062, -0.3056641, -1.0117188, -5.3048782, -120, 43.4146347, -0.008896
0.4350586, -0.3110352, -1.0078125, -6.9512196, -118.9634171, 43.2926826, -0.0149386
0.4243164, -0.3344727, -1.015625, -10.1219511, -119.0853653, 44.1463432, -0.0172885
0.4213867, -0.3525391, -1.0170898, -10.9146347, -120.18293, 44.5731735, -0.0246738
0.4238281, -0.4116211, -1.0146484, -10.6097565, -122.4390259, 45.3658562, -0.0307164
0.4311523, -0.4384766, -1.0117188, -9.7560978, -122.9268341, 45.5487823, -0.0313878
0.4384766, -0.4770508, -0.9804688, -6.4634147, -121.8902435, 45.0609779, -0.0360876
0.4379883, -0.4829102, -0.9516602, -4.6951222, -120.18293, 44.6341476, -0.036759
0.425293, -0.4614258, -0.9106445, -0.7317073, -117.1951218, 42.8048782, -0.0325628
0.3745117, -0.4106445, -0.9282227, 0.6707317, -115.9146347, 41.8902435, -0.0298772
0.3466797, -0.390625, -0.9536133, 1.8902439, -116.4024429, 41.1585388, -0.0293736
0.3291016, -0.3632812, -1.0029297, 2.195122, -119.9390259, 41.2195129, -0.0261845
0.331543, -0.3544922, -1.019043, 2.4390244, -121.9512253, 40.9756088, -0.023331
0.3574219, -0.3393555, -1.0371094, 2.804878, -123.9024429, 41.0365868, -0.01561
0.362793, -0.3339844, -1.0371094, 2.4390244, -123.1707382, 41.341465, -0.0058747
0.3657227, -0.3256836, -1.0419922, 1.5853659, -120.4878082, 42.3780479, 0.0008392
0.3637695, -0.3251953, -1.0488281, 0.9146342, -119.9390259, 42.8658562, 0.0099031
0.3603516, -0.3266602, -1.0600586, -0.8536586, -119.9390259, 44.3292694, 0.0099031
0.3637695, -0.3388672, -1.0561523, -1.9512196, -120.7317123, 44.3902435, 0.0065461
0.3686523, -0.3666992, -1.046875, -3.7804878, -121.7682953, 45.0609779, -0.0041962
0.3657227, -0.3862305, -1.050293, -4.1463413, -121.2804871, 44.9390259, -0.0151064
0.3569336, -0.3964844, -1.0595703, -4.5121951, -119.3292694, 45.4268303, -0.0250095
0.3305664, -0.3891602, -1.0629883, -3.7195122, -117.0731735, 46.5853653, -0.0283665
0.3173828, -0.3823242, -1.0561523, -3.1707318, -116.0975647, 46.8292694, -0.0359197
0.2988281, -0.3535156, -1.03125, -2.6829269, -114.6341476, 46.7682953, -0.0424659
0.2890625, -0.3388672, -1.0244141, -2.804878, -113.9634171, 46.341465, -0.0464942
0.269043, -0.3188477, -1.0166016, -4.390244, -114.6951218, 45.4878044, -0.0505226
0.2670898, -0.3251953, -1.0146484, -5.670732, -115.8536606, 46.4024391, -0.0520333
0.2792969, -0.3481445, -1.015625, -6.6463418, -118.3536606, 47.4390259, -0.0532082
0.284668, -0.3686523, -1.0166016, -6.5853658, -119.2682953, 48.1097565, -0.0528725
0.2924805, -0.3857422, -1.0395508, -5.5487804, -119.146347, 48.7804871, -0.0488441
0.2973633, -0.4008789, -1.0732422, -5.1219511, -119.0853653, 48.9634171, -0.043473
0.3012695, -0.4057617, -1.081543, -3.7195122, -118.7804871, 49.7560997, -0.035584
0.3227539, -0.4091797, -1.0390625, -2.9878049, -118.9634171, 49.3902435, -0.0271916
0.3339844, -0.4140625, -1.0019531, -3.1097562, -118.4146347, 48.5365868, -0.0169528
0.3149414, -0.4287109, -0.9433594, -2.6829269, -115.6707306, 47.0731735, -0.005539
0.2910156, -0.4248047, -0.9394531, -2.195122, -114.146347, 46.5243912, -0.0005035
0.2275391, -0.4101562, -0.9833984, -0.2439024, -114.5121994, 46.9512215, 0.0045319
0.2050781, -0.4033203, -1.0131836, 0.7926829, -116.5243912, 47.5609779, 0.011078
0.2006836, -0.3876953, -1.0498047, 3.0487804, -120.4878082, 48.0487823, 0.0112459
0.215332, -0.3764648, -1.0458984, 3.5365853, -121.7073212, 47.4390259, 0.0078889
0.2548828, -0.3544922, -1.0209961, 2.7439024, -120.4878082, 45.6707344, 0.005539
0.253418, -0.3369141, -1.0234375, 1.3414634, -118.9024429, 45.0609779, 0.0045319
0.237793, -0.340332, -1.0332031, -2.3780489, -116.7073212, 45.6097565, 0.0030213
0.2124023, -0.371582, -1.0498047, -3.9024391, -117.7439041, 48.1097565, -0.0008392
0.2163086, -0.3886719, -1.0561523, -3.5975611, -118.5365906, 48.7804871, -0.005539
0.2177734, -0.4052734, -1.0551758, -1.8292683, -118.2926865, 48.4756126, -0.0102388
0.2177734, -0.4086914, -1.0454102, -0.8536586, -118.1707382, 48.1097565, -0.0186313
0.2075195, -0.409668, -1.0239258, 0.4878049, -116.4634171, 47.1951218, -0.0330663
0.199707, -0.4047852, -1.0219727, 0.3048781, -116.646347, 47.3170738, -0.0480049
0.1865234, -0.3964844, -1.0307617, -0.9756098, -117.7439041, 47.2560997, -0.0592508
0.1826172, -0.3969727, -1.0454102, -1.5243902, -119.0853653, 47.3780518, -0.0639506
0.1796875, -0.4057617, -1.0766602, -2.6219513, -121.7073212, 47.4390259, -0.064622
0.2001953, -0.4160156, -1.0625, -2.4390244, -122.68293, 47.5609779, -0.0686503
0.2089844, -0.4160156, -1.0292969, -2.0731707, -121.8902435, 46.6463432, -0.0673075
0.2045898, -0.4082031, -0.9614258, -1.2195122, -118.8414688, 45.1219521, -0.0666361
0.1787109, -0.3969727, -0.949707, -0.9146342, -116.9512253, 44.6341476, -0.0619364
0.1166992, -0.3662109, -0.9873047, -1.7073171, -115.36586, 45.4268303, -0.0592508
0.0878906, -0.3613281, -1.0288086, -2.3170731, -116.7682953, 45.9146347, -0.0605936
0.078125, -0.3598633, -1.1049805, -3.0487804, -121.7682953, 47.9268303, -0.0498512
0.1000977, -0.3642578, -1.1103516, -3.4146342, -123.4756088, 48.4146347, -0.0412909
0.1577148, -0.3681641, -1.0820312, -3.9024391, -122.9878082, 47.5, -0.0339055
0.1699219, -0.3598633, -1.0620117, -4.5731707, -121.0365906, 46.5853653, -0.0260166
0.1601562, -0.3496094, -1.0322266, -6.5243902, -116.2195129, 45.9146347, -0.0263523
0.1328125, -0.3505859, -1.0297852, -8.841464, -115.5487823, 47.1341476, -0.0283665
0.121582, -0.3549805, -1.0395508, -9.7560978, -116.7682953, 47.8658562, -0.0330663
0.1020508, -0.3701172, -1.0810547, -10.2439022, -120.0609818, 48.9634171, -0.0337377
0.1020508, -0.3857422, -1.1064453, -10.2439022, -121.0365906, 49.0853653, -0.0394446
0.1162109, -0.4189453, -1.1166992, -10.3658543, -121.8292694, 48.2926826, -0.0505226
0.1367188, -0.4350586, -1.0883789, -10.3658543, -121.646347, 47.7439041, -0.0538796
0.159668, -0.4501953, -0.9985352, -9.9390249, -119.2682953, 45.7926826, -0.049012
0.15625, -0.4487305, -0.9580078, -9.5121956, -117.7439041, 45, -0.0381018
0.1044922, -0.4506836, -0.9326172, -8.4146347, -114.9390259, 43.5975609, -0.0256809
0.0649414, -0.4516602, -0.9418945, -7.8658538, -114.7561035, 43.9634171, -0.0152743
0.0048828, -0.4418945, -0.96875, -6.2195125, -116.7682953, 44.8170738, -0.0041962
-0.0146484, -0.4243164, -0.9780273, -4.0243902, -120.0609818, 44.1463432, 0.0065461
-0.0175781, -0.4101562, -0.980957, -3.1097562, -120.4878082, 43.2926826, 0.0132601
-0.0258789, -0.3876953, -1.0102539, -2.9268293, -120.5487823, 42.4390259, 0.0125887
-0.0180664, -0.3813477, -1.0288086, -3.6585367, -120.36586, 42.8658562, 0.0112459
0.0078125, -0.3876953, -1.0634766, -4.1463413, -121.2195129, 43.5365868, 0.0137636
0.0219727, -0.3935547, -1.078125, -4.2073174, -122.2561035, 43.7195129, 0.0132601
0.0507812, -0.40625, -1.0800781, -3.1707318, -122.5609818, 44.5731735, 0.0097353
0.0595703, -0.4082031, -1.0639648, -3.5365853, -121.9512253, 44.8780479, 0.0045319
0.0693359, -0.402832, -1.0126953, -4.2073174, -119.9390259, 44.8170738, 0.0058747
0.0483398, -0.3798828, -0.9731445, -4.8780489, -118.7195129, 44.5121956, 0.0025177
0.0249023, -0.3779297, -0.9648438, -6.4634147, -117.9878082, 43.9634171, 0.0035248
-0.015625, -0.3945312, -0.9824219, -8.2317076, -119.2073212, 43.5365868, -0.0015106
-0.0317383, -0.4091797, -0.9975586, -8.780488, -119.5731735, 43.6585388, -0.0172885
-0.0488281, -0.4428711, -1.0073242, -8.2926826, -120.9756088, 44.3292694, -0.0414588
-0.0522461, -0.4492188, -1.0024414, -7.4390244, -121.2195129, 44.2073174, -0.0501869
-0.0581055, -0.4316406, -0.9980469, -5.9756098, -120.3048782, 43.2926826, -0.0471656
-0.0629883, -0.4130859, -0.9951172, -5.7317076, -119.6341476, 42.6829262, -0.0498512
-0.0581055, -0.3911133, -1.0126953, -6.4024391, -120.4878082, 42.1951218, -0.051194
-0.0527344, -0.3901367, -1.0229492, -6.9512196, -121.5853653, 42.1341476, -0.0542153
-0.0341797, -0.3959961, -1.0244141, -7.6219516, -123.0487823, 42.6219521, -0.0513619
-0.0146484, -0.3999023, -1.0014648, -7.8048782, -122.2561035, 42.6829262, -0.043473
-0.0224609, -0.3955078, -0.9873047, -8.0487804, -119.146347, 42.5, -0.0337377
-0.0654297, -0.378418, -0.9746094, -8.4146347, -115.3048782, 42.7439041, -0.0231632
-0.0947266, -0.3764648, -0.9711914, -9.0853662, -114.3902435, 43.1097565, -0.0041962
-0.1376953, -0.3706055, -0.9838867, -10.3658543, -114.146347, 43.9024391, 0.0146029
-0.1499023, -0.3710938, -0.987793, -10.8536587, -114.9390259, 44.2682953, 0.0280308
-0.1474609, -0.3789062, -1.0151367, -11.7682934, -116.9512253, 44.1463432, 0.0260166
-0.1376953, -0.3837891, -1.0332031, -12.4390249, -117.7439041, 43.9634171, 0.0213169
-0.0996094, -0.4125977, -1.0615234, -13.841464, -118.5975647, 43.7195129, 0.0172885
-0.0830078, -0.4316406, -1.0644531, -13.6585369, -118.6585388, 44.1463432, 0.0112459
-0.0498047, -0.4628906, -1.043457, -13.2317076, -117.3170776, 44.3292694, 0.0082246
-0.0380859, -0.4711914, -1.0180664, -12.6219511, -115.6097565, 43.9024391, 0.0082246
-0.0527344, -0.4663086, -1.0024414, -12.1951218, -112.7439041, 42.9268303, 0.0099031
-0.0947266, -0.4550781, -0.9897461, -11.7682934, -110.6707306, 42.1341476, 0.005539
-0.1225586, -0.4511719, -0.9936523, -11.7682934, -110.4268341, 41.8292694, 0.0090639
-0.1669922, -0.4477539, -0.9765625, -11.0975609, -110.4878082, 41.2195129, 0.0072175
-0.1772461, -0.4501953, -0.9682617, -10.7317076, -110.9146347, 40.6707344, 0.0082246
-0.1821289, -0.4477539, -0.9560547, -9.6341467, -111.9512253, 39.6951218, 0.008896
-0.1835938, -0.4394531, -0.9658203, -9.4512196, -112.5609818, 39.3902435, 0.0048676
-0.1738281, -0.4145508, -0.9794922, -10.060976, -114.146347, 39.0243912, 0.0025177
-0.1586914, -0.3994141, -0.9746094, -10.7317076, -114.9390259, 38.7195129, -0.0005035
-0.128418, -0.3706055, -0.9272461, -12.2560978, -115.7317123, 37.0731697, -0.0005035
-0.1333008, -0.3632812, -0.918457, -13.3536587, -115.5487823, 36.2804871, -0.0031891
-0.1538086, -0.371582, -0.9301758, -15.6707325, -113.0487823, 36.5243912, -0.0062104
-0.1972656, -0.4033203, -0.9477539, -17.0121956, -110.0609818, 38.9634171, -0.0109102
-0.206543, -0.4150391, -0.9438477, -16.0365849, -109.6951218, 39.8170738, -0.0135958
-0.2148438, -0.4086914, -0.909668, -13.6585369, -109.6951218, 39.3902435, -0.0109102
-0.2148438, -0.3891602, -0.8876953, -12.9268293, -109.6951218, 38.4146347, -0.0075532
-0.2324219, -0.3579102, -0.8574219, -13.9024391, -109.3292694, 36.4024391, -0.0016785
-0.246582, -0.3452148, -0.8549805, -15, -109.5121994, 36.1585388, -0.0041962
-0.277832, -0.3364258, -0.8608398, -18.2926826, -110.8536606, 37.1951218, -0.0045319
-0.2905273, -0.3388672, -0.878418, -19.4512196, -112.0731735, 38.4146347, -0.012253
-0.2978516, -0.3393555, -0.9350586, -20.9756107, -112.9268341, 39.2682953, -0.012253
-0.2939453, -0.3481445, -0.9970703, -21.5243912, -112.9878082, 40.0609779, -0.0172885
-0.2783203, -0.3515625, -1.0107422, -22.6219521, -113.0487823, 41.2804871, -0.0226596
-0.2304688, -0.3642578, -1.0009766, -23.4146347, -112.7439041, 41.5243912, -0.0310521
-0.2036133, -0.3701172, -0.9819336, -24.1463413, -112.2561035, 40.9146347, -0.0344091
-0.1782227, -0.3862305, -0.9399414, -26.7073174, -110.36586, 39.8170738, -0.0307164
-0.1791992, -0.3920898, -0.9228516, -27.9878063, -108.9024429, 39.8780479, -0.0310521
-0.2158203, -0.3969727, -0.9023438, -30.2439022, -106.2195129, 40.1829262, -0.0317235
-0.2421875, -0.4023438, -0.8989258, -30.6707325, -105.3048782, 40.1219521, -0.0344091
-0.2919922, -0.40625, -0.9023438, -30.6097565, -105.3658524, 40.1829262, -0.033402
-0.3154297, -0.4082031, -0.9013672, -30.1219521, -105.5487823, 40.0609779, -0.0313878
-0.3466797, -0.4033203, -0.9394531, -28.3536587, -106.0975647, 39.4512215, -0.0283665
-0.3408203, -0.4121094, -0.9746094, -27.6219521, -106.8292694, 39.4512215, -0.0283665
-0.3144531, -0.4208984, -0.9599609, -25.8536587, -108.0487823, 38.7195129, -0.03122
-0.246582, -0.4189453, -0.8632812, -23.780489, -108.4146347, 36.2195129, -0.0323949
-0.2294922, -0.4052734, -0.8188477, -23.4756107, -107.7439041, 34.5121956, -0.0330663
-0.2670898, -0.3710938, -0.7915039, -24.6951218, -104.0853653, 31.8902454, -0.0350805
-0.3125, -0.3652344, -0.8076172, -25.6707325, -102.5, 32.1951218, -0.0357519
-0.3886719, -0.3759766, -0.8496094, -25.7317085, -103.7804871, 34.2682953, -0.040116
-0.4008789, -0.3774414, -0.8608398, -24.6341476, -105.18293, 34.5731697, -0.0473335
-0.4038086, -0.3818359, -0.8588867, -21.6463413, -107.9268341, 33.3536606, -0.0439765
-0.4018555, -0.3725586, -0.8525391, -21.1585369, -108.2926865, 32.4390259, -0.0538796
-0.3867188, -0.3496094, -0.8452148, -20.7317085, -107.3170776, 31.0365868, -0.0659648
-0.3764648, -0.3408203, -0.8520508, -21.5853672, -107.5, 31.0365868, -0.0679789
-0.3647461, -0.340332, -0.8623047, -23.2317085, -108.0487823, 32.0121956, -0.0721752
-0.3618164, -0.3491211, -0.8891602, -24.0853672, -108.6585388, 32.8048782, -0.0740215
-0.3618164, -0.3491211, -0.9072266, -23.7195129, -108.7195129, 33.4146347, -0.0693217
-0.3491211, -0.3442383, -0.9262695, -23.2317085, -108.4146347, 33.9634171, -0.0659648
-0.347168, -0.3393555, -0.9208984, -23.4146347, -107.6219559, 34.5731697, -0.0562295
-0.3491211, -0.3125, -0.9165039, -24.8170738, -106.0365906, 34.3902435, -0.0505226
-0.3564453, -0.3017578, -0.9228516, -26.4024391, -105.2439041, 34.2073174, -0.0491798
-0.3730469, -0.2895508, -0.9511719, -29.9390259, -104.0853653, 34.1463432, -0.0458228
-0.3779297, -0.2978516, -0.9667969, -31.8292694, -104.0243912, 34.7560997, -0.0448157
-0.3745117, -0.3242188, -0.9711914, -33.9634171, -104.5731735, 35.5487823, -0.0397803
-0.3574219, -0.3305664, -0.9404297, -34.5121956, -104.4512253, 35.6707344, -0.0357519
-0.3535156, -0.3227539, -0.9130859, -34.4512215, -103.4756088, 34.8780479, -0.0297093
-0.3681641, -0.3110352, -0.8740234, -35.5487823, -100.9146347, 33.9634171, -0.0216526
-0.3852539, -0.3154297, -0.8745117, -36.7073174, -99.8780518, 33.7195129, -0.0135958
-0.4213867, -0.3457031, -0.8808594, -37.0121956, -99.0243912, 35.1829262, -0.0102388
-0.4277344, -0.3681641, -0.8881836, -36.7073174, -98.9024429, 35.8536606, -0.0038605
-0.4223633, -0.4003906, -0.8989258, -34.3902435, -99.2073212, 35.8536606, -0.0010071
-0.4296875, -0.4013672, -0.9067383, -33.4756088, -99.3292694, 35.5487823, -0.0011749
-0.4375, -0.3725586, -0.902832, -32.1341476, -98.2926865, 34.2073174, -0.0068818
-0.4331055, -0.3579102, -0.8691406, -32.4390259, -98.5365906, 33.3536606, -0.0082246
-0.4140625, -0.3208008, -0.7641602, -33.7804871, -99.5121994, 30, -0.0157778
-0.4345703, -0.3051758, -0.699707, -34.8780479, -100.3048782, 28.5975609, -0.0179599
-0.4672852, -0.3081055, -0.7138672, -38.1707344, -100.7317123, 28.2926826, -0.0229953
-0.5317383, -0.3374023, -0.7929688, -40, -101.646347, 32.0121956, -0.0256809
-0.5498047, -0.3564453, -0.8203125, -39.0853653, -103.2317123, 33.9634171, -0.0347448
-0.5288086, -0.3652344, -0.8168945, -34.6951218, -106.646347, 34.6951218, -0.0399481
-0.5024414, -0.3549805, -0.784668, -31.9512196, -107.7439041, 33.7195129, -0.0377661
-0.4765625, -0.3027344, -0.7270508, -29.5731716, -107.3780518, 30.9146347, -0.0431373
-0.4799805, -0.2783203, -0.7270508, -30.1829281, -106.5243912, 30.4878063, -0.0569009
-0.5107422, -0.2441406, -0.784668, -34.3292694, -105.8536606, 32.3780479, -0.0639506
-0.5258789, -0.2402344, -0.8432617, -36.1585388, -106.2195129, 33.841465, -0.0659648
-0.5341797, -0.253418, -0.9477539, -37.9268303, -108.5975647, 37.0731697, -0.0626078
-0.4726562, -0.2739258, -0.9467773, -37.5, -109.9390259, 38.0487823, -0.0569009
-0.4394531, -0.2724609, -0.9248047, -35.7926826, -109.5731735, 37.3780479, -0.054551
-0.4287109, -0.2436523, -0.9101562, -37.2560997, -104.8780518, 35.8536606, -0.0464942
-0.4414062, -0.2290039, -0.9057617, -39.3902435, -102.0731735, 36.4024391, -0.036759
-0.456543, -0.2397461, -0.8759766, -44.0853653, -99.6951218, 38.4756088, -0.0223239
-0.4628906, -0.2539062, -0.8608398, -45.8536606, -100.3048782, 38.9024391, -0.0104067
-0.4873047, -0.2954102, -0.8754883, -46.6463432, -101.3414688, 39.0853653, -0.0082246
-0.4980469, -0.3222656, -0.9057617, -46.9512215, -101.2804871, 40.2439041, -0.0068818
-0.4951172, -0.3818359, -0.9716797, -45.0609779, -100.7926865, 43.0487823, -0.0102388
-0.4799805, -0.3989258, -0.9819336, -43.6585388, -100.3658524, 43.9024391, -0.0115816
-0.4414062, -0.3994141, -0.949707, -40.5487823, -98.9634171, 43.0487823, -0.0072175
-0.4267578, -0.3447266, -0.8666992, -39.4512215, -97.9878082, 41.5243912, -0.0028534
-0.4423828, -0.3081055, -0.8266602, -40.1829262, -95, 38.2317085, 0.0031891
-0.4970703, -0.2416992, -0.7709961, -43.7804871, -92.9878082, 35.9146347, 0.0078889
-0.5268555, -0.2290039, -0.7509766, -46.0365868, -93.2926865, 35.4878044, 0.0065461
-0.5732422, -0.2348633, -0.7338867, -48.6585388, -96.3414688, 35.7926826, 0.0031891
-0.5849609, -0.2519531, -0.7265625, -49.2073174, -97.7439041, 35.8536606, -0.0028534
-0.5761719, -0.3081055, -0.7246094, -47.9268303, -99.5731735, 36.4634171, -0.0041962
-0.5683594, -0.3334961, -0.7226562, -46.4634171, -99.7561035, 36.7073174, -0.0008392
-0.5639648, -0.3496094, -0.7329102, -43.6585388, -99.9390259, 36.5243912, -0.0001678
-0.5668945, -0.3374023, -0.7290039, -42.7439041, -99.3292694, 36.4634171, -0.0062104
-0.5703125, -0.2666016, -0.6923828, -41.8292694, -99.5121994, 34.9390259, -0.0075532
-0.5805664, -0.2050781, -0.6459961, -41.8902435, -100.1219559, 33.3536606, -0.0065461
-0.6005859, -0.1894531, -0.6396484, -43.7804871, -101.5243912, 30.7926846, -0.0082246
-0.6469727, -0.1816406, -0.7080078, -45.9146347, -103.7195129, 32.6219521, -0.0082246
-0.6621094, -0.1948242, -0.7392578, -47.2560997, -104.2073212, 34.5731697, -0.0068818
-0.6352539, -0.2143555, -0.7617188, -47.0121956, -104.6341476, 37.6219521, -0.0095674
-0.6186523, -0.215332, -0.7631836, -45.9756126, -104.4512253, 37.3780479, -0.0169528
-0.5991211, -0.2094727, -0.7758789, -44.8780479, -103.1707306, 36.5853653, -0.0219883
-0.581543, -0.2138672, -0.769043, -45.1829262, -102.5, 35.8536606, -0.0280308
-0.546875, -0.2290039, -0.7470703, -46.8902435, -102.3170776, 35.9146347, -0.0317235
-0.5439453, -0.2416992, -0.7451172, -48.1097565, -102.9878082, 36.0975609, -0.0280308
-0.5683594, -0.2509766, -0.7949219, -49.5731735, -102.0731735, 37.1341476, -0.0357519
-0.5800781, -0.2724609, -0.8383789, -49.6951218, -101.1585388, 38.0487823, -0.0406195
-0.5678711, -0.28125, -0.8500977, -47.8658562, -99.6951218, 40.0609779, -0.0397803
-0.5458984, -0.2993164, -0.8339844, -44.1463432, -97.9268341, 39.3902435, -0.0381018
-0.5327148, -0.2993164, -0.8188477, -42.4390259, -97.0121994, 38.7195129, -0.043473
-0.5385742, -0.2871094, -0.7758789, -41.1585388, -93.7804871, 37.1951218, -0.0558938
-0.5488281, -0.2802734, -0.7543945, -41.5853653, -92.3780518, 36.6463432, -0.0626078
-0.5800781, -0.2495117, -0.7270508, -42.4390259, -91.0975647, 36.2195129, -0.0627756
-0.5922852, -0.2436523, -0.7255859, -42.6219521, -90.9756088, 36.0365868, -0.0632792
-0.6191406, -0.2397461, -0.78125, -43.2317085, -91.5853653, 35.9146347, -0.0592508
-0.625, -0.2402344, -0.8227539, -43.6585388, -92.1341476, 36.1585388, -0.0572366
-0.6103516, -0.2641602, -0.855957, -44.0243912, -92.1951218, 37.1341476, -0.0569009
-0.5708008, -0.2617188, -0.7568359, -43.5365868, -91.7073212, 37.1341476, -0.0652934
-0.5600586, -0.2412109, -0.6733398, -40.2439041, -89.0243912, 34.8780479, -0.0757
-0.5771484, -0.1948242, -0.5073242, -38.7804871, -86.0365906, 30.9146347, -0.0730144
-0.6054688, -0.1791992, -0.4555664, -39.3292694, -85.7317123, 29.2682934, -0.0659648
-0.703125, -0.184082, -0.456543, -43.1707344, -87.1951218, 29.5121956, -0.0569009
-0.7519531, -0.190918, -0.4990234, -45.3048782, -88.3536606, 30.9146347, -0.0515297
-0.7993164, -0.2143555, -0.6005859, -46.8292694, -91.646347, 34.3292694, -0.0464942
-0.7954102, -0.2202148, -0.6303711, -46.0365868, -92.8048782, 35.1829262, -0.0485084
-0.7348633, -0.2397461, -0.6411133, -42.0121956, -94.0853653, 34.5121956, -0.0538796
-0.6904297, -0.2436523, -0.6269531, -39.9390259, -94.146347, 33.7804871, -0.0558938
-0.6245117, -0.2353516, -0.5922852, -37.4390259, -92.6219559, 32.4390259, -0.051194
-0.6201172, -0.2075195, -0.5830078, -37.6829262, -91.646347, 32.1341476, -0.0391089
-0.6367188, -0.1982422, -0.5849609, -39.8780479, -89.0853653, 32.3780479, -0.0273594
-0.6733398, -0.1879883, -0.5932617, -42.9268303, -88.0487823, 32.9878044, -0.0135958
-0.6948242, -0.1860352, -0.605957, -43.4146347, -88.1707306, 32.9268303, -0.0015106
-0.7104492, -0.2070312, -0.6557617, -44.1463432, -88.1097565, 33.6585388, 0.0119173
-0.7055664, -0.2197266, -0.6811523, -43.7195129, -88.5975647, 34.0853653, 0.0229953
-0.6635742, -0.25, -0.7211914, -41.4024391, -88.1707306, 34.2073174, 0.0270237
-0.6362305, -0.262207, -0.734375, -40.0609779, -87.4390259, 33.841465, 0.0337377
-0.6000977, -0.2695312, -0.7373047, -36.8292694, -84.5731735, 32.8048782, 0.0387732
-0.5913086, -0.2626953, -0.7402344, -35.9146347, -82.7439041, 32.7439041, 0.0381018
-0.5986328, -0.2524414, -0.7290039, -34.4512215, -79.8780518, 32.3780479, 0.0374304
-0.6103516, -0.2470703, -0.7172852, -33.2926826, -77.3780518, 32.8658562, 0.0354162
-0.6240234, -0.2475586, -0.7182617, -32.9878044, -76.4634171, 32.5, 0.0340734
-0.6499023, -0.2382812, -0.7397461, -32.8048782, -73.9024429, 32.3780479, 0.0340734
-0.659668, -0.2368164, -0.7416992, -33.2317085, -72.8048782, 32.1341476, 0.0313878
-0.6533203, -0.2412109, -0.7182617, -34.3902435, -71.0975647, 31.280489, 0.0315557
-0.6474609, -0.2392578, -0.699707, -34.1463432, -70.3658524, 30.8536587, 0.0293736
-0.6474609, -0.234375, -0.6914062, -34.3292694, -67.8658524, 30.3048782, 0.0182956
-0.652832, -0.2314453, -0.6958008, -34.0853653, -66.5853653, 30.6097565, 0.0139315
-0.6606445, -0.2094727, -0.6943359, -34.8780479, -64.5121994, 31.4634151, 0.0112459
-0.6577148, -0.1962891, -0.6723633, -35.0609779, -63.6585388, 31.7682934, 0.0075532
-0.6723633, -0.1411133, -0.6015625, -34.8780479, -62.0121956, 31.2195129, -0.0015106
-0.7080078, -0.0605469, -0.4980469, -36.0365868, -60.6707344, 29.4512196, -0.0169528
-0.7202148, -0.0429688, -0.4379883, -37.7439041, -61.6463432, 28.4756107, -0.0236667
-0.7436523, -0.0874023, -0.3291016, -42.7439041, -65.5487823, 27.6219521, -0.0270237
-0.7592773, -0.1333008, -0.3051758, -44.8780479, -66.9512177, 27.8658543, -0.0275273
-0.8110352, -0.2304688, -0.3447266, -46.2195129, -68.7195129, 30.060976, -0.030045
-0.8286133, -0.2592773, -0.3974609, -44.8780479, -68.5365906, 31.4024391, -0.0404517
-0.8271484, -0.2773438, -0.503418, -40.6707344, -67.7439041, 31.8902454, -0.0449836
-0.800293, -0.2705078, -0.5244141, -38.0487823, -68.1707306, 30.7926846, -0.0468299
-0.7202148, -0.2431641, -0.5039062, -32.8658562, -69.3292694, 26.8292694, -0.0431373
-0.6713867, -0.2099609, -0.4833984, -30.9756107, -69.6341476, 24.9390259, -0.0438087
-0.6723633, -0.2006836, -0.4951172, -29.3902454, -68.9024429, 23.1097565, -0.0451514
-0.7021484, -0.1899414, -0.5463867, -29.4512196, -68.0487823, 24.6341476, -0.0464942
-0.7075195, -0.1904297, -0.5615234, -28.9024391, -67.68293, 25.3048782, -0.0506905
-0.7075195, -0.1982422, -0.5625, -26.8902454, -66.0975647, 24.5731716, -0.0542153
-0.7114258, -0.1967773, -0.559082, -25.3658543, -65.1219559, 23.5365868, -0.0552224
-0.7192383, -0.1918945, -0.5693359, -24.0243912, -63.3536606, 22.1951218, -0.051194
-0.7280273, -0.1835938, -0.5830078, -24.1463413, -62.8658562, 22.2560978, -0.04448
-0.7182617, -0.152832, -0.6132812, -25.060976, -62.9268303, 22.439024, -0.0345769
-0.7055664, -0.144043, -0.6113281, -25.9756107, -62.68293, 21.9512196, -0.026688
-0.6860352, -0.1416016, -0.5849609, -25.7926826, -62.2560997, 21.9512196, -0.017792
-0.6796875, -0.1567383, -0.581543, -25.6707325, -61.2195129, 22.2560978, -0.0112459
-0.6914062, -0.1547852, -0.6040039, -25.5487804, -59.1463432, 24.1463413, 0.0011749
-0.7055664, -0.1606445, -0.6420898, -26.5853672, -56.8292694, 26.3414631, 0.0169528
-0.6987305, -0.1606445, -0.628418, -26.5243912, -56.341465, 26.9512196, 0.0287022
-0.6855469, -0.1547852, -0.5615234, -25.1219521, -54.2073174, 25.7317085, 0.033402
-0.6987305, -0.1411133, -0.53125, -25.060976, -52.8658562, 25.060976, 0.0246738
-0.7456055, -0.1235352, -0.5112305, -26.8902454, -50.6097565, 23.5975609, 0.0105745
-0.7651367, -0.1240234, -0.5029297, -28.6585369, -50.3048782, 23.9634151, 0.0001678
-0.7910156, -0.1411133, -0.465332, -30.7317085, -51.1585388, 24.8170738, -0.0082246
-0.78125, -0.1582031, -0.4389648, -31.0365868, -51.7682953, 24.7560978, -0.0112459
-0.7836914, -0.1870117, -0.4282227, -30.7317085, -52.0121956, 24.3292694, -0.0135958
-0.7919922, -0.1933594, -0.4619141, -30.3658543, -51.8292694, 24.5731716, -0.0193027
-0.7958984, -0.1826172, -0.4697266, -29.2682934, -50.4268303, 25.4878063, -0.0166171
-0.7758789, -0.1376953, -0.4428711, -26.5243912, -49.2682953, 24.6951218, -0.0068818
-0.7646484, -0.1264648, -0.4111328, -25.7926826, -48.9024391, 22.8048782, -0.0001678
-0.7602539, -0.1240234, -0.3427734, -24.3292694, -50.6707344, 20.3048782, 0.0011749
-0.7705078, -0.1391602, -0.3232422, -23.2926826, -51.6463432, 20, 0.0025177
-0.7944336, -0.1625977, -0.359375, -21.8292694, -52.1951218, 20.6707325, 0.0095674
-0.8154297, -0.1665039, -0.4160156, -20.9756107, -51.7682953, 20.9756107, 0.017792
-0.8266602, -0.1674805, -0.5249023, -18.9634151, -50.7317085, 22.0731716, 0.0186313
