Application:, Trigno Discover (1.6.5)
Date/Time:, 18/02/2025 17:18:31
Collection Length (seconds):, 39.2175
wrist (81457), , , , , , bicep (81139)
sensor mode: 609, , , , , , sensor mode: 40
ACC X (G), ACC Y (G), ACC Z (G), GYRO X (deg/s), GYRO Y (deg/s), GYRO Z (deg/s), EMG 1 (mV)
370.3704 Hz, 370.3704 Hz, 370.3704 Hz, 370.3704 Hz, 370.3704 Hz, 370.3704 Hz, 2148.1481 Hz
-0.6586914, 0.7128906, -0.2685547, -10.9146347, -14.9390249, -1.5243902, -0.0129244
-0.6572266, 0.7138672, -0.2724609, -10.7926836, -15, -1.2804878, -0.0162814
-0.6660156, 0.7197266, -0.2739258, -10.7317076, -15.2439032, -1.0365853, -0.0196384
-0.6645508, 0.722168, -0.2724609, -10.6707315, -15.6097565, -1.0365853, -0.0236667
-0.6645508, 0.7294922, -0.2685547, -10.8536587, -15.7317076, -1.4634147, -0.026688
-0.6630859, 0.7421875, -0.2661133, -11.280488, -15.7317076, -1.7682927, -0.027863
-0.6616211, 0.7446289, -0.2666016, -10.9146347, -15.9756098, -1.7073171, -0.0298772
-0.6508789, 0.7451172, -0.2705078, -10.8536587, -16.4024391, -1.7682927, -0.0273594
-0.6464844, 0.7436523, -0.2700195, -10.8536587, -17.0121956, -1.5853659, -0.0250095
-0.644043, 0.7387695, -0.2709961, -11.219512, -16.9512196, -1.6463414, -0.023331
-0.644043, 0.7387695, -0.2695312, -12.1341467, -16.2195129, -1.7682927, -0.0146029
-0.640625, 0.7363281, -0.2612305, -12.2560978, -15.9146347, -2.1341465, -0.0092317
-0.6464844, 0.7368164, -0.2602539, -12.9268293, -15.1829271, -2.9878049, -0.0070497
-0.6547852, 0.7348633, -0.2612305, -13.2317076, -14.7560978, -2.8658538, -0.0043641
-0.6591797, 0.7412109, -0.2626953, -13.1707315, -14.8170738, -2.5609756, -0.0048676
-0.6635742, 0.7509766, -0.2680664, -12.6829271, -14.8170738, -2.195122, -0.0045319
-0.6655273, 0.7597656, -0.2705078, -12.7439032, -14.9390249, -2.1341465, -0.0062104
-0.6645508, 0.7578125, -0.2719727, -12.8658543, -15, -2.195122, -0.0068818
-0.6674805, 0.7519531, -0.2636719, -13.1097565, -15.1219511, -2.3780489, -0.0090639
-0.6601562, 0.7470703, -0.2617188, -12.9878054, -14.6951227, -2.6219513, -0.0149386
-0.6616211, 0.7416992, -0.2597656, -13.0487804, -14.3292685, -2.6219513, -0.0172885
-0.6577148, 0.7412109, -0.265625, -12.7439032, -14.5121956, -2.3780489, -0.0209812
-0.6572266, 0.7392578, -0.2709961, -12.6219511, -14.5731707, -1.8902439, -0.0219883
-0.6503906, 0.7368164, -0.2744141, -12.7439032, -15.2439032, -1.6463414, -0.0250095
-0.6489258, 0.7368164, -0.2773438, -12.7439032, -14.7560978, -1.8292683, -0.0270237
-0.6455078, 0.737793, -0.2768555, -12.9878054, -14.8780489, -2.1341465, -0.0283665
-0.6425781, 0.7402344, -0.2851562, -13.2317076, -14.5731707, -2.2560976, -0.030045
-0.6469727, 0.7460938, -0.2880859, -12.9878054, -14.8170738, -2.1341465, -0.0297093
-0.6518555, 0.7529297, -0.2905273, -12.8658543, -15.7926836, -2.0121951, -0.0253452
-0.6416016, 0.7636719, -0.293457, -12.8048782, -16.1585369, -1.9512196, -0.0243381
-0.6357422, 0.7651367, -0.2929688, -13.2926836, -16.8902435, -2.0121951, -0.0226596
-0.6235352, 0.7641602, -0.2880859, -13.9634151, -17.0121956, -2.0731707, -0.0182956
-0.6210938, 0.7573242, -0.28125, -15, -16.280489, -2.7439024, -0.0152743
-0.6206055, 0.7451172, -0.2626953, -15.9146347, -16.1585369, -2.7439024, -0.0109102
-0.6240234, 0.7338867, -0.2558594, -16.9512196, -15.2439032, -3.2926829, -0.0068818
-0.628418, 0.7163086, -0.2363281, -16.8902435, -14.9390249, -3.1097562, -0.0041962
-0.6303711, 0.7109375, -0.2348633, -17.0731716, -14.6341467, -3.3536587, -0.0082246
-0.6420898, 0.6982422, -0.230957, -16.0975609, -14.0853662, -3.1097562, -0.0082246
-0.6469727, 0.7006836, -0.2299805, -15.4878054, -14.1463413, -3.1097562, -0.0092317
-0.6542969, 0.7055664, -0.2348633, -14.3902445, -14.6951227, -2.9268293, -0.011078
-0.6547852, 0.7216797, -0.2397461, -13.9634151, -15.060976, -2.6219513, -0.012253
-0.6542969, 0.7304688, -0.246582, -13.0487804, -15.6097565, -1.8902439, -0.0146029
-0.6508789, 0.7446289, -0.2539062, -12.6829271, -16.4024391, -1.5853659, -0.0146029
-0.6425781, 0.7480469, -0.2592773, -12.8658543, -15.7926836, -1.402439, -0.012253
-0.6264648, 0.7407227, -0.262207, -13.1097565, -15.2439032, -1.2195122, -0.01561
-0.6274414, 0.7402344, -0.2612305, -13.9024391, -13.9024391, -1.7073171, -0.0182956
-0.6357422, 0.7299805, -0.2641602, -14.8780489, -12.5, -2.2560976, -0.0223239
-0.6386719, 0.7270508, -0.2670898, -14.9390249, -12.0731707, -2.3780489, -0.0196384
-0.6450195, 0.7285156, -0.2612305, -15.060976, -11.8292685, -2.0121951, -0.0209812
-0.6523438, 0.7304688, -0.2539062, -15.060976, -11.8292685, -1.8902439, -0.01561
-0.6503906, 0.7319336, -0.2568359, -14.9390249, -12.0121956, -1.5853659, -0.0109102
-0.6469727, 0.7353516, -0.2529297, -14.8170738, -11.8902445, -1.6463414, -0.0152743
-0.644043, 0.7348633, -0.2529297, -14.0853662, -11.8902445, -1.402439, -0.01561
-0.6381836, 0.7348633, -0.2485352, -13.780488, -11.7073174, -1.3414634, -0.0157778
-0.6337891, 0.7299805, -0.2504883, -13.4146347, -11.8292685, -1.0365853, -0.0162814
-0.6289062, 0.7280273, -0.2553711, -13.3536587, -11.8292685, -1.2804878, -0.0203098
-0.6308594, 0.7290039, -0.2558594, -12.9878054, -11.8292685, -1.097561, -0.0256809
-0.6225586, 0.7246094, -0.2563477, -13.2926836, -12.0121956, -1.0365853, -0.0310521
-0.6274414, 0.7177734, -0.2573242, -13.2926836, -11.7682934, -1.1585366, -0.0365911
-0.6259766, 0.7143555, -0.2563477, -13.5365858, -11.5243902, -1.2804878, -0.0365911
-0.6298828, 0.7182617, -0.253418, -13.5365858, -11.280488, -1.402439, -0.0411231
-0.6323242, 0.7211914, -0.2553711, -13.6585369, -10.7317076, -1.2804878, -0.0454871
-0.6401367, 0.7338867, -0.2539062, -13.4146347, -10.8536587, -1.097561, -0.0458228
-0.6381836, 0.7363281, -0.2529297, -13.5365858, -10.6097565, -1.1585366, -0.0431373
-0.6455078, 0.7431641, -0.2504883, -13.7195129, -10.4268293, -1.1585366, -0.0399481
-0.6411133, 0.7392578, -0.2446289, -14.1463413, -10.3048782, -1.1585366, -0.0350805
-0.6391602, 0.7338867, -0.2416992, -14.0853662, -9.8780489, -1.3414634, -0.0392767
-0.6376953, 0.7314453, -0.2421875, -14.2073174, -9.0243902, -1.2195122, -0.0381018
-0.628418, 0.7363281, -0.2470703, -14.2073174, -8.2926826, -1.4634147, -0.0364233
-0.6279297, 0.7382812, -0.2509766, -13.780488, -8.1097565, -1.2195122, -0.0303807
-0.6220703, 0.734375, -0.2612305, -13.6585369, -8.0487804, -0.8536586, -0.0270237
-0.625, 0.7358398, -0.2670898, -13.7195129, -8.1707315, -0.9756098, -0.0256809
-0.6254883, 0.7373047, -0.2666016, -14.9390249, -7.5609756, -0.6097561, -0.0246738
-0.6357422, 0.7290039, -0.2592773, -15.2439032, -7.1951222, -0.7317073, -0.0231632
-0.6425781, 0.7246094, -0.2524414, -16.4024391, -6.5853658, -1.2195122, -0.0223239
-0.6577148, 0.7138672, -0.2451172, -16.7073174, -6.0365853, -1.2804878, -0.023331
-0.6694336, 0.7128906, -0.2416992, -15.9146347, -5.609756, -1.2195122, -0.0234989
-0.6831055, 0.7177734, -0.2441406, -15.4268293, -5.9756098, -1.0365853, -0.0182956
-0.6845703, 0.7182617, -0.25, -14.2682934, -6.280488, -0.2439024, -0.0203098
-0.6923828, 0.7211914, -0.2553711, -13.4756098, -7.3170733, 0.4268293, -0.0263523
-0.6928711, 0.7236328, -0.2524414, -13.1097565, -7.3170733, 0.5487805, -0.0263523
-0.6948242, 0.7148438, -0.2617188, -12.4390249, -7.0731707, 0.7926829, -0.0250095
-0.6967773, 0.7167969, -0.265625, -11.8902445, -7.5, 0.8536586, -0.0263523
-0.6933594, 0.7207031, -0.2641602, -10.4878054, -8.4756098, 1.097561, -0.0293736
-0.6889648, 0.7329102, -0.2705078, -9.5121956, -9.0243902, 1.1585366, -0.0290379
-0.684082, 0.734375, -0.2739258, -8.9024391, -10.4268293, 1.7073171, -0.0283665
-0.6650391, 0.7412109, -0.2822266, -8.719512, -11.0365858, 1.8292683, -0.0310521
-0.6547852, 0.7436523, -0.2841797, -9.3902445, -11.5243902, 1.8292683, -0.0297093
-0.6430664, 0.7514648, -0.2856445, -9.5121956, -11.280488, 1.7073171, -0.0283665
-0.6396484, 0.753418, -0.2832031, -10.4268293, -10.4878054, 1.2804878, -0.0250095
-0.6342773, 0.7636719, -0.2724609, -11.5243902, -9.5731707, 1.0365853, -0.023331
-0.6328125, 0.7670898, -0.2705078, -12.1951218, -9.2073174, 1.0365853, -0.018967
-0.6386719, 0.7709961, -0.2666016, -13.1097565, -8.4756098, 0.9756098, -0.0196384
-0.640625, 0.7617188, -0.2646484, -13.5365858, -8.2317076, 0.9756098, -0.0169528
-0.644043, 0.7631836, -0.2641602, -14.0853662, -7.3780489, 0.8536586, -0.0162814
-0.6484375, 0.7573242, -0.2646484, -14.0853662, -7.3170733, 0.9146342, -0.0162814
-0.6484375, 0.7553711, -0.2612305, -14.0243902, -7.1951222, 0.8536586, -0.0176242
-0.652832, 0.7529297, -0.262207, -14.3292685, -6.8292685, 0.7926829, -0.0179599
-0.6552734, 0.7539062, -0.2563477, -14.7560978, -7.4390244, 1.0365853, -0.0135958
-0.6621094, 0.7416992, -0.2475586, -15.3048782, -7.8048782, 1.097561, -0.0068818
-0.6645508, 0.734375, -0.2451172, -15.5487804, -7.6219516, 0.9756098, -0.002182
-0.671875, 0.715332, -0.2426758, -15.8536587, -6.7073174, 1.2195122, -0.0005035
-0.6772461, 0.7055664, -0.2402344, -15.4878054, -6.2195125, 1.0365853, -0.0048676
-0.6855469, 0.7084961, -0.2441406, -14.6951227, -5.7926831, 1.2804878, -0.002182
-0.6943359, 0.7241211, -0.2563477, -14.4512196, -6.3414636, 1.3414634, -0.0075532
-0.6938477, 0.7358398, -0.2587891, -12.9268293, -7.7439027, 2.0121951, -0.0082246
-0.6884766, 0.7524414, -0.2685547, -12.9268293, -8.2926826, 2.6219513, -0.0082246
-0.6811523, 0.7592773, -0.2719727, -12.4390249, -8.9024391, 2.8658538, -0.0095674
-0.6645508, 0.7612305, -0.2788086, -12.7439032, -8.719512, 2.9878049, -0.0095674
-0.6591797, 0.7607422, -0.2749023, -14.0853662, -7.3170733, 2.5609756, -0.0099031
-0.6513672, 0.7485352, -0.2685547, -15, -6.0975609, 1.8292683, -0.0082246
-0.6547852, 0.7485352, -0.2661133, -15.4878054, -5.8536587, 1.8902439, -0.0043641
-0.6650391, 0.7348633, -0.269043, -15.3658543, -5.9146342, 2.0121951, -0.0031891
-0.6674805, 0.7236328, -0.2675781, -15.3048782, -6.2195125, 2.2560976, -0.0008392
-0.6723633, 0.7241211, -0.2680664, -15.3048782, -6.6463418, 2.9268293, 0.0025177
-0.6806641, 0.7119141, -0.277832, -15.6707325, -7.0731707, 3.0487804, -0.0018463
-0.684082, 0.7099609, -0.2739258, -15.6707325, -7.4390244, 3.3536587, -0.0078889
-0.6831055, 0.7080078, -0.2695312, -15.7317076, -7.5, 3.4756098, -0.0058747
-0.6835938, 0.7094727, -0.2583008, -15.3658543, -8.1707315, 3.4756098, -0.0041962
-0.6757812, 0.7207031, -0.2539062, -14.9390249, -8.5365858, 3.4756098, -0.0072175
-0.6723633, 0.7280273, -0.2524414, -14.2073174, -9.1463413, 3.8414636, -0.0099031
-0.6616211, 0.7329102, -0.2553711, -13.3536587, -9.8780489, 4.2682929, -0.0119173
-0.6533203, 0.7426758, -0.2539062, -13.2926836, -9.6951218, 4.3292685, -0.0142672
-0.6459961, 0.7490234, -0.2651367, -13.2317076, -9.4512196, 4.9390244, -0.0203098
-0.6357422, 0.7451172, -0.2729492, -13.2317076, -9.2073174, 5.0609756, -0.0238346
-0.6357422, 0.7407227, -0.2724609, -14.8170738, -7.5, 4.6341462, -0.0270237
-0.6396484, 0.7338867, -0.2578125, -15.5487804, -6.890244, 4.2073174, -0.0270237
-0.6435547, 0.7285156, -0.2529297, -16.1585369, -6.4634147, 3.4146342, -0.0270237
-0.6503906, 0.7250977, -0.2490234, -16.0365849, -6.4634147, 3.2926829, -0.0273594
-0.6542969, 0.7265625, -0.2524414, -15.7926836, -6.0975609, 3.7804878, -0.0293736
-0.6552734, 0.7333984, -0.2543945, -15.2439032, -6.1585369, 4.2682929, -0.0292058
-0.6538086, 0.7353516, -0.2548828, -15.4878054, -6.4024391, 4.4512196, -0.0313878
-0.6542969, 0.7368164, -0.2558594, -15.1829271, -6.0365853, 4.390244, -0.0280308
-0.6489258, 0.7421875, -0.2514648, -15.2439032, -5.7926831, 3.7804878, -0.0293736
-0.6572266, 0.7446289, -0.2490234, -15.3048782, -5.4878049, 3.6585367, -0.0337377
-0.6567383, 0.7495117, -0.25, -15.2439032, -5.4878049, 3.9024391, -0.0337377
-0.6567383, 0.7553711, -0.2514648, -15.4268293, -4.8170733, 3.5365853, -0.0317235
-0.6655273, 0.7563477, -0.2509766, -15.3048782, -4.5121951, 3.8414636, -0.0323949
-0.6694336, 0.7558594, -0.2543945, -15.8536587, -4.0853658, 4.2682929, -0.0317235
-0.6708984, 0.7451172, -0.2592773, -15.9756098, -3.4756098, 4.2682929, -0.0337377
-0.6772461, 0.7353516, -0.2592773, -15.9146347, -3.2317073, 4.2682929, -0.033402
-0.6811523, 0.7226562, -0.2543945, -16.280489, -2.9268293, 4.1463413, -0.0391089
-0.690918, 0.722168, -0.2504883, -16.0365849, -2.6829269, 3.9024391, -0.043473
-0.7006836, 0.7143555, -0.2460938, -15.060976, -3.7804878, 4.390244, -0.0421302
-0.7050781, 0.715332, -0.2431641, -14.5731707, -4.2073174, 4.5121951, -0.0377661
-0.706543, 0.7177734, -0.2373047, -13.5365858, -4.7560978, 4.8780489, -0.0391089
-0.6958008, 0.7246094, -0.2397461, -12.7439032, -5.3658538, 4.9390244, -0.0347448
-0.6967773, 0.7250977, -0.2470703, -12.0731707, -5.2439027, 4.8780489, -0.0323949
-0.6850586, 0.7348633, -0.2543945, -11.7682934, -5.1829271, 4.8780489, -0.0290379
-0.6772461, 0.7358398, -0.2592773, -11.4634151, -5.670732, 5, -0.0276951
-0.6640625, 0.7436523, -0.2729492, -11.6463413, -5.7317076, 5.3048782, -0.0256809
-0.6606445, 0.7446289, -0.2753906, -12.0731707, -5.4878049, 5.3658538, -0.0236667
-0.6499023, 0.7490234, -0.2856445, -12.1341467, -5.3658538, 5.7926831, -0.024506
-0.6538086, 0.7485352, -0.2875977, -12.9268293, -4.8170733, 5.609756, -0.0246738
-0.6547852, 0.7456055, -0.2910156, -14.2073174, -4.4512196, 5.1829271, -0.0179599
-0.6616211, 0.7441406, -0.2875977, -14.7560978, -4.2682929, 4.7560978, -0.0198062
-0.6777344, 0.7363281, -0.2783203, -15.3048782, -4.6951222, 4.6341462, -0.0169528
-0.690918, 0.7304688, -0.2714844, -15.4878054, -5.0609756, 4.6341462, -0.0135958
-0.6953125, 0.7250977, -0.2729492, -15, -5.609756, 4.5731707, -0.0179599
-0.7016602, 0.7211914, -0.2719727, -14.7560978, -5.7317076, 4.6951222, -0.0171206
-0.7070312, 0.7216797, -0.2729492, -14.1463413, -6.6463418, 5.1829271, -0.0142672
-0.7084961, 0.7207031, -0.2734375, -14.0853662, -7.0121951, 5.3048782, -0.0125887
-0.7080078, 0.7211914, -0.2719727, -13.2317076, -8.4146347, 5.2439027, -0.0142672
-0.7021484, 0.7241211, -0.2651367, -13.0487804, -8.719512, 5.5487804, -0.012253
-0.6953125, 0.7207031, -0.2661133, -12.6219511, -9.9390249, 5.4878049, -0.0137636
-0.6884766, 0.7167969, -0.2636719, -12.2560978, -9.9390249, 5.5487804, -0.0152743
-0.6811523, 0.7197266, -0.2646484, -11.4634151, -10.1219511, 5.670732, -0.0166171
-0.6694336, 0.71875, -0.2651367, -11.219512, -9.5121956, 5.4268293, -0.0176242
-0.6582031, 0.7275391, -0.2695312, -11.4634151, -10, 5.609756, -0.0162814
-0.65625, 0.7358398, -0.2680664, -11.4634151, -10.3658543, 5.4878049, -0.0135958
-0.6464844, 0.7451172, -0.2719727, -11.6463413, -10.3048782, 5.8536587, -0.0109102
-0.644043, 0.7451172, -0.2680664, -12.1341467, -10.060976, 5.670732, -0.005539
-0.6342773, 0.7470703, -0.2612305, -12.0731707, -9.6341467, 5.1219511, 0.0008392
-0.6425781, 0.7451172, -0.2553711, -13.5975609, -9.2073174, 4.2682929, -0.0008392
-0.6411133, 0.7392578, -0.2426758, -13.9634151, -8.9634151, 4.1463413, 0.0025177
-0.6459961, 0.7358398, -0.2397461, -14.2073174, -7.8048782, 3.9634147, 0.0031891
-0.6547852, 0.7241211, -0.2368164, -14.1463413, -7.4390244, 4.0243902, -0.0008392
-0.6538086, 0.7275391, -0.2373047, -14.0243902, -7.5609756, 4.3292685, -0.0065461
-0.659668, 0.7329102, -0.2436523, -13.780488, -7.1341467, 4.6341462, -0.0038605
-0.6616211, 0.7280273, -0.2485352, -13.9024391, -7.2560978, 4.7560978, -0.0041962
-0.6640625, 0.7202148, -0.2524414, -14.2073174, -7.4390244, 4.9390244, -0.0082246
-0.6645508, 0.7177734, -0.2568359, -14.0853662, -7.0731707, 4.8780489, -0.0075532
-0.6660156, 0.7119141, -0.2602539, -13.780488, -6.7073174, 4.9390244, -0.0099031
-0.6694336, 0.7080078, -0.265625, -13.4756098, -6.7073174, 5, -0.018967
-0.6762695, 0.7128906, -0.2734375, -12.9268293, -7.3780489, 5.1829271, -0.023331
-0.6777344, 0.7128906, -0.2773438, -12.560976, -8.1097565, 5.3048782, -0.0263523
-0.675293, 0.7192383, -0.2802734, -12.3780489, -9.2073174, 5.4268293, -0.0337377
-0.6679688, 0.7246094, -0.2773438, -12.5, -10.1829271, 5.5487804, -0.0370947
-0.6655273, 0.7236328, -0.2773438, -12.9878054, -10.1219511, 5.7317076, -0.040116
-0.6606445, 0.7050781, -0.2695312, -13.5365858, -9.5121956, 4.8170733, -0.04448
-0.6582031, 0.7011719, -0.265625, -13.5975609, -9.0853662, 4.6341462, -0.0491798
-0.6577148, 0.7011719, -0.2636719, -13.4756098, -8.9024391, 4.4512196, -0.0485084
-0.659668, 0.7133789, -0.2612305, -12.8048782, -9.1463413, 4.6341462, -0.0451514
-0.6567383, 0.7241211, -0.262207, -11.9512196, -9.9390249, 5.0609756, -0.0433051
-0.6479492, 0.7392578, -0.2700195, -12.2560978, -10.3658543, 5.4878049, -0.0419623
-0.6401367, 0.746582, -0.2700195, -12.4390249, -10.3048782, 5.4268293, -0.0417945
-0.6240234, 0.7451172, -0.265625, -13.1097565, -10.1219511, 4.8780489, -0.0407874
-0.6225586, 0.7446289, -0.2680664, -14.3902445, -8.5365858, 4.1463413, -0.0397803
-0.6240234, 0.7368164, -0.2612305, -15.3658543, -7.6219516, 3.5975611, -0.0370947
-0.6264648, 0.734375, -0.2617188, -15.8536587, -7.5609756, 3.7195122, -0.0352483
-0.6308594, 0.730957, -0.2543945, -16.0365849, -7.2560978, 3.6585367, -0.0370947
-0.6401367, 0.7270508, -0.262207, -16.280489, -7.2560978, 3.7195122, -0.0364233
-0.6376953, 0.7236328, -0.2626953, -16.6463413, -6.5853658, 4.0243902, -0.0387732
-0.6499023, 0.7172852, -0.2646484, -16.6463413, -6.5853658, 3.9024391, -0.0407874
-0.6542969, 0.7148438, -0.2607422, -17.0121956, -6.8292685, 3.1707318, -0.043473
-0.6713867, 0.7050781, -0.2583008, -16.7073174, -7.0121951, 3.1707318, -0.0417945
-0.6835938, 0.7045898, -0.2558594, -16.1585369, -7.9878049, 2.8658538, -0.0357519
-0.684082, 0.706543, -0.2446289, -15.4878054, -8.4756098, 2.9268293, -0.0276951
-0.6845703, 0.7109375, -0.2416992, -14.3902445, -9.8170738, 3.3536587, -0.0162814
-0.6801758, 0.7104492, -0.2392578, -13.4756098, -10.4268293, 3.4756098, -0.0075532
-0.6748047, 0.7192383, -0.2324219, -13.3536587, -10.1219511, 3.2317073, 0.0035248
-0.671875, 0.7275391, -0.2338867, -13.0487804, -10.2439022, 3.4756098, 0.0095674
-0.6640625, 0.7280273, -0.2338867, -12.8048782, -10.1219511, 3.4756098, 0.0132601
-0.6630859, 0.7280273, -0.2363281, -12.8658543, -9.5731707, 4.0243902, 0.0132601
-0.6591797, 0.7280273, -0.234375, -12.9878054, -9.3292685, 4.0853658, 0.008896
-0.6542969, 0.7246094, -0.2353516, -13.2317076, -7.9878049, 4.0243902, 0.0016785
-0.659668, 0.7260742, -0.2319336, -13.5365858, -7.5, 3.7195122, -0.005539
-0.6625977, 0.7231445, -0.2333984, -13.2926836, -6.6463418, 3.7804878, -0.0182956
-0.6708984, 0.7124023, -0.2348633, -13.2317076, -6.3414636, 3.4756098, -0.0290379
-0.6723633, 0.715332, -0.2363281, -12.6829271, -6.5853658, 3.9024391, -0.0350805
-0.6713867, 0.7285156, -0.2441406, -12.0731707, -6.890244, 4.2682929, -0.0381018
-0.6733398, 0.7314453, -0.2470703, -12.1341467, -7.0121951, 4.390244, -0.0384375
-0.6689453, 0.7314453, -0.2485352, -12.1341467, -7.6829271, 3.9024391, -0.0287022
-0.6708984, 0.7280273, -0.2539062, -12.4390249, -7.2560978, 3.9024391, -0.0240024
-0.6694336, 0.7275391, -0.2558594, -12.6219511, -7.0121951, 3.5365853, -0.0203098
-0.6699219, 0.7348633, -0.2636719, -12.4390249, -6.8292685, 3.4756098, -0.018967
-0.6665039, 0.7338867, -0.2646484, -12.9878054, -6.6463418, 3.4146342, -0.0236667
-0.6650391, 0.7416992, -0.2666016, -12.8658543, -6.5853658, 3.1097562, -0.0283665
-0.6625977, 0.7451172, -0.2670898, -13.3536587, -6.7682929, 3.2926829, -0.0303807
-0.6611328, 0.7490234, -0.2626953, -13.1097565, -7.1341467, 3.0487804, -0.0381018
-0.6542969, 0.7504883, -0.2626953, -13.2926836, -7.3170733, 3.2926829, -0.0424659
-0.6464844, 0.7431641, -0.2675781, -13.4146347, -7.3170733, 3.2317073, -0.0461585
-0.6435547, 0.7382812, -0.2666016, -13.9024391, -6.8292685, 3.2317073, -0.0485084
-0.6416016, 0.7333984, -0.2636719, -14.5121956, -6.7682929, 2.804878, -0.0464942
-0.6464844, 0.7363281, -0.2587891, -14.6951227, -6.4024391, 2.9268293, -0.0473335
-0.6479492, 0.7353516, -0.2548828, -15.1829271, -6.5243902, 2.3780489, -0.0468299
-0.6572266, 0.7250977, -0.2514648, -15.3658543, -6.5243902, 2.2560976, -0.0458228
-0.6567383, 0.722168, -0.2514648, -15.1829271, -6.5243902, 2.6829269, -0.0451514
-0.6582031, 0.7119141, -0.246582, -15.1219511, -6.7073174, 2.6829269, -0.0431373
-0.6616211, 0.7114258, -0.2441406, -14.4512196, -7.0121951, 2.5, -0.0431373
-0.6655273, 0.7099609, -0.2338867, -14.3292685, -7.0121951, 2.2560976, -0.0377661
-0.6655273, 0.7124023, -0.2304688, -13.3536587, -7.7439027, 2.0731707, -0.0337377
-0.6586914, 0.7172852, -0.2265625, -12.1341467, -8.9634151, 2.4390244, -0.033402
-0.6567383, 0.7202148, -0.2275391, -11.5853662, -9.0243902, 2.6219513, -0.0340734
-0.6430664, 0.7348633, -0.234375, -11.0365858, -9.2682924, 2.9878049, -0.0345769
-0.6357422, 0.7363281, -0.2460938, -11.341464, -8.780488, 3.1707318, -0.0344091
-0.6323242, 0.7407227, -0.2475586, -12.3780489, -7.5609756, 3.1097562, -0.0364233
-0.6328125, 0.7373047, -0.25, -13.1707315, -6.7682929, 3.1097562, -0.0370947
-0.6386719, 0.7333984, -0.2524414, -13.9024391, -5.5487804, 2.5609756, -0.0370947
-0.6523438, 0.7250977, -0.25, -14.5731707, -5.1829271, 2.6219513, -0.0364233
-0.6577148, 0.7207031, -0.2490234, -14.9390249, -4.8780489, 2.3170731, -0.0344091
-0.6728516, 0.715332, -0.2519531, -15, -4.9390244, 2.2560976, -0.0323949
-0.6708984, 0.7128906, -0.2504883, -14.8170738, -5.0609756, 2.3780489, -0.0323949
-0.6767578, 0.7099609, -0.2509766, -14.1463413, -6.0365853, 2.5609756, -0.0330663
-0.6826172, 0.7148438, -0.2519531, -13.7195129, -6.6463418, 2.8658538, -0.0310521
-0.6787109, 0.722168, -0.253418, -13.1097565, -7.6219516, 3.0487804, -0.0283665
-0.6679688, 0.7338867, -0.2524414, -13.0487804, -7.9268293, 3.1097562, -0.0283665
-0.6591797, 0.7319336, -0.2539062, -12.8048782, -7.7439027, 3.1097562, -0.0285344
-0.6542969, 0.7348633, -0.25, -13.1707315, -7.6829271, 3.0487804, -0.0273594
-0.6484375, 0.7348633, -0.2543945, -12.8048782, -7.3170733, 2.6219513, -0.0270237
-0.6508789, 0.730957, -0.2548828, -12.9268293, -7.0731707, 2.7439024, -0.0297093
-0.6513672, 0.7358398, -0.2583008, -12.8658543, -7.1341467, 2.804878, -0.026688
-0.65625, 0.7368164, -0.2666016, -12.8048782, -7.5, 2.9878049, -0.0186313
-0.6538086, 0.737793, -0.2680664, -12.9878054, -7.7439027, 3.0487804, -0.018967
-0.6577148, 0.7446289, -0.2607422, -14.0853662, -7.9268293, 3.0487804, -0.0193027
-0.6669922, 0.7304688, -0.253418, -14.3292685, -7.5, 2.8658538, -0.0162814
-0.668457, 0.7216797, -0.2456055, -14.5731707, -7.4390244, 2.9878049, -0.0169528
-0.6669922, 0.7099609, -0.2382812, -14.2682934, -7.4390244, 2.6219513, -0.0219883
-0.6689453, 0.7080078, -0.2338867, -13.3536587, -7.9268293, 2.6829269, -0.0216526
-0.6679688, 0.7089844, -0.2290039, -12.4390249, -8.3536587, 2.6219513, -0.0229953
-0.6625977, 0.7124023, -0.2294922, -11.219512, -9.2682924, 2.5, -0.0231632
-0.6542969, 0.722168, -0.2314453, -10.4878054, -9.8170738, 2.9878049, -0.0246738
-0.6435547, 0.7304688, -0.2324219, -10.1219511, -10.4268293, 3.1707318, -0.0243381
-0.6279297, 0.746582, -0.2387695, -9.5121956, -10.2439022, 3.3536587, -0.0270237
-0.6191406, 0.75, -0.2397461, -10.3048782, -9.7560978, 3.0487804, -0.0290379
-0.6113281, 0.7602539, -0.2470703, -11.341464, -8.4756098, 2.804878, -0.0270237
-0.6079102, 0.7617188, -0.2583008, -12.0731707, -7.8048782, 2.8658538, -0.0256809
-0.6088867, 0.7636719, -0.2597656, -13.4756098, -6.0975609, 2.195122, -0.0216526
-0.621582, 0.7553711, -0.2641602, -14.5731707, -5.3048782, 2.0121951, -0.018967
-0.6328125, 0.7524414, -0.2631836, -15.6097565, -4.390244, 1.5853659, -0.0172885
-0.6455078, 0.7387695, -0.2592773, -16.1585369, -4.0243902, 1.8902439, -0.0115816
-0.652832, 0.7319336, -0.2578125, -16.8902435, -3.8414636, 1.6463414, -0.0119173
-0.6665039, 0.7246094, -0.2587891, -17.0731716, -3.7195122, 1.3414634, -0.0139315
-0.6713867, 0.7246094, -0.2563477, -16.3414631, -4.1463413, 1.2195122, -0.0115816
-0.6821289, 0.7275391, -0.2573242, -15.4878054, -5, 1.7073171, -0.012253
-0.6831055, 0.7280273, -0.2548828, -14.8780489, -6.0365853, 1.9512196, -0.0105745
-0.6801758, 0.7333984, -0.2617188, -13.7195129, -7.8048782, 2.4390244, -0.008896
-0.6704102, 0.7319336, -0.2719727, -13.1707315, -8.1707315, 2.7439024, -0.0097353
-0.6650391, 0.7329102, -0.2758789, -13.3536587, -8.841464, 2.9268293, -0.0105745
-0.6533203, 0.730957, -0.2734375, -13.6585369, -8.780488, 2.6219513, -0.0090639
-0.6533203, 0.7319336, -0.2685547, -13.780488, -8.1707315, 2.0731707, -0.0115816
-0.6469727, 0.7270508, -0.2597656, -13.7195129, -8.2317076, 1.9512196, -0.0171206
-0.6455078, 0.7250977, -0.2539062, -13.9024391, -8.3536587, 2.3780489, -0.018967
-0.6450195, 0.7250977, -0.2451172, -13.841464, -8.3536587, 2.3170731, -0.0196384
-0.6435547, 0.7241211, -0.2431641, -13.780488, -8.6585369, 2.3780489, -0.0196384
-0.644043, 0.7172852, -0.2412109, -13.4756098, -8.780488, 2.5, -0.0179599
-0.644043, 0.7163086, -0.2382812, -13.4756098, -8.5975609, 2.0121951, -0.0152743
-0.640625, 0.7231445, -0.2407227, -12.9878054, -8.2926826, 2.2560976, -0.0115816
-0.6455078, 0.7304688, -0.2460938, -12.8658543, -8.719512, 2.1341465, -0.0109102
-0.6445312, 0.7333984, -0.2485352, -11.9512196, -9.0853662, 2.7439024, -0.0112459
-0.6420898, 0.7304688, -0.253418, -12.1951218, -9.4512196, 3.0487804, -0.0154421
-0.6435547, 0.7260742, -0.253418, -12.8658543, -10.1219511, 3.2926829, -0.0132601
-0.6386719, 0.706543, -0.2509766, -13.4756098, -9.7560978, 3.1097562, -0.0135958
-0.6386719, 0.7055664, -0.2446289, -13.9634151, -8.719512, 2.1341465, -0.0179599
-0.6479492, 0.6992188, -0.2392578, -13.9024391, -8.1097565, 1.5243902, -0.0206455
-0.6523438, 0.7016602, -0.2402344, -13.2926836, -8.0487804, 1.1585366, -0.0250095
-0.659668, 0.7158203, -0.2426758, -12.3780489, -9.2073174, 2.195122, -0.0283665
-0.6557617, 0.7255859, -0.2519531, -11.8902445, -10, 2.6829269, -0.0297093
-0.6455078, 0.7402344, -0.2641602, -11.4024391, -10.8536587, 3.5975611, -0.0318914
-0.6313477, 0.746582, -0.2734375, -11.9512196, -10.6707315, 3.5365853, -0.0354162
-0.6279297, 0.7470703, -0.2729492, -13.5975609, -9.6341467, 2.804878, -0.0354162
-0.6318359, 0.7480469, -0.2700195, -14.2682934, -8.6585369, 2.3170731, -0.0411231
-0.6347656, 0.7470703, -0.2666016, -15.6097565, -7.6829271, 1.7073171, -0.0426337
-0.6425781, 0.7368164, -0.2631836, -16.1585369, -7.3170733, 1.8902439, -0.0431373
-0.6533203, 0.734375, -0.2553711, -16.3414631, -7.0731707, 1.9512196, -0.0441444
-0.6660156, 0.7275391, -0.2441406, -16.4024391, -7.0121951, 1.9512196, -0.043473
-0.668457, 0.7148438, -0.2397461, -16.280489, -7.0121951, 1.8292683, -0.04448
-0.6762695, 0.6982422, -0.2265625, -15.3658543, -6.9512196, 1.5853659, -0.0433051
-0.6762695, 0.7001953, -0.2265625, -14.8170738, -7.1951222, 1.6463414, -0.0412909
-0.6821289, 0.7075195, -0.2226562, -12.7439032, -8.1097565, 2.1341465, -0.0323949
-0.6699219, 0.71875, -0.2246094, -11.7073174, -8.780488, 2.7439024, -0.0243381
-0.6586914, 0.7270508, -0.2324219, -10, -10.4268293, 3.3536587, -0.0193027
-0.6293945, 0.7412109, -0.2431641, -9.8780489, -10.6097565, 3.6585367, -0.0169528
-0.6181641, 0.7421875, -0.2490234, -10.3658543, -10.060976, 3.2926829, -0.0167849
-0.6103516, 0.7431641, -0.262207, -10.9146347, -9.3902445, 2.7439024, -0.0112459
-0.6113281, 0.7436523, -0.265625, -12.2560978, -8.1097565, 2.3780489, -0.0075532
-0.6123047, 0.7490234, -0.2675781, -12.9268293, -7.3170733, 2.195122, -0.005539
-0.6210938, 0.7495117, -0.2719727, -14.3292685, -6.4024391, 2.0731707, -0.005539
-0.6328125, 0.7407227, -0.2714844, -15.6097565, -5.8536587, 2.195122, -0.0073854
-0.6376953, 0.7319336, -0.2675781, -16.3414631, -5.4878049, 2.1341465, -0.0115816
-0.6552734, 0.7216797, -0.2597656, -16.7682934, -5.670732, 1.6463414, -0.012253
-0.6728516, 0.7143555, -0.2495117, -16.3414631, -6.0975609, 1.4634147, -0.0112459
-0.6801758, 0.7089844, -0.2485352, -14.9390249, -6.6463418, 1.3414634, -0.0169528
-0.6845703, 0.7109375, -0.2407227, -13.9634151, -7.2560978, 1.402439, -0.018967
-0.6835938, 0.7211914, -0.246582, -12.4390249, -9.2682924, 2.3170731, -0.0229953
-0.668457, 0.7299805, -0.2558594, -11.7073174, -10.060976, 2.804878, -0.0231632
-0.6601562, 0.7319336, -0.2597656, -11.341464, -10.8536587, 3.2317073, -0.0256809
-0.6357422, 0.7382812, -0.2749023, -11.5853662, -10.9146347, 3.3536587, -0.0270237
-0.6293945, 0.7387695, -0.2763672, -12.8658543, -9.8170738, 3.2317073, -0.0246738
-0.621582, 0.7387695, -0.2744141, -14.3292685, -8.4756098, 2.7439024, -0.023331
-0.6206055, 0.7387695, -0.2749023, -14.9390249, -7.7439027, 2.5609756, -0.0162814
-0.6376953, 0.7387695, -0.2817383, -15.7926836, -7.4390244, 2.3780489, -0.0149386
-0.6459961, 0.7402344, -0.2783203, -16.3414631, -7.6219516, 2.3170731, -0.0146029
-0.6542969, 0.7421875, -0.2739258, -16.4024391, -7.6829271, 2.2560976, -0.0151064
-0.6650391, 0.7431641, -0.2675781, -16.4024391, -8.4146347, 2.3780489, -0.018967
-0.6699219, 0.7382812, -0.2646484, -16.3414631, -9.1463413, 2.195122, -0.018967
-0.6723633, 0.7275391, -0.2592773, -16.4024391, -9.5121956, 2.1341465, -0.0206455
-0.6748047, 0.7163086, -0.2592773, -15.8536587, -10.1219511, 2.3170731, -0.0209812
-0.6772461, 0.703125, -0.2485352, -15.8536587, -10.1829271, 2.3170731, -0.0231632
-0.6743164, 0.7001953, -0.2426758, -15.1829271, -10.7317076, 2.0121951, -0.0223239
-0.6674805, 0.6962891, -0.2358398, -14.0853662, -11.4634151, 1.8902439, -0.0223239
-0.6689453, 0.7026367, -0.2338867, -13.6585369, -12.0731707, 1.9512196, -0.0256809
-0.6542969, 0.7109375, -0.2358398, -11.7682934, -13.4756098, 2.0731707, -0.0240024
-0.6450195, 0.7280273, -0.2431641, -11.0975609, -14.3292685, 2.195122, -0.0216526
-0.6362305, 0.737793, -0.2509766, -10.3048782, -15.060976, 2.7439024, -0.0253452
-0.628418, 0.7543945, -0.2563477, -10.6097565, -15.2439032, 2.6829269, -0.0256809
-0.6245117, 0.7573242, -0.2607422, -11.8902445, -14.8170738, 2.4390244, -0.0246738
-0.6259766, 0.7514648, -0.2495117, -12.8658543, -14.2073174, 1.7682927, -0.0246738
-0.6313477, 0.7480469, -0.2460938, -15, -12.2560978, 1.1585366, -0.0246738
-0.6469727, 0.7299805, -0.2265625, -15.9756098, -11.1585369, 0.7317073, -0.0240024
-0.659668, 0.7290039, -0.2133789, -16.7073174, -9.4512196, 0.6097561, -0.0162814
-0.6748047, 0.7177734, -0.2089844, -16.3414631, -8.5365858, 0.7926829, -0.0162814
-0.6806641, 0.7167969, -0.2070312, -15.5487804, -8.4756098, 1.1585366, -0.0102388
-0.6860352, 0.7207031, -0.2070312, -13.4756098, -9.5121956, 1.6463414, -0.0028534
-0.6826172, 0.7250977, -0.2177734, -12.7439032, -10.1829271, 1.8902439, 0.0028534
-0.6777344, 0.7358398, -0.2202148, -11.4634151, -10.9756098, 2.3780489, 0.0129244
-0.6694336, 0.7460938, -0.2338867, -10.9146347, -11.219512, 2.6219513, 0.0238346
-0.6630859, 0.7524414, -0.2333984, -10.9146347, -11.0365858, 2.2560976, 0.033402
-0.6513672, 0.7597656, -0.2382812, -11.0975609, -10.9756098, 2.5, 0.0360876
-0.6450195, 0.7592773, -0.2412109, -12.0121956, -9.5121956, 2.0121951, 0.0307164
-0.6401367, 0.746582, -0.2421875, -12.1951218, -8.9634151, 1.8292683, 0.0229953
-0.6430664, 0.7475586, -0.2441406, -13.1707315, -7.4390244, 1.6463414, 0.0172885
-0.644043, 0.7436523, -0.2456055, -13.5365858, -6.4634147, 1.402439, 0.0119173
-0.6469727, 0.7387695, -0.25, -13.7195129, -6.280488, 1.5853659, 0.0072175
-0.652832, 0.7368164, -0.2509766, -13.7195129, -6.280488, 1.6463414, 0.002182
-0.6586914, 0.737793, -0.2543945, -13.4756098, -6.3414636, 1.7073171, -0.0041962
-0.6577148, 0.7407227, -0.2563477, -13.9634151, -6.8292685, 1.6463414, -0.0095674
-0.6635742, 0.7363281, -0.2578125, -13.9634151, -7.3170733, 1.5853659, -0.01561
-0.6630859, 0.7358398, -0.2524414, -13.7195129, -7.5609756, 1.4634147, -0.023331
-0.6699219, 0.7290039, -0.2490234, -13.5365858, -7.6219516, 1.2804878, -0.0283665
-0.6743164, 0.722168, -0.2456055, -13.9024391, -7.6219516, 1.1585366, -0.0290379
-0.6757812, 0.7211914, -0.2358398, -13.6585369, -7.5, 0.9146342, -0.0310521
-0.6777344, 0.7216797, -0.2358398, -12.8048782, -7.7439027, 0.6707317, -0.0350805
-0.6757812, 0.7241211, -0.2314453, -12.0731707, -8.780488, 0.9756098, -0.0391089
-0.6728516, 0.7294922, -0.2338867, -11.341464, -9.2682924, 1.2804878, -0.0424659
-0.6640625, 0.7338867, -0.2402344, -10.9146347, -9.9390249, 1.9512196, -0.0438087
-0.6484375, 0.7363281, -0.2470703, -10.8536587, -10, 2.3780489, -0.0439765
-0.6430664, 0.7358398, -0.2460938, -11.0975609, -10.3658543, 2.4390244, -0.0475013
-0.6386719, 0.7392578, -0.2485352, -11.1585369, -9.9390249, 2.0121951, -0.0471656
-0.6391602, 0.7373047, -0.2475586, -11.6463413, -9.1463413, 1.2804878, -0.04448
-0.6445312, 0.7382812, -0.2524414, -11.4634151, -8.719512, 1.2804878, -0.0475013
-0.6430664, 0.7373047, -0.2548828, -11.6463413, -8.9634151, 1.402439, -0.0491798
-0.6552734, 0.7353516, -0.2636719, -11.5243902, -9.2682924, 1.5853659, -0.0505226
-0.6542969, 0.7348633, -0.2685547, -11.5853662, -9.5731707, 1.9512196, -0.051194
-0.6567383, 0.7333984, -0.2729492, -12.1341467, -9.9390249, 1.9512196, -0.0485084
-0.6572266, 0.734375, -0.269043, -12.5, -10, 1.5853659, -0.0424659
-0.6591797, 0.7304688, -0.2675781, -12.6829271, -10.4878054, 1.3414634, -0.0394446
-0.6621094, 0.7250977, -0.2602539, -12.6829271, -10.8536587, 1.3414634, -0.0323949
-0.6665039, 0.7314453, -0.2607422, -12.560976, -10.9756098, 1.5243902, -0.0340734
-0.6582031, 0.7338867, -0.2558594, -12.0731707, -11.0365858, 1.5853659, -0.0330663
-0.6582031, 0.7373047, -0.2573242, -12.0121956, -11.4634151, 1.7682927, -0.0310521
-0.6523438, 0.7402344, -0.253418, -11.8902445, -11.5243902, 1.8292683, -0.0246738
-0.644043, 0.7392578, -0.253418, -12.0731707, -11.4634151, 1.8292683, -0.0231632
-0.6347656, 0.7353516, -0.2446289, -12.1951218, -11.4024391, 1.5853659, -0.018967
-0.6352539, 0.7407227, -0.2446289, -12.6829271, -10.6097565, 1.2804878, -0.0182956
-0.6391602, 0.746582, -0.2456055, -13.2317076, -10.4268293, 1.2195122, -0.0162814
-0.6376953, 0.7436523, -0.2436523, -13.2926836, -10.1219511, 1.402439, -0.0149386
-0.6376953, 0.7363281, -0.2436523, -13.841464, -9.3902445, 1.7073171, -0.0082246
-0.6445312, 0.7265625, -0.2456055, -14.0853662, -8.9634151, 1.6463414, -0.0075532
-0.6464844, 0.7231445, -0.2460938, -14.2682934, -8.5365858, 1.6463414, -0.0062104
-0.652832, 0.7207031, -0.2514648, -13.9024391, -8.5365858, 1.4634147, -0.0025177
-0.65625, 0.7250977, -0.2524414, -13.4756098, -9.0853662, 1.5853659, 0.0045319
-0.6660156, 0.7319336, -0.253418, -12.8658543, -9.4512196, 1.9512196, 0.0065461
-0.6655273, 0.7314453, -0.2519531, -12.0731707, -10.5487804, 1.8292683, 0.0085603
-0.6586914, 0.7270508, -0.2451172, -12.0731707, -11.4024391, 2.0121951, 0.0099031
-0.6538086, 0.7216797, -0.2426758, -12.1951218, -11.341464, 1.9512196, 0.0082246
-0.6494141, 0.7182617, -0.2363281, -12.2560978, -10.7317076, 1.8902439, 0.0099031
-0.6420898, 0.7133789, -0.2333984, -12.3780489, -10.4878054, 1.8902439, 0.0072175
-0.6357422, 0.7163086, -0.2333984, -11.8902445, -10.1219511, 1.5853659, 0.0025177
-0.6308594, 0.7241211, -0.2402344, -11.7073174, -9.8780489, 1.7073171, -0.0041962
-0.6303711, 0.730957, -0.2412109, -11.219512, -10.060976, 2.195122, -0.0058747
-0.6240234, 0.7373047, -0.2407227, -11.7682934, -10.4878054, 2.5609756, -0.005539
-0.6181641, 0.7382812, -0.2431641, -12.5, -10.6707315, 2.5, -0.005539
-0.6186523, 0.730957, -0.2441406, -12.2560978, -10.1219511, 2.2560976, -0.0065461
-0.621582, 0.7241211, -0.2436523, -13.2317076, -9.2073174, 1.7682927, -0.0068818
-0.6367188, 0.7143555, -0.2382812, -13.0487804, -8.3536587, 1.402439, -0.0099031
-0.6450195, 0.7114258, -0.2412109, -12.560976, -8.4146347, 1.402439, -0.012253
-0.659668, 0.7158203, -0.2441406, -11.4634151, -8.719512, 1.8902439, -0.01561
-0.668457, 0.722168, -0.25, -11.341464, -9.3902445, 2.0121951, -0.0193027
-0.668457, 0.7265625, -0.2524414, -10.6707315, -10.3658543, 2.5, -0.0236667
-0.6591797, 0.7314453, -0.2587891, -10.7317076, -10.6097565, 2.6219513, -0.0226596
-0.6582031, 0.7314453, -0.2631836, -11.341464, -10.2439022, 3.1097562, -0.0229953
-0.6533203, 0.7304688, -0.2602539, -11.341464, -10.060976, 3.0487804, -0.0209812
-0.6518555, 0.7314453, -0.2568359, -11.8292685, -10.060976, 2.195122, -0.0243381
-0.6469727, 0.7241211, -0.2475586, -11.7682934, -10.060976, 2.5, -0.0250095
-0.6445312, 0.7231445, -0.2514648, -11.4634151, -10.060976, 2.5609756, -0.0229953
-0.6518555, 0.7216797, -0.2519531, -11.0975609, -10.060976, 2.5609756, -0.0219883
-0.6503906, 0.7260742, -0.2529297, -11.4024391, -10.060976, 2.6829269, -0.0182956
-0.6489258, 0.7324219, -0.2568359, -11.5243902, -9.9390249, 2.8658538, -0.0139315
-0.6586914, 0.7387695, -0.2583008, -11.4634151, -10, 2.8658538, -0.0109102
-0.6552734, 0.7392578, -0.2573242, -11.6463413, -9.8780489, 2.8658538, -0.0045319
-0.6601562, 0.7397461, -0.2563477, -11.7073174, -10, 2.5609756, -0.0001678
-0.6586914, 0.7397461, -0.2514648, -12.3170738, -9.9390249, 2.6219513, 0.0011749
-0.6547852, 0.7329102, -0.2431641, -12.4390249, -9.9390249, 2.7439024, 0.0031891
-0.6518555, 0.7285156, -0.2412109, -12.0731707, -9.8780489, 2.2560976, 0.0045319
-0.6513672, 0.7241211, -0.2338867, -11.6463413, -9.7560978, 2.3170731, 0.0065461
-0.6518555, 0.7260742, -0.2333984, -11.0365858, -10, 2.7439024, 0.0038605
-0.6430664, 0.7294922, -0.237793, -10.3658543, -10.060976, 2.804878, -0.002182
-0.6401367, 0.7338867, -0.237793, -10.3048782, -10.1829271, 2.9268293, -0.0075532
-0.6376953, 0.7412109, -0.2456055, -10.7317076, -9.7560978, 2.5, -0.0130922
-0.6328125, 0.7412109, -0.2504883, -10.7317076, -9.3292685, 2.5, -0.0172885
-0.6347656, 0.737793, -0.2495117, -11.1585369, -8.4756098, 2.195122, -0.0196384
-0.6367188, 0.7329102, -0.2480469, -11.280488, -8.1097565, 2.0731707, -0.0209812
-0.6435547, 0.7329102, -0.246582, -11.0975609, -8.2317076, 1.6463414, -0.0231632
-0.652832, 0.7241211, -0.2446289, -11.280488, -8.2317076, 1.5243902, -0.0229953
-0.65625, 0.7231445, -0.2436523, -10.6097565, -8.841464, 1.8292683, -0.0213169
-0.6606445, 0.7226562, -0.25, -10.3048782, -9.0243902, 1.8292683, -0.018967
-0.6645508, 0.7226562, -0.2558594, -9.9390249, -9.5731707, 2.0121951, -0.0169528
-0.6630859, 0.7304688, -0.2626953, -9.6341467, -10.2439022, 2.195122, -0.0169528
-0.6582031, 0.7329102, -0.2641602, -9.3292685, -10.4268293, 2.195122, -0.0135958
-0.6577148, 0.7397461, -0.2631836, -9.2682924, -10.7926836, 2.195122, -0.0105745
-0.6513672, 0.7392578, -0.2578125, -9.5731707, -11.0975609, 2.195122, -0.0078889
-0.6503906, 0.7412109, -0.2583008, -10.1219511, -10.9756098, 1.8902439, -0.0075532
-0.6499023, 0.7373047, -0.2539062, -10.3658543, -10.9756098, 2.0121951, -0.0041962
-0.6503906, 0.7338867, -0.2495117, -10.3048782, -10.9146347, 1.8292683, -0.0035248
-0.6479492, 0.7319336, -0.2514648, -10.6097565, -10.5487804, 1.5243902, -0.0072175
-0.6479492, 0.7353516, -0.2460938, -10.2439022, -9.9390249, 1.4634147, -0.0063783
-0.6557617, 0.7407227, -0.2543945, -10.4878054, -9.8170738, 1.8292683, -0.0135958
-0.6557617, 0.7431641, -0.2543945, -10.6097565, -9.9390249, 1.8902439, -0.0176242
-0.6508789, 0.7475586, -0.2573242, -10.9756098, -10.060976, 2.0121951, -0.0149386
-0.6503906, 0.7460938, -0.2578125, -11.0975609, -9.9390249, 2.195122, -0.0216526
-0.6513672, 0.7416992, -0.265625, -11.7073174, -9.6951218, 1.8902439, -0.0238346
-0.6474609, 0.7348633, -0.2607422, -12.0731707, -9.1463413, 1.8292683, -0.0276951
-0.6508789, 0.7319336, -0.2612305, -12.6219511, -8.6585369, 1.6463414, -0.0307164
-0.6508789, 0.7241211, -0.2548828, -12.8048782, -8.719512, 1.4634147, -0.0327306
-0.6489258, 0.7211914, -0.2524414, -12.560976, -8.6585369, 1.2804878, -0.0330663
-0.652832, 0.7231445, -0.2475586, -12.3780489, -8.841464, 1.2804878, -0.0340734
-0.652832, 0.7197266, -0.2456055, -12.1341467, -9.3292685, 1.3414634, -0.0352483
-0.6513672, 0.7138672, -0.2387695, -11.7682934, -9.6341467, 1.5243902, -0.0399481
-0.6513672, 0.7163086, -0.2412109, -11.341464, -10.1219511, 1.3414634, -0.0404517
-0.6489258, 0.7197266, -0.2446289, -10.7926836, -10.5487804, 1.5853659, -0.0404517
-0.6508789, 0.7231445, -0.2460938, -10.7317076, -10.5487804, 1.6463414, -0.0384375
-0.6533203, 0.7299805, -0.2524414, -10.8536587, -10.060976, 1.6463414, -0.0384375
-0.6503906, 0.7358398, -0.2543945, -10.7926836, -10, 1.3414634, -0.0364233
-0.652832, 0.7421875, -0.2573242, -11.219512, -9.9390249, 0.9756098, -0.0365911
-0.652832, 0.7470703, -0.2587891, -11.5243902, -9.8780489, 0.8536586, -0.0377661
-0.6499023, 0.7480469, -0.2573242, -11.7682934, -9.8780489, 1.2195122, -0.0323949
-0.6518555, 0.7460938, -0.2514648, -12.1341467, -9.6341467, 1.097561, -0.0283665
-0.6542969, 0.7353516, -0.2524414, -12.560976, -9.5731707, 1.2195122, -0.0297093
-0.6611328, 0.7241211, -0.2524414, -12.8048782, -9.1463413, 1.0365853, -0.0290379
-0.6621094, 0.7163086, -0.2558594, -12.6219511, -8.4146347, 1.1585366, -0.0317235
-0.668457, 0.7094727, -0.2543945, -11.9512196, -8.719512, 1.0365853, -0.0310521
-0.6762695, 0.7109375, -0.2539062, -11.1585369, -9.3292685, 1.2804878, -0.0297093
-0.6762695, 0.722168, -0.2524414, -10.4268293, -10.2439022, 1.2804878, -0.0337377
-0.6748047, 0.7329102, -0.2573242, -10.1829271, -11.0365858, 1.4634147, -0.0350805
-0.6713867, 0.7363281, -0.2563477, -9.6341467, -11.5853662, 1.402439, -0.0340734
-0.659668, 0.7368164, -0.2612305, -9.6341467, -11.6463413, 1.6463414, -0.0344091
-0.659668, 0.7421875, -0.2617188, -9.8780489, -11.7682934, 1.6463414, -0.0323949
-0.6518555, 0.7416992, -0.2670898, -9.9390249, -11.4634151, 1.5243902, -0.0323949
-0.6499023, 0.7426758, -0.2705078, -10.3048782, -11.280488, 1.402439, -0.0318914
-0.6518555, 0.7431641, -0.2700195, -10.5487804, -11.0975609, 1.402439, -0.0323949
-0.6533203, 0.7421875, -0.2685547, -11.0975609, -11.0975609, 1.1585366, -0.0297093
-0.6508789, 0.7358398, -0.2641602, -11.7682934, -10.8536587, 1.3414634, -0.0283665
-0.6499023, 0.7353516, -0.2583008, -12.0121956, -10.6707315, 1.3414634, -0.0263523
-0.6508789, 0.7314453, -0.2412109, -12.4390249, -10.4268293, 1.0365853, -0.0271916
-0.6508789, 0.7285156, -0.2329102, -11.9512196, -10.4268293, 0.6097561, -0.030045
-0.6474609, 0.7250977, -0.2304688, -11.280488, -10.3048782, 0.4268293, -0.0290379
-0.6425781, 0.7265625, -0.2304688, -10.6707315, -10.3048782, 0.3658537, -0.0293736
-0.6411133, 0.7294922, -0.2333984, -9.7560978, -10.9146347, 0.9146342, -0.030045
-0.6328125, 0.7451172, -0.2421875, -9.4512196, -11.5243902, 0.9756098, -0.0305486
-0.6279297, 0.7441406, -0.2485352, -9.8170738, -11.5853662, 1.2804878, -0.0303807
-0.6206055, 0.7397461, -0.2456055, -10.6097565, -11.280488, 1.1585366, -0.0283665
-0.6240234, 0.7373047, -0.2402344, -11.5243902, -9.6341467, 0.8536586, -0.0305486
-0.6274414, 0.7294922, -0.2421875, -11.8292685, -7.8048782, -0.1219512, -0.0340734
-0.6328125, 0.7275391, -0.2412109, -12.1341467, -7.6219516, -0.6097561, -0.0317235
-0.6484375, 0.7265625, -0.2456055, -11.6463413, -7.7439027, -0.3048781, -0.0310521
-0.6567383, 0.7290039, -0.2602539, -11.341464, -7.6829271, 0, -0.0293736
-0.65625, 0.7270508, -0.2626953, -11.341464, -8.719512, 0.6707317, -0.0226596
-0.6542969, 0.7285156, -0.269043, -11.219512, -8.841464, 0.6097561, -0.0203098
-0.6616211, 0.7250977, -0.2705078, -11.7073174, -8.9024391, 0.1219512, -0.0250095
-0.6601562, 0.7172852, -0.2661133, -11.9512196, -8.6585369, 0.1219512, -0.0273594
-0.6630859, 0.7172852, -0.2641602, -11.6463413, -8.9634151, -0.2439024, -0.0240024
-0.6606445, 0.7211914, -0.2607422, -11.7682934, -9.0243902, 0, -0.0250095
-0.6586914, 0.7250977, -0.2597656, -11.0365858, -9.7560978, 0.2439024, -0.0276951
-0.6518555, 0.7255859, -0.2602539, -10.8536587, -10.1219511, 0.2439024, -0.0219883
-0.6484375, 0.7255859, -0.2602539, -10.2439022, -10.4268293, 0.6707317, -0.0203098
-0.6435547, 0.7280273, -0.262207, -10.3658543, -9.9390249, 0.6097561, -0.0182956
-0.6464844, 0.7290039, -0.2641602, -10.3658543, -9.9390249, 0.7317073, -0.0152743
-0.6450195, 0.7333984, -0.2651367, -10.8536587, -9.6341467, 0.7926829, -0.0162814
-0.6538086, 0.7255859, -0.2612305, -10.9756098, -9.4512196, 0.3658537, -0.0166171
-0.6542969, 0.7192383, -0.2583008, -11.0365858, -9.5121956, 0.4268293, -0.0135958
-0.6586914, 0.71875, -0.2548828, -10.7926836, -9.3902445, 0.5487805, -0.0142672
-0.6572266, 0.7236328, -0.2578125, -10.3048782, -9.6341467, 1.0365853, -0.0130922
-0.6577148, 0.7290039, -0.2597656, -10.3048782, -10, 0.9146342, -0.0112459
-0.6586914, 0.7255859, -0.2573242, -9.9390249, -10.4878054, 1.2195122, -0.008896
-0.6508789, 0.7294922, -0.2602539, -9.8170738, -10.6707315, 1.2195122, -0.0082246
-0.6503906, 0.7294922, -0.2607422, -9.7560978, -10.8536587, 1.1585366, -0.0075532
-0.6469727, 0.7285156, -0.2626953, -10, -10.5487804, 0.9146342, -0.0132601
-0.6435547, 0.7285156, -0.2573242, -9.8170738, -10.6097565, 1.0365853, -0.0137636
-0.640625, 0.7246094, -0.2524414, -9.7560978, -10.6707315, 0.9756098, -0.0119173
-0.6411133, 0.7285156, -0.2548828, -9.4512196, -10.8536587, 0.7926829, -0.0162814
-0.6411133, 0.7314453, -0.2568359, -8.9024391, -10.7926836, 0.5487805, -0.0203098
-0.644043, 0.7426758, -0.262207, -8.9634151, -11.0365858, 0.6707317, -0.0229953
-0.6411133, 0.7475586, -0.2661133, -8.9024391, -10.7317076, 0.6097561, -0.0243381
-0.6469727, 0.7529297, -0.2626953, -9.5731707, -10.4878054, 0.6707317, -0.0250095
-0.6508789, 0.7504883, -0.2666016, -10.3048782, -9.9390249, 0.5487805, -0.0253452
-0.6503906, 0.7416992, -0.2651367, -11.219512, -9.2073174, 0.3048781, -0.023331
-0.6533203, 0.7333984, -0.2617188, -11.4634151, -8.841464, 0.1219512, -0.0297093
-0.6616211, 0.7255859, -0.2587891, -10.9146347, -8.780488, -0.1829268, -0.0323949
-0.6660156, 0.7231445, -0.253418, -10.9146347, -8.841464, 0.0609756, -0.0330663
-0.668457, 0.7211914, -0.2558594, -9.6951218, -9.3292685, 0.1829268, -0.0370947
-0.6640625, 0.7314453, -0.2568359, -9.3902445, -10, 0.1219512, -0.0397803
-0.6606445, 0.7358398, -0.2539062, -8.2317076, -10.9146347, 0.6097561, -0.0391089
-0.6572266, 0.746582, -0.2631836, -7.8658538, -11.0975609, 0.7317073, -0.0360876
-0.652832, 0.7460938, -0.2617188, -7.6829271, -11.0365858, 0.4878049, -0.0379339
-0.644043, 0.7495117, -0.2666016, -7.6219516, -10.4878054, 0.3048781, -0.0364233
-0.6479492, 0.7470703, -0.2651367, -8.0487804, -9.5731707, 0.2439024, -0.0360876
-0.6474609, 0.7451172, -0.2670898, -8.780488, -8.9024391, 0, -0.035584
-0.6503906, 0.7490234, -0.2675781, -8.780488, -9.0243902, -0.1829268, -0.0377661
-0.6489258, 0.7504883, -0.2670898, -9.4512196, -8.4756098, 0.1829268, -0.0360876
-0.652832, 0.7436523, -0.2680664, -9.5121956, -8.1097565, -0.2439024, -0.0290379
-0.6494141, 0.7431641, -0.2724609, -9.1463413, -8.4756098, -0.0609756, -0.0223239
-0.6552734, 0.7470703, -0.2700195, -8.9024391, -8.719512, 0.0609756, -0.0194705
-0.6567383, 0.7495117, -0.2719727, -8.4756098, -9.3292685, 0.2439024, -0.0203098
-0.6650391, 0.7495117, -0.2763672, -8.4146347, -9.6341467, 0.3048781, -0.0169528
-0.6635742, 0.7441406, -0.2739258, -8.841464, -10.3048782, 0.3658537, -0.0176242
-0.6630859, 0.7329102, -0.2744141, -8.6585369, -10.3048782, 0.6097561, -0.012253
-0.668457, 0.7324219, -0.2744141, -9.0853662, -10.4878054, 0.3048781, -0.0112459
-0.6762695, 0.7290039, -0.2631836, -9.3902445, -10.3048782, 0, -0.0135958
-0.6762695, 0.7265625, -0.2607422, -9.2073174, -10.060976, -0.3048781, -0.0117494
-0.6787109, 0.7373047, -0.2543945, -8.4756098, -10.7317076, -0.0609756, -0.0125887
-0.6762695, 0.7402344, -0.2456055, -8.2317076, -11.4634151, 0, -0.0109102
-0.6777344, 0.7412109, -0.2421875, -7.5609756, -12.1341467, 0.2439024, -0.0129244
-0.6674805, 0.7397461, -0.2319336, -7.5609756, -12.3170738, 0.3048781, -0.0149386
-0.6572266, 0.7353516, -0.2304688, -7.6219516, -12.1951218, 0.6097561, -0.0176242
-0.6489258, 0.7226562, -0.2265625, -7.5, -11.5243902, 0.3658537, -0.0216526
-0.6459961, 0.7148438, -0.2226562, -7.2560978, -10.3048782, -0.0609756, -0.0243381
-0.6533203, 0.7070312, -0.2255859, -6.7682929, -9.0853662, -0.2439024, -0.0276951
-0.6567383, 0.7084961, -0.2319336, -6.3414636, -8.9024391, -0.1219512, -0.0323949
-0.6650391, 0.7226562, -0.2397461, -5.2439027, -9.8780489, 0.0609756, -0.0370947
-0.6630859, 0.7426758, -0.253418, -4.6951222, -10.2439022, 0.4268293, -0.036759
-0.6645508, 0.7495117, -0.262207, -4.5731707, -10.9146347, 1.0365853, -0.0384375
-0.6533203, 0.7617188, -0.2724609, -4.6341462, -11.280488, 1.1585366, -0.0399481
-0.6499023, 0.7617188, -0.277832, -5.609756, -10.7317076, 0.7317073, -0.0431373
-0.6420898, 0.765625, -0.2885742, -6.1585369, -10.1219511, 0.6097561, -0.0458228
-0.6430664, 0.7709961, -0.2905273, -8.1097565, -8.9024391, 0.2439024, -0.0451514
-0.6367188, 0.7641602, -0.3027344, -8.6585369, -8.5975609, 0.1829268, -0.0480049
-0.6381836, 0.7709961, -0.3115234, -10.1219511, -8.1097565, 0.4268293, -0.0438087
-0.6303711, 0.7739258, -0.3251953, -11.6463413, -8.5975609, 0.7317073, -0.0417945
-0.6308594, 0.7739258, -0.3310547, -12.4390249, -8.5365858, 0.6097561, -0.0407874
-0.6279297, 0.7734375, -0.3374023, -14.0853662, -8.9634151, 0.2439024, -0.0421302
-0.6381836, 0.7587891, -0.3364258, -15.1219511, -8.841464, -0.1829268, -0.0414588
-0.6455078, 0.7495117, -0.3334961, -16.1585369, -9.0243902, -0.3048781, -0.0374304
-0.6708984, 0.7382812, -0.3256836, -16.8292694, -9.3292685, -0.7317073, -0.0320592
-0.6777344, 0.7363281, -0.3188477, -17.0731716, -10.060976, -0.9756098, -0.0270237
-0.6982422, 0.7329102, -0.3178711, -16.7682934, -10.8536587, -0.7926829, -0.0251774
-0.7114258, 0.7324219, -0.315918, -16.4634151, -12.560976, -0.6707317, -0.0297093
-0.7207031, 0.7231445, -0.309082, -15.9756098, -13.7195129, -0.3658537, -0.0303807
-0.7172852, 0.7207031, -0.3032227, -15.7926836, -15.7317076, 0.2439024, -0.0290379
-0.7094727, 0.7080078, -0.2954102, -15.1219511, -16.9512196, 0.8536586, -0.030045
-0.7050781, 0.7119141, -0.2880859, -14.6341467, -17.6219521, 0.9756098, -0.0290379
-0.6977539, 0.7050781, -0.2792969, -13.9024391, -18.780489, 1.2804878, -0.0246738
-0.6938477, 0.7055664, -0.277832, -13.1707315, -19.3292694, 1.2804878, -0.0224918
-0.6879883, 0.706543, -0.2792969, -11.9512196, -19.939024, 1.8902439, -0.0223239
-0.6738281, 0.71875, -0.2817383, -11.7682934, -20.1219521, 2.1341465, -0.0236667
-0.6679688, 0.7260742, -0.2822266, -11.7682934, -20, 2.0121951, -0.0193027
-0.6645508, 0.7431641, -0.2915039, -12.1341467, -19.939024, 2.0731707, -0.018967
-0.6660156, 0.7441406, -0.2973633, -12.9268293, -19.4512196, 2.3170731, -0.0149386
-0.6582031, 0.7529297, -0.3066406, -13.4756098, -19.0853672, 2.5609756, -0.0068818
-0.6567383, 0.7524414, -0.3110352, -14.8170738, -18.1707325, 3.1097562, -0.0016785
-0.6582031, 0.7490234, -0.3134766, -16.4634151, -17.3780499, 3.4146342, -0.0035248
-0.6542969, 0.7480469, -0.3129883, -17.0731716, -17.0121956, 3.3536587, -0.0005035
-0.6660156, 0.7426758, -0.3061523, -17.439024, -16.4024391, 3.1097562, 0.0052033
-0.6733398, 0.7363281, -0.293457, -17.8048782, -16.5853653, 3.1097562, 0.0065461
-0.6791992, 0.7338867, -0.2871094, -17.560976, -16.4024391, 3.2317073, 0.0082246
-0.6782227, 0.7280273, -0.2827148, -17.0121956, -16.6463413, 3.1707318, 0.0092317
-0.6831055, 0.722168, -0.2861328, -16.2195129, -16.4634151, 3.4146342, 0.0129244
-0.6850586, 0.722168, -0.2949219, -15.7317076, -16.280489, 3.7195122, 0.0166171
-0.6835938, 0.7231445, -0.3012695, -15.1219511, -15.6707325, 3.8414636, 0.0115816
-0.6831055, 0.737793, -0.3066406, -15, -15.5487804, 3.8414636, 0.0115816
-0.6806641, 0.7460938, -0.3095703, -14.2073174, -15.6097565, 4.3292685, 0.0072175
-0.6708984, 0.7563477, -0.3144531, -13.9024391, -15.9146347, 5, 0.0015106
-0.6699219, 0.7612305, -0.3144531, -13.6585369, -16.280489, 5.1219511, -0.0041962
-0.6542969, 0.7636719, -0.3212891, -13.5365858, -16.280489, 5, -0.0119173
-0.6450195, 0.7475586, -0.3222656, -13.5365858, -15.9756098, 5.1829271, -0.0209812
-0.6416016, 0.7412109, -0.3222656, -13.4146347, -14.8780489, 4.6341462, -0.0290379
-0.6469727, 0.7314453, -0.3164062, -12.9878054, -14.3902445, 4.2682929, -0.0372625
-0.6474609, 0.7255859, -0.3115234, -12.0121956, -13.9634151, 4.2682929, -0.0471656
-0.65625, 0.7226562, -0.3105469, -11.4634151, -14.0243902, 4.2682929, -0.0553902
-0.6567383, 0.722168, -0.3100586, -9.9390249, -14.1463413, 4.5731707, -0.0605936
-0.6640625, 0.7167969, -0.3120117, -9.3902445, -14.3292685, 4.7560978, -0.0595865
-0.6669922, 0.7182617, -0.3154297, -8.1097565, -14.1463413, 5.1829271, -0.057908
-0.668457, 0.7216797, -0.3120117, -7.0121951, -13.4146347, 5.4878049, -0.0528725
-0.6650391, 0.7265625, -0.3085938, -6.280488, -13.2926836, 5.3658538, -0.0515297
-0.6591797, 0.7324219, -0.3007812, -4.2073174, -12.8658543, 5.2439027, -0.0471656
-0.6523438, 0.7397461, -0.2949219, -3.4756098, -12.8658543, 5, -0.0377661
-0.6489258, 0.7426758, -0.293457, -1.6463414, -12.6829271, 5.4878049, -0.0350805
-0.6352539, 0.7431641, -0.2890625, -1.097561, -12.4390249, 5.8536587, -0.0303807
-0.6362305, 0.7407227, -0.2905273, -0.1219512, -11.0365858, 6.5853658, -0.0256809
-0.6357422, 0.7314453, -0.2895508, 0, -9.7560978, 6.7073174, -0.0208133
-0.6337891, 0.7246094, -0.2851562, 1.2195122, -6.8292685, 6.890244, -0.0229953
-0.6445312, 0.7197266, -0.2866211, 1.9512196, -5.4878049, 6.890244, -0.0243381
-0.6489258, 0.7167969, -0.2880859, 3.4756098, -3.3536587, 6.5243902, -0.0236667
-0.6542969, 0.722168, -0.2915039, 5.7317076, -1.7073171, 6.3414636, -0.024506
-0.6542969, 0.7304688, -0.2939453, 7.1341467, -1.3414634, 6.890244, -0.0270237
-0.6416016, 0.7416992, -0.3051758, 10.3048782, -0.9756098, 7.5609756, -0.0280308
-0.6186523, 0.7529297, -0.3178711, 11.280488, -0.8536586, 8.1707315, -0.0283665
-0.6069336, 0.7563477, -0.3193359, 12.5, 0.3658537, 8.5975609, -0.0246738
-0.5864258, 0.7548828, -0.3217773, 13.1707315, 1.402439, 8.5365858, -0.0216526
-0.5761719, 0.7485352, -0.3198242, 14.0243902, 4.0243902, 8.0487804, -0.0193027
-0.5698242, 0.737793, -0.3276367, 13.9024391, 5.5487804, 7.8048782, -0.0152743
-0.5722656, 0.7329102, -0.3408203, 14.5731707, 8.780488, 7.8048782, -0.0169528
-0.581543, 0.7285156, -0.3740234, 14.9390249, 10, 8.1707315, -0.0213169
-0.5869141, 0.7236328, -0.3979492, 15.7317076, 12.1951218, 8.9024391, -0.0224918
-0.6088867, 0.7250977, -0.4389648, 15.5487804, 13.5975609, 9.7560978, -0.0240024
-0.6157227, 0.7246094, -0.4472656, 15.3658543, 14.1463413, 10, -0.0246738
-0.6245117, 0.7285156, -0.4404297, 14.3902445, 15, 9.9390249, -0.0203098
-0.6293945, 0.7192383, -0.4262695, 14.2073174, 15.6707325, 9.5121956, -0.0229953
-0.6333008, 0.7138672, -0.4155273, 14.8170738, 17.439024, 8.6585369, -0.018967
-0.628418, 0.7055664, -0.4013672, 15.3658543, 18.4146347, 8.3536587, -0.0193027
-0.6308594, 0.7041016, -0.3969727, 16.5243912, 20.060976, 8.1097565, -0.0221561
-0.6264648, 0.7099609, -0.3969727, 17.7439022, 20.7317085, 8.4756098, -0.0253452
-0.6298828, 0.7124023, -0.3974609, 19.0243912, 21.7073174, 9.1463413, -0.0223239
-0.6259766, 0.7314453, -0.4067383, 19.6341476, 22.3170738, 9.8780489, -0.0216526
-0.6274414, 0.7392578, -0.4116211, 20.1219521, 24.3902435, 10.6097565, -0.0171206
-0.6240234, 0.7368164, -0.4238281, 19.5731716, 26.7682934, 11.5243902, -0.0152743
-0.6259766, 0.7333984, -0.4233398, 19.0243912, 28.5365868, 12.3170738, -0.0152743
-0.6308594, 0.7114258, -0.4199219, 18.6585369, 31.8902454, 12.6219511, -0.0219883
-0.6416016, 0.6879883, -0.402832, 18.8414631, 32.9268303, 12.6219511, -0.023331
-0.6459961, 0.6787109, -0.3950195, 20.5487804, 34.8780479, 12.6829271, -0.0223239
-0.6606445, 0.6665039, -0.3959961, 21.9512196, 35.3658562, 12.7439032, -0.021149
-0.6655273, 0.6606445, -0.4018555, 26.2195129, 35.5487823, 13.4756098, -0.017792
-0.6689453, 0.6733398, -0.4370117, 28.6585369, 35.3048782, 14.1463413, -0.0135958
-0.6665039, 0.6845703, -0.453125, 33.1097565, 34.5121956, 15.3658543, -0.0149386
-0.6459961, 0.7172852, -0.4848633, 34.7560997, 34.4512215, 15.8536587, -0.0193027
-0.6342773, 0.7299805, -0.4912109, 36.5243912, 34.2073174, 16.4024391, -0.0186313
-0.6108398, 0.746582, -0.4892578, 37.3170738, 35.5487823, 15.8536587, -0.0162814
-0.6005859, 0.746582, -0.4863281, 37.5609779, 36.8292694, 15.6707325, -0.0146029
-0.5883789, 0.7358398, -0.4824219, 39.1463432, 39.5121956, 15.6097565, -0.0152743
-0.5805664, 0.7358398, -0.4951172, 40.2439041, 40.7926826, 16.0365849, -0.0135958
-0.5766602, 0.7392578, -0.5014648, 42.6219521, 41.7682953, 17.1341476, -0.0169528
-0.5898438, 0.7607422, -0.5224609, 43.5975609, 42.1341476, 17.8658543, -0.0209812
-0.5991211, 0.7709961, -0.5297852, 45.3048782, 42.5609779, 19.2073174, -0.0213169
-0.6337891, 0.7895508, -0.5566406, 46.1585388, 42.7439041, 20.3658543, -0.0224918
-0.6455078, 0.8110352, -0.5595703, 48.5975609, 43.7804871, 23.4146347, -0.0253452
-0.6259766, 0.831543, -0.527832, 49.2073174, 43.9024391, 24.5731716, -0.0273594
-0.6196289, 0.8193359, -0.512207, 49.1463432, 46.341465, 21.4634151, -0.0283665
-0.640625, 0.7817383, -0.4604492, 48.7804871, 52.5, 15.7926836, -0.0243381
-0.6640625, 0.7685547, -0.4345703, 50, 55.5487823, 14.5731707, -0.0240024
-0.6918945, 0.7626953, -0.4033203, 55.3048782, 59.7560997, 16.6463413, -0.0256809
-0.6816406, 0.7827148, -0.4111328, 59.3292694, 60.3658562, 19.1463413, -0.0246738
-0.6591797, 0.7890625, -0.4306641, 66.6463394, 60, 24.5731716, -0.0280308
-0.6186523, 0.7944336, -0.4902344, 69.3292694, 59.5731735, 26.5243912, -0.0283665
-0.59375, 0.7949219, -0.5097656, 72.0731735, 60.5487823, 27.6829281, -0.0263523
-0.5712891, 0.7944336, -0.546875, 72.3170776, 62.2560997, 26.8902454, -0.0276951
-0.574707, 0.7905273, -0.5595703, 72.5, 67.2560959, 25.8536587, -0.0283665
-0.5834961, 0.796875, -0.5615234, 72.8658524, 70.4268341, 25.3048782, -0.0256809
-0.5952148, 0.7998047, -0.5727539, 73.1097565, 74.0243912, 24.0853672, -0.0246738
-0.6142578, 0.7939453, -0.6206055, 74.5121994, 74.8780518, 25.060976, -0.023331
-0.6157227, 0.7910156, -0.6508789, 75.2439041, 74.8780518, 25.7317085, -0.0250095
-0.6274414, 0.7885742, -0.7163086, 77.8048782, 74.0243912, 26.9512196, -0.0240024
-0.637207, 0.7978516, -0.7758789, 78.3536606, 73.1707306, 27.1341476, -0.0224918
-0.6450195, 0.7993164, -0.7944336, 79.4512177, 71.4024429, 27.0731716, -0.0193027
-0.6538086, 0.8027344, -0.8007812, 79.7560959, 69.7560959, 26.8292694, -0.0203098
-0.6533203, 0.7993164, -0.7905273, 79.8780518, 67.3780518, 25.4878063, -0.0223239
-0.6591797, 0.7783203, -0.7539062, 79.9390259, 66.3414612, 24.8780499, -0.0179599
-0.6650391, 0.7646484, -0.7338867, 81.4024429, 65.9146347, 23.5975609, -0.0186313
-0.6694336, 0.7480469, -0.7021484, 82.8048782, 66.2195129, 23.2926826, -0.0149386
-0.6650391, 0.7446289, -0.6918945, 86.3414688, 66.2804871, 24.0853672, -0.0095674
-0.652832, 0.7539062, -0.6894531, 90.5487823, 65.4878082, 25.9146347, -0.0077211
-0.6411133, 0.762207, -0.6889648, 92.1341476, 65.1219559, 27.0121956, -0.0028534
-0.6054688, 0.7924805, -0.6923828, 94.5121994, 66.1585388, 28.780489, -0.0031891
-0.5810547, 0.8134766, -0.6884766, 95.0609741, 67.0731735, 29.4512196, -0.005539
-0.5693359, 0.8188477, -0.6787109, 95.0609741, 71.0365906, 29.8780499, -0.0041962
-0.5419922, 0.8261719, -0.668457, 94.4512253, 73.3536606, 29.6951218, -0.0015106
-0.534668, 0.8149414, -0.6679688, 93.1097565, 79.3292694, 29.7560978, -0.0011749
-0.5302734, 0.7875977, -0.6879883, 92.9268341, 82.3780518, 29.6341476, -0.0015106
-0.5317383, 0.7714844, -0.7045898, 93.2317123, 88.4756088, 29.4512196, -0.0031891
-0.5410156, 0.7529297, -0.762207, 93.5975647, 91.0975647, 29.4512196, 0.0018463
-0.5581055, 0.7529297, -0.7949219, 95.4268341, 94.0243912, 30.3658543, 0.0097353
-0.578125, 0.7636719, -0.8378906, 97.0121994, 95.3048782, 31.6463413, 0.0070497
-0.5883789, 0.7753906, -0.8510742, 97.3170776, 95, 32.0731697, 0.0035248
-0.5952148, 0.7915039, -0.8505859, 98.4756088, 94.8170776, 31.280489, 0.0018463
-0.6015625, 0.7861328, -0.8125, 98.5365906, 95, 31.0975609, 0.0011749
-0.6015625, 0.784668, -0.7895508, 99.5121994, 96.9512253, 29.0853672, -0.0028534
-0.6108398, 0.7543945, -0.7592773, 100.6097565, 98.2926865, 28.4146347, -0.0075532
-0.6074219, 0.7319336, -0.7563477, 104.0243912, 101.4634171, 28.2926826, -0.0115816
-0.6005859, 0.703125, -0.7763672, 106.0365906, 103.4756088, 29.0853672, -0.0119173
-0.5991211, 0.6987305, -0.7895508, 110.9756088, 105.6707306, 30.6097565, -0.0125887
-0.5927734, 0.7080078, -0.84375, 112.9878082, 106.2804871, 31.9512196, -0.0151064
-0.5854492, 0.7177734, -0.871582, 116.7682953, 106.3414688, 34.6951218, -0.01561
-0.5649414, 0.7587891, -0.9179688, 119.5731735, 106.1585388, 37.6829262, -0.01561
-0.5498047, 0.7744141, -0.9394531, 120.0609818, 106.646347, 38.7195129, -0.0152743
-0.5219727, 0.800293, -0.9614258, 119.9390259, 108.8414688, 39.0853653, -0.01561
-0.5097656, 0.8110352, -0.9814453, 119.146347, 110.36586, 38.2926826, -0.0135958
-0.512207, 0.8115234, -0.9848633, 117.0121994, 113.4756088, 36.4634171, -0.0115816
-0.5141602, 0.8066406, -0.9794922, 115.7926865, 114.9390259, 35.6097565, -0.0099031
-0.5214844, 0.7988281, -0.9794922, 114.5731735, 117.7439041, 34.9390259, -0.0099031
-0.5297852, 0.7875977, -0.9873047, 113.9024429, 118.6585388, 35.0609779, -0.0095674
-0.53125, 0.7719727, -0.9951172, 113.2317123, 120.1219559, 36.1585388, -0.0095674
-0.53125, 0.7333984, -1.0063477, 113.4756088, 122.0731735, 36.2195129, -0.0102388
-0.5405273, 0.7124023, -1.0175781, 113.7195129, 123.2926865, 36.4024391, -0.0095674
-0.5649414, 0.6826172, -1.046875, 114.6341476, 125.5487823, 36.4024391, -0.0082246
-0.6015625, 0.6772461, -1.0761719, 115.4878082, 125.7317123, 36.5853653, -0.008896
-0.6132812, 0.6831055, -1.0864258, 117.86586, 123.9634171, 38.4146347, -0.0092317
-0.6381836, 0.703125, -1.0864258, 119.0243912, 121.8902435, 39.3902435, -0.0075532
-0.6386719, 0.7138672, -1.0727539, 121.7073212, 118.2926865, 40.4878044, -0.0082246
-0.6220703, 0.7270508, -1.0239258, 123.1707382, 116.8902435, 40.8536606, -0.0099031
-0.609375, 0.7250977, -0.996582, 125.6097565, 116.5853653, 41.0365868, -0.0035248
-0.5737305, 0.7133789, -0.9516602, 127.1951218, 117.2561035, 41.4634171, 0.002182
-0.5498047, 0.706543, -0.9536133, 130.4878082, 120, 42.8658562, 0.0099031
-0.5053711, 0.6958008, -0.9790039, 133.1707306, 122.9268341, 45.4268303, 0.0152743
-0.4814453, 0.6884766, -1.0087891, 133.9024353, 124.6341476, 46.5243912, 0.0151064
-0.4541016, 0.6845703, -1.0756836, 134.4512177, 128.5975647, 48.1097565, 0.0119173
-0.4526367, 0.6889648, -1.1206055, 134.2073212, 130.4878082, 47.8048782, 0.0097353
-0.4648438, 0.6982422, -1.1274414, 133.4756165, 132.9878082, 46.5853653, 0.0058747
-0.4926758, 0.7119141, -1.1054688, 132.86586, 133.9024353, 46.0365868, -0.0015106
-0.5053711, 0.7177734, -1.0893555, 132.9268341, 133.2317047, 46.0365868, -0.008896
-0.4995117, 0.7265625, -1.0610352, 133.5975647, 132.6219482, 46.4634171, -0.0142672
-0.487793, 0.7241211, -1.0639648, 136.4024353, 132.3170776, 48.1097565, -0.017792
-0.4516602, 0.7089844, -1.112793, 137.8048859, 132.6219482, 49.1463432, -0.0203098
-0.4335938, 0.7075195, -1.1577148, 140.36586, 134.0243988, 51.0975609, -0.0206455
-0.4047852, 0.7138672, -1.2436523, 139.2073212, 136.0365906, 52.8048782, -0.0209812
-0.3964844, 0.7172852, -1.2729492, 137.3170776, 137.4390259, 52.2560997, -0.0236667
-0.3964844, 0.7255859, -1.2797852, 131.5243988, 139.8780518, 49.5121956, -0.0256809
-0.4404297, 0.7207031, -1.2246094, 128.6585388, 141.4024353, 47.8658562, -0.0229953
-0.4624023, 0.7148438, -1.1850586, 125.36586, 143.7195129, 44.8170738, -0.0263523
-0.5009766, 0.6972656, -1.1264648, 125.2439041, 144.2073212, 44.3902435, -0.0307164
-0.5053711, 0.6948242, -1.1196289, 128.7195129, 144.6341553, 46.341465, -0.0344091
-0.4897461, 0.7045898, -1.1542969, 131.4634247, 144.5731812, 47.8658562, -0.0381018
-0.4750977, 0.7138672, -1.1870117, 136.5243988, 143.7195129, 51.4024391, -0.0428016
-0.4365234, 0.7397461, -1.2416992, 138.1097565, 143.2926788, 52.4390259, -0.0458228
-0.4174805, 0.746582, -1.2553711, 137.7439117, 142.9878082, 52.8658562, -0.0471656
-0.3901367, 0.7280273, -1.2402344, 133.7195129, 145.4878082, 51.0975609, -0.0491798
-0.3886719, 0.7060547, -1.2177734, 131.8292694, 147.9268341, 49.1463432, -0.0471656
-0.4033203, 0.6435547, -1.1621094, 129.6341553, 153.4146423, 46.7073174, -0.0451514
-0.434082, 0.609375, -1.1289062, 130.6097565, 155.1829376, 46.9512215, -0.0501869
-0.4448242, 0.6030273, -1.1420898, 135.6097565, 156.7682953, 50.1829262, -0.0505226
-0.4414062, 0.6254883, -1.2138672, 138.8414612, 156.0975647, 52.2560997, -0.0471656
-0.4345703, 0.6430664, -1.2553711, 144.3292694, 154.4512177, 55.6097565, -0.0417945
-0.4189453, 0.6791992, -1.3178711, 145.9756165, 153.5975647, 56.2804909, -0.0357519
-0.4189453, 0.6928711, -1.3310547, 146.5853729, 153.0487823, 55.2439041, -0.0344091
-0.4306641, 0.6958008, -1.3227539, 145.7317047, 153.4756165, 54.3902435, -0.0350805
-0.4379883, 0.6894531, -1.3041992, 144.0853729, 154.8170776, 53.841465, -0.0323949
-0.4335938, 0.6850586, -1.265625, 145.36586, 155.5487823, 55.18293, -0.0317235
-0.4199219, 0.6850586, -1.2495117, 146.4634247, 155.5487823, 56.0975609, -0.027863
-0.3735352, 0.6801758, -1.2460938, 148.8414612, 155.36586, 56.7073174, -0.0285344
-0.3291016, 0.684082, -1.293457, 149.2682953, 156.2195129, 57.0731735, -0.0265202
-0.3100586, 0.6928711, -1.3256836, 149.2073212, 158.8414612, 57.7439041, -0.0250095
-0.2802734, 0.7241211, -1.3798828, 148.5365906, 160.7317047, 58.4756126, -0.0216526
-0.2680664, 0.7392578, -1.3911133, 145.7317047, 164.4512177, 59.2073174, -0.0203098
-0.2612305, 0.7329102, -1.3955078, 143.5365906, 166.646347, 58.1707344, -0.0149386
-0.2749023, 0.7133789, -1.3837891, 138.6585388, 170.0609741, 53.7804909, -0.0149386
-0.3212891, 0.6791992, -1.3232422, 136.7073212, 171.5853729, 52.5, -0.0166171
-0.3388672, 0.6650391, -1.2939453, 136.4634247, 172.6829376, 51.8292694, -0.0162814
-0.3374023, 0.6484375, -1.2626953, 139.6341553, 171.646347, 54.2682953, -0.017792
-0.315918, 0.6342773, -1.2636719, 141.5853729, 171.0975647, 55.6707344, -0.0196384
-0.2666016, 0.6181641, -1.2675781, 144.0243988, 170.7926941, 56.4024391, -0.0253452
-0.2250977, 0.6083984, -1.2646484, 144.5121918, 171.7073212, 56.2804909, -0.0287022
-0.2094727, 0.5966797, -1.269043, 144.2073212, 174.8780518, 55.4878044, -0.0323949
-0.1958008, 0.5703125, -1.2919922, 144.7561035, 176.8902435, 55.7926826, -0.0342412
-0.1904297, 0.5546875, -1.3139648, 145.5487823, 180.7926941, 56.5243912, -0.0292058
-0.1914062, 0.5385742, -1.347168, 145.7926788, 182.1951294, 56.7073174, -0.0204776
-0.2006836, 0.5356445, -1.3544922, 146.7073212, 183.5975647, 55.9146347, -0.0166171
-0.234375, 0.5371094, -1.3237305, 146.7682953, 183.1707306, 55, -0.0199741
-0.2470703, 0.5385742, -1.3027344, 147.6219482, 180.6707306, 54.2073174, -0.0209812
-0.2475586, 0.527832, -1.2768555, 150.1219482, 177.5, 55.3658562, -0.023331
-0.2353516, 0.5205078, -1.2871094, 151.8902435, 176.4634247, 56.4634171, -0.0260166
-0.1865234, 0.5224609, -1.3544922, 155.1219482, 175.9146423, 59.2073174, -0.0287022
-0.1269531, 0.550293, -1.4165039, 155.9146423, 175.8536682, 60.3048782, -0.0276951
-0.1064453, 0.5610352, -1.4199219, 154.2073212, 176.3414612, 59.5731735, -0.0287022
-0.0888672, 0.5664062, -1.3691406, 152.0121918, 176.7682953, 57.6219521, -0.0310521
-0.0957031, 0.5454102, -1.3305664, 147.6829376, 177.3170776, 52.6829262, -0.0317235
-0.109375, 0.4960938, -1.2568359, 146.646347, 177.5, 51.341465, -0.0330663
-0.1025391, 0.4672852, -1.2324219, 147.2561035, 178.2317047, 50.5487823, -0.0323949
-0.0717773, 0.4282227, -1.2104492, 148.4756165, 178.5365906, 51.1585388, -0.0330663
-0.0463867, 0.4160156, -1.2119141, 150.5487823, 178.4146423, 50.4268303, -0.0357519
-0.0083008, 0.4135742, -1.215332, 150.7926788, 178.3536682, 49.0243912, -0.0354162
0.0014648, 0.4311523, -1.2241211, 150.6707306, 178.7195129, 48.7804871, -0.0364233
0.0175781, 0.4707031, -1.2246094, 150.8536682, 180.1829376, 49.8170738, -0.0344091
0.0532227, 0.4775391, -1.2373047, 150.3048859, 181.4024506, 49.6951218, -0.0381018
0.0629883, 0.4584961, -1.2353516, 147.9268341, 184.512207, 47.6219521, -0.0404517
0.0639648, 0.3916016, -1.21875, 145.7926788, 186.4024506, 45.6097565, -0.0421302
0.050293, 0.3520508, -1.2128906, 143.9634247, 188.6585388, 42.1951218, -0.0397803
0.0102539, 0.2978516, -1.2265625, 143.5365906, 189.146347, 41.2195129, -0.0384375
-0.0117188, 0.2939453, -1.2416992, 145.4878082, 188.4146423, 40.4878044, -0.0394446
-0.0507812, 0.3256836, -1.262207, 146.4024353, 186.8902435, 40.3048782, -0.0421302
-0.0625, 0.355957, -1.2480469, 147.1341553, 182.5, 40.4878044, -0.0397803
-0.0541992, 0.4042969, -1.1865234, 146.5243988, 176.1585388, 39.6341476, -0.0327306
-0.0410156, 0.4047852, -1.1601562, 146.2195129, 173.5975647, 39.2682953, -0.0317235
0.0209961, 0.3676758, -1.144043, 146.5243988, 171.8292694, 39.5731735, -0.0313878
0.0859375, 0.3178711, -1.1508789, 146.4024353, 173.0487823, 39.3902435, -0.0290379
0.1123047, 0.2900391, -1.1601562, 146.0975647, 176.5853729, 37.3170738, -0.0290379
0.1176758, 0.2392578, -1.1767578, 145.7926788, 177.86586, 34.8780479, -0.0297093
0.0864258, 0.2246094, -1.1767578, 146.3414612, 178.3536682, 29.7560978, -0.0327306
0.0136719, 0.2299805, -1.1572266, 147.3170776, 177.0121918, 28.1707325, -0.033402
-0.0214844, 0.2480469, -1.1376953, 150.5487823, 171.8292694, 25.7317085, -0.0342412
-0.0693359, 0.2783203, -1.0932617, 151.8902435, 168.6585388, 25.060976, -0.0350805
-0.0761719, 0.2783203, -1.0805664, 153.6585388, 162.3170776, 25.2439022, -0.0364233
-0.0424805, 0.2617188, -1.0522461, 155.1829376, 157.86586, 26.5853672, -0.0377661
-0.0092773, 0.2353516, -1.0410156, 155.7317047, 156.646347, 26.7073174, -0.0397803
0.0561523, 0.1787109, -1.0380859, 156.4024353, 155.5487823, 25.7317085, -0.0374304
0.0874023, 0.1411133, -1.0688477, 156.5243988, 155.7926941, 24.3902435, -0.0327306
0.0756836, 0.1333008, -1.0957031, 157.4390259, 157.1951294, 22.3780499, -0.0303807
0.0375977, 0.1669922, -1.1660156, 158.0487823, 157.4390259, 21.7073174, -0.0310521
0.015625, 0.1894531, -1.1923828, 158.7195129, 156.0365906, 20.1219521, -0.027863
-0.0249023, 0.2583008, -1.1518555, 157.7439117, 153.5975647, 18.9634151, -0.0260166
-0.0415039, 0.284668, -1.0932617, 155.2439117, 147.7439117, 14.8780489, -0.0273594
-0.0576172, 0.2817383, -0.9506836, 153.5365906, 144.8780518, 12.8048782, -0.0250095
-0.0488281, 0.2524414, -0.8964844, 152.7439117, 140.6707306, 12.4390249, -0.0226596
0.0185547, 0.1542969, -0.8623047, 154.2073212, 142.1951294, 15.8536587, -0.018967
0.0703125, 0.1040039, -0.8798828, 155.1219482, 145.0609741, 17.8048782, -0.012253
0.1508789, 0.0302734, -0.925293, 155.8536682, 152.3170776, 17.9268303, -0.0117494
0.1606445, 0.0185547, -0.9375, 155.4878082, 155.5487823, 16.4634151, -0.0129244
0.1411133, 0.0288086, -0.9243164, 153.0487823, 158.9024353, 12.4390249, -0.0062104
0.0898438, 0.0498047, -0.8642578, 151.7073212, 159.0243988, 10.4878054, -0.005539
0.0664062, 0.0571289, -0.8413086, 151.5243988, 158.2317047, 8.9634151, -0.0104067
0.0444336, 0.0473633, -0.8486328, 152.5, 157.9268341, 9.2682924, -0.0095674
0.0375977, 0.0483398, -0.8808594, 155.4878082, 157.5609741, 13.1097565, -0.0102388
0.0620117, 0.0498047, -0.9692383, 156.2804871, 157.1341553, 15.3658543, -0.0095674
0.0791016, 0.0488281, -1.0004883, 154.8780518, 157.0731812, 17.8658543, -0.0082246
0.1044922, 0.0205078, -1.019043, 149.8780518, 156.9512177, 15.9756098, -0.008896
0.1040039, 0.0024414, -0.9951172, 146.7682953, 156.7073212, 13.2926836, -0.0109102
0.059082, -0.0327148, -0.8979492, 143.5975647, 155.5487823, 8.1707315, -0.0112459
0.0043945, -0.0439453, -0.7949219, 143.8414612, 154.0243988, 7.4390244, -0.0117494
-0.0102539, -0.0449219, -0.7641602, 148.4146423, 149.146347, 9.2682924, -0.0135958
0.0146484, -0.0449219, -0.7866211, 151.7682953, 146.2195129, 11.6463413, -0.0135958
0.0424805, -0.0478516, -0.8398438, 158.1707306, 141.4634247, 16.8902435, -0.0102388
0.0986328, -0.0517578, -0.9619141, 160, 139.8170776, 18.8414631, -0.0097353
0.1103516, -0.0439453, -1.0043945, 159.2682953, 138.4146423, 20.3658543, -0.0102388
0.1181641, -0.0161133, -1.0058594, 157.1341553, 138.0487823, 19.6951218, -0.0102388
0.1040039, -0.0048828, -0.9633789, 150, 136.2804871, 15.9756098, -0.0142672
0.0537109, 0.0170898, -0.8154297, 144.3292694, 132.9878082, 12.4390249, -0.0166171
0.0283203, 0.0209961, -0.7387695, 143.1707306, 131.0365906, 12.3780489, -0.0169528
0.0302734, 0.019043, -0.6464844, 144.6951294, 127.86586, 15.6707325, -0.0209812
0.1074219, 0.0087891, -0.6704102, 146.646347, 126.3414688, 18.6585369, -0.0209812
0.1621094, -0.0009766, -0.7167969, 148.5975647, 125.0609818, 23.9634151, -0.0203098
0.2719727, -0.0283203, -0.8256836, 148.5975647, 125.0609818, 25.1829281, -0.0162814
0.3061523, -0.0463867, -0.8608398, 144.9390259, 126.0365906, 23.1097565, -0.0162814
0.3256836, -0.0654297, -0.8374023, 141.7682953, 126.4024429, 20, -0.0172885
0.2978516, -0.0625, -0.7871094, 134.4512177, 125.2439041, 11.7682934, -0.0216526
0.2133789, -0.0449219, -0.6391602, 131.3414612, 123.4756088, 8.5975609, -0.0199741
0.1713867, -0.0463867, -0.5791016, 129.2073212, 119.3902435, 6.280488, -0.0203098
0.1333008, -0.0458984, -0.5390625, 132.2561035, 115.8536606, 9.9390249, -0.0209812
0.1445312, -0.0571289, -0.5683594, 134.6951294, 114.6341476, 12.8048782, -0.0162814
0.1806641, -0.090332, -0.6762695, 138.7195129, 112.1341476, 17.1951218, -0.0176242
0.2138672, -0.1069336, -0.765625, 138.6585388, 110.2439041, 17.7439022, -0.0216526
0.2172852, -0.109375, -0.7753906, 135.4268341, 104.3902435, 15.9146347, -0.0209812
0.1923828, -0.0874023, -0.7045898, 132.3170776, 100.1219559, 14.1463413, -0.0196384
0.1699219, -0.0634766, -0.640625, 126.7073212, 90.9146347, 10.4878054, -0.018967
0.1328125, -0.0170898, -0.5126953, 124.6341476, 86.8902435, 9.8170738, -0.0199741
0.1337891, -0.0043945, -0.4750977, 123.6585388, 81.8292694, 12.1341467, -0.0182956
0.1665039, -0.0068359, -0.4658203, 125.7926865, 81.5243912, 17.9878044, -0.0182956
0.1992188, -0.0112305, -0.4848633, 126.0365906, 82.7439041, 20.7926826, -0.0169528
0.2885742, -0.0351562, -0.5195312, 121.5853653, 84.146347, 23.6585369, -0.0176242
0.3251953, -0.0498047, -0.5117188, 116.9512253, 84.146347, 23.1707325, -0.0209812
0.3891602, -0.0820312, -0.465332, 106.4024429, 83.6585388, 18.9634151, -0.0229953
0.4018555, -0.1201172, -0.3974609, 102.1951218, 83.3536606, 16.5853653, -0.0209812
0.3974609, -0.1333008, -0.3803711, 99.3902435, 83.2926865, 13.1097565, -0.0203098
0.3837891, -0.1401367, -0.3862305, 99.7561035, 82.9878082, 12.1951218, -0.0149386
0.3798828, -0.1303711, -0.3930664, 100.9756088, 82.0731735, 11.6463413, -0.0062104
0.3696289, -0.1079102, -0.3896484, 99.8780518, 81.1585388, 10.7926836, -0.0041962
0.3652344, -0.1025391, -0.3710938, 93.2926865, 78.1097565, 7.7439027, -0.0052033
0.3408203, -0.1015625, -0.3115234, 85.8536606, 75.6097565, 4.1463413, -0.0035248
0.3378906, -0.1166992, -0.2734375, 82.7439041, 74.5121994, 3.2926829, -0.0001678
0.3354492, -0.1650391, -0.2055664, 79.6951218, 73.5365906, 2.8658538, 0.0025177
0.3579102, -0.2197266, -0.1811523, 79.3292694, 73.2926865, 2.804878, -0.0003357
0.3745117, -0.2451172, -0.1796875, 80.2439041, 72.3780518, 2.7439024, -0.0065461
0.394043, -0.2763672, -0.1870117, 81.0975647, 71.5243912, 2.7439024, -0.0179599
0.3979492, -0.2792969, -0.1933594, 82.1951218, 68.7195129, 3.1097562, -0.0297093
0.3969727, -0.2714844, -0.2104492, 82.1951218, 67.3780518, 3.5365853, -0.0340734
0.3886719, -0.2607422, -0.2182617, 81.7073212, 65.3048782, 5.0609756, -0.040116
0.3803711, -0.2324219, -0.2275391, 80.8536606, 65.4268341, 6.0365853, -0.0377661
0.3745117, -0.2163086, -0.2290039, 78.1707306, 65.9756088, 6.6463418, -0.0317235
0.3618164, -0.1796875, -0.2280273, 74.8170776, 64.5121994, 5.8536587, -0.0276951
0.3530273, -0.1650391, -0.2192383, 72.8658524, 62.6219521, 5.4878049, -0.0229953
0.3447266, -0.1508789, -0.2099609, 69.6951218, 56.8902435, 4.9390244, -0.0182956
0.3623047, -0.1513672, -0.1860352, 68.1707306, 54.0243912, 4.9390244, -0.01561
0.3818359, -0.1591797, -0.171875, 65, 49.6341476, 4.0853658, -0.0159457
0.4086914, -0.1826172, -0.1455078, 63.4756126, 48.0487823, 3.3536587, -0.0172885
0.4169922, -0.1982422, -0.1386719, 60.5487823, 45.9146347, 2.3780489, -0.0139315
0.4375, -0.2163086, -0.1455078, 59.0243912, 45.1829262, 2.3170731, -0.0124208
0.4516602, -0.2163086, -0.1523438, 57.2560997, 44.0853653, 3.4146342, -0.0203098
0.4775391, -0.2016602, -0.1704102, 55.9756126, 43.5975609, 4.0853658, -0.0243381
0.4975586, -0.1884766, -0.1713867, 50.9146347, 41.2804871, 3.2926829, -0.0276951
0.5175781, -0.1616211, -0.1635742, 43.9634171, 38.841465, 0.0609756, -0.0325628
0.519043, -0.1508789, -0.1591797, 41.0365868, 37.3780479, -1.3414634, -0.0360876
0.5195312, -0.1396484, -0.1508789, 35.7317085, 36.4024391, -3.5975611, -0.0412909
0.5185547, -0.1347656, -0.1494141, 33.3536606, 35.6097565, -4.390244, -0.0471656
0.515625, -0.1328125, -0.1469727, 27.6829281, 34.8170738, -5.9146342, -0.0475013
0.5107422, -0.1611328, -0.1201172, 24.5731716, 34.0853653, -6.8292685, -0.0485084
0.5097656, -0.1850586, -0.1054688, 18.4146347, 31.7073174, -9.3902445, -0.0495155
0.4951172, -0.2338867, -0.0751953, 16.0365849, 29.8780499, -10.6707315, -0.0501869
0.4833984, -0.2504883, -0.0722656, 13.7195129, 26.3414631, -12.0121956, -0.0505226
0.4663086, -0.2514648, -0.0908203, 13.9634151, 24.5121956, -11.7073174, -0.0464942
0.4614258, -0.2304688, -0.109375, 12.560976, 21.2195129, -9.3292685, -0.0461585
0.4677734, -0.1958008, -0.1450195, 9.3292685, 18.5975609, -7.4390244, -0.04448
0.4765625, -0.1855469, -0.1552734, 6.5853658, 17.3780499, -7.5, -0.04448
0.4848633, -0.1894531, -0.1679688, 0.8536586, 14.4512196, -8.841464, -0.0391089
0.4750977, -0.2060547, -0.1489258, -2.0121951, 12.8048782, -10.1219511, -0.0377661
0.4677734, -0.2089844, -0.1308594, -6.5243902, 8.2926826, -12.0731707, -0.0379339
0.4584961, -0.2167969, -0.1020508, -8.2317076, 5.8536587, -12.3780489, -0.0364233
0.4628906, -0.2216797, -0.0864258, -12.0731707, 0.8536586, -13.1707315, -0.0340734
0.487793, -0.2241211, -0.0600586, -13.841464, -1.7073171, -13.1707315, -0.0323949
0.5068359, -0.2265625, -0.0458984, -16.8902435, -5.2439027, -12.8048782, -0.0323949
0.5517578, -0.2426758, -0.0336914, -18.9634151, -6.5853658, -12.560976, -0.0320592
0.5688477, -0.246582, -0.034668, -21.8292694, -7.5609756, -12.9268293, -0.0313878
0.5913086, -0.2441406, -0.0541992, -24.6341476, -8.3536587, -13.9024391, -0.0340734
0.597168, -0.2392578, -0.0649414, -26.7682934, -8.841464, -14.5731707, -0.0347448
0.6049805, -0.2299805, -0.0693359, -31.5243912, -10.060976, -16.3414631, -0.0357519
0.6030273, -0.222168, -0.0527344, -34.5731697, -11.0975609, -17.6829281, -0.0303807
0.6015625, -0.2226562, -0.0322266, -40.4268303, -12.3780489, -20.5487804, -0.0250095
0.5957031, -0.2241211, 0.0073242, -42.6829262, -12.8658543, -21.8902435, -0.0213169
0.5957031, -0.2275391, 0.0180664, -45.7926826, -13.4146347, -24.1463413, -0.0196384
0.5830078, -0.2392578, -0.0083008, -46.8292694, -14.0243902, -24.9390259, -0.0146029
0.5756836, -0.2402344, -0.0371094, -47.6219521, -15.1219511, -24.6341476, -0.0139315
0.5629883, -0.2446289, -0.121582, -48.5975609, -15.8536587, -23.5975609, -0.0115816
0.559082, -0.25, -0.1625977, -53.2317085, -17.0121956, -21.5853672, -0.0095674
0.543457, -0.265625, -0.2167969, -60.2439041, -19.5121956, -21.4634151, -0.0109102
0.5336914, -0.2758789, -0.2211914, -64.2682953, -21.9512196, -22.3170738, -0.0062104
0.5019531, -0.2978516, -0.1782227, -70.9756088, -28.5365868, -24.5731716, -0.0062104
0.4760742, -0.3120117, -0.1088867, -73.1707306, -32.6219521, -25.9146347, -0.0015106
0.4672852, -0.3144531, -0.0820312, -74.5121994, -40.6707344, -27.1341476, -0.0010071
0.4716797, -0.3081055, -0.0698242, -73.5975647, -44.0243912, -27.1951218, 0.0041962
0.4814453, -0.3007812, -0.078125, -71.4634171, -48.5975609, -26.3414631, 0.011078
0.5019531, -0.2763672, -0.121582, -70.8536606, -50.1829262, -25.9756107, 0.0119173
0.5126953, -0.2558594, -0.1435547, -71.4634171, -53.4146347, -24.5121956, 0.012253
0.5351562, -0.2290039, -0.1801758, -73.2317123, -54.6951218, -24.3292694, 0.0119173
0.5488281, -0.2270508, -0.1811523, -78.4756088, -57.3170738, -24.0853672, 0.0072175
0.5673828, -0.2333984, -0.1689453, -83.3536606, -60, -25.5487804, 0.0016785
0.5698242, -0.2407227, -0.1577148, -85.6707306, -60.7317085, -26.7073174, -0.0041962
0.5693359, -0.2456055, -0.1411133, -88.5975647, -62.8048782, -27.4390259, -0.0102388
0.5644531, -0.2441406, -0.1450195, -89.6951218, -63.7804909, -27.8048782, -0.0176242
0.5698242, -0.2368164, -0.15625, -91.5243912, -66.0365906, -27.7439022, -0.0256809
0.5717773, -0.2329102, -0.2080078, -92.6219559, -66.8292694, -27.8658543, -0.0297093
0.5620117, -0.2260742, -0.2456055, -94.2682953, -68.7195129, -27.9268303, -0.0357519
0.5385742, -0.2143555, -0.3276367, -95.2439041, -70.0609741, -27.6219521, -0.0365911
0.5244141, -0.2060547, -0.3642578, -99.0853653, -72.9268341, -26.8292694, -0.0372625
0.4921875, -0.1962891, -0.4174805, -101.5243912, -74.6951218, -26.8902454, -0.0370947
0.4794922, -0.1958008, -0.4272461, -108.2926865, -80.4268341, -27.7439022, -0.0370947
0.4453125, -0.2246094, -0.4086914, -114.5121994, -88.2317123, -29.9390259, -0.036759
0.4301758, -0.2441406, -0.3833008, -117.0731735, -92.8048782, -31.0975609, -0.0323949
0.4042969, -0.265625, -0.3203125, -118.9634171, -101.8902435, -32.9878044, -0.0325628
0.4003906, -0.2563477, -0.2719727, -118.5365906, -105.7926865, -32.9268303, -0.033402
0.409668, -0.2416992, -0.2641602, -116.5243912, -112.2561035, -31.280489, -0.0310521
0.4423828, -0.2084961, -0.2724609, -115.18293, -114.4512253, -30.5487804, -0.0258488
0.4624023, -0.1923828, -0.2871094, -114.146347, -117.6219559, -29.5121956, -0.0250095
0.5, -0.1694336, -0.3266602, -114.3902435, -118.4146347, -29.0243912, -0.0229953
0.5146484, -0.1582031, -0.3476562, -116.3414688, -119.0853653, -29.0853672, -0.0196384
0.5297852, -0.1479492, -0.3984375, -117.5, -118.9634171, -29.5731716, -0.0176242
0.5317383, -0.1464844, -0.4287109, -120.0609818, -119.2682953, -30.3658543, -0.0193027
0.5239258, -0.1459961, -0.4726562, -122.86586, -119.5731735, -31.6463413, -0.0176242
0.5161133, -0.152832, -0.4799805, -124.4512253, -120.1219559, -33.2317085, -0.0164492
0.4873047, -0.1445312, -0.4677734, -129.6951294, -122.68293, -36.4024391, -0.012253
0.4580078, -0.1381836, -0.4248047, -131.7682953, -124.2682953, -38.2317085, -0.0095674
0.4458008, -0.137207, -0.3964844, -135.5487823, -127.1951218, -40.6707344, -0.008896
0.4438477, -0.1318359, -0.3398438, -136.8292694, -128.0487823, -41.2195129, -0.0072175
0.4541016, -0.1225586, -0.3212891, -137.0121918, -128.0487823, -41.6463432, -0.005539
0.4775391, -0.1132812, -0.3203125, -136.646347, -127.4390259, -41.5853653, -0.0072175
0.4975586, -0.1142578, -0.3374023, -134.2682953, -124.9390259, -41.2195129, -0.0068818
0.5249023, -0.1313477, -0.3999023, -132.6829224, -123.4146347, -41.0365868, -0.0102388
0.5351562, -0.1333008, -0.4384766, -131.2195129, -120.6097565, -41.0975609, -0.0149386
0.5224609, -0.1323242, -0.5126953, -132.4390259, -119.9390259, -42.2560997, -0.0176242
0.5092773, -0.1245117, -0.5473633, -134.2073212, -119.8780518, -43.2926826, -0.0171206
0.4736328, -0.0869141, -0.5927734, -137.7439117, -121.0365906, -45.2439041, -0.0169528
0.4243164, -0.0429688, -0.6015625, -140.36586, -121.2804871, -46.4024391, -0.0216526
0.3935547, -0.0244141, -0.6054688, -145.36586, -120.4268341, -48.4146347, -0.0219883
0.3398438, -0.0126953, -0.6035156, -147.6219482, -119.7561035, -49.2073174, -0.0243381
0.3183594, -0.0126953, -0.6049805, -151.4024353, -118.6585388, -49.3292694, -0.0218204
0.284668, -0.0253906, -0.6191406, -152.3170776, -118.5365906, -48.4146347, -0.0213169
0.2807617, -0.0361328, -0.6303711, -152.6219482, -119.9390259, -44.5731735, -0.0229953
0.2763672, -0.0576172, -0.6577148, -152.6829376, -121.1585388, -42.0731735, -0.0223239
0.284668, -0.0732422, -0.6767578, -152.4390259, -125.1219559, -36.7073174, -0.0206455
0.3007812, -0.105957, -0.7314453, -151.4634247, -129.146347, -33.5975609, -0.0176242
0.3056641, -0.1220703, -0.7504883, -150.6097565, -130.9756165, -33.2317085, -0.0149386
0.3046875, -0.1479492, -0.8081055, -149.3292694, -135.9146423, -35.3048782, -0.0078889
0.2836914, -0.1513672, -0.8632812, -149.146347, -138.8414612, -36.9512215, -0.0041962
0.2617188, -0.1401367, -0.8862305, -149.2682953, -145.3048859, -40, -0.0035248
0.2177734, -0.1069336, -0.9296875, -149.3902435, -148.6585388, -41.1585388, -0.0008392
0.199707, -0.0820312, -0.9453125, -149.5121918, -155.8536682, -41.5243912, 0.0011749
0.1831055, -0.0273438, -0.96875, -149.6341553, -159.7561035, -40.4878044, 0.002182
0.1870117, -0.0004883, -0.9682617, -149.4512177, -167.86586, -38.6585388, 0.0035248
0.2060547, 0.0400391, -0.9501953, -149.6341553, -171.7073212, -37.5, -0.0008392
0.222168, 0.0566406, -0.9311523, -150.4268341, -178.9024506, -37.7439041, -0.0028534
0.2558594, 0.074707, -0.8618164, -150.4268341, -182.9268341, -39.7560997, -0.0048676
0.2773438, 0.0854492, -0.8154297, -150.4878082, -183.5975647, -41.0975609, -0.0072175
0.3305664, 0.0830078, -0.715332, -149.3292694, -182.9878082, -43.9024391, -0.0099031
0.3818359, 0.0849609, -0.6235352, -148.6585388, -181.3414612, -45.2439041, -0.0142672
0.4047852, 0.0722656, -0.5947266, -145.6707306, -177.2561035, -46.5243912, -0.01561
0.4501953, 0.0537109, -0.5830078, -143.9634247, -174.4512177, -46.4634171, -0.01561
0.472168, 0.0415039, -0.6083984, -140.4878082, -168.0487823, -44.9390259, -0.0179599
0.5073242, 0.0366211, -0.6953125, -138.7195129, -164.5731812, -43.9634171, -0.0216526
0.5131836, 0.0463867, -0.7529297, -136.3414612, -158.0487823, -41.7682953, -0.0229953
0.5014648, 0.0874023, -0.8383789, -135.7926788, -154.7561035, -41.0975609, -0.0283665
0.4887695, 0.1152344, -0.8574219, -138.4146423, -148.4146423, -42.2560997, -0.0313878
0.4316406, 0.1679688, -0.8505859, -144.3902435, -142.9878082, -45.3048782, -0.0318914
0.3999023, 0.1782227, -0.8276367, -147.5, -140.7926788, -47.5609779, -0.0323949
0.3266602, 0.1533203, -0.7783203, -152.0121918, -136.646347, -51.2804909, -0.0290379
0.2529297, 0.0751953, -0.7983398, -151.5853729, -135.3048859, -52.5, -0.0288701
0.2158203, 0.0317383, -0.8374023, -145.6097565, -134.4512177, -52.8658562, -0.0290379
0.1430664, -0.0239258, -0.953125, -140.9756165, -135.9146423, -52.0731735, -0.0270237
0.1171875, -0.0336914, -1.0102539, -132.8048859, -141.7682953, -49.5731735, -0.0350805
0.0732422, -0.0219727, -1.0825195, -130.1829224, -146.4024353, -48.4146347, -0.0364233
0.0532227, 0.0004883, -1.0839844, -129.2073212, -156.9512177, -47.4390259, -0.036759
0.034668, 0.0395508, -1.0166016, -130.6707306, -161.5853729, -47.5, -0.0377661
0.0332031, 0.0537109, -0.9658203, -134.3902435, -168.8414612, -47.3780518, -0.0360876
0.0498047, 0.059082, -0.8657227, -134.4512177, -171.5243988, -45.7317085, -0.0313878
0.0703125, 0.059082, -0.8422852, -131.5243988, -171.8292694, -43.9024391, -0.0330663
0.1298828, 0.0649414, -0.8647461, -122.1951218, -173.0487823, -38.9024391, -0.0303807
0.1958008, 0.1083984, -0.972168, -117.1951218, -174.2073212, -36.4024391, -0.0273594
0.2255859, 0.1455078, -1.0297852, -110.9146347, -177.0121918, -32.6219521, -0.0196384
0.277832, 0.2407227, -1.0996094, -110.8536606, -177.9268341, -31.8292694, -0.0139315
0.2866211, 0.2885742, -1.1044922, -116.2804871, -177.3170776, -32.9878044, -0.0068818
0.3027344, 0.3491211, -1.0581055, -121.5243912, -175.9756165, -34.6341476, -0.0015106
0.2978516, 0.3583984, -1.0092773, -133.4756165, -169.8780518, -38.4146347, 0.0005035
0.28125, 0.3286133, -0.90625, -141.8292694, -162.0731812, -41.0975609, 0.0052033
0.2729492, 0.2915039, -0.8681641, -144.2073212, -158.2926941, -41.5243912, 0.0058747
0.2558594, 0.2099609, -0.8515625, -143.1097565, -152.0121918, -41.2804871, 0.0099031
0.2392578, 0.1518555, -0.90625, -140.9756165, -149.8780518, -40.2439041, 0.0132601
0.2304688, 0.1367188, -0.9404297, -136.1585388, -149.6951294, -38.4146347, 0.0078889
0.199707, 0.1474609, -0.9995117, -134.4512177, -151.2195129, -37.8048782, 0.0070497
0.1796875, 0.1586914, -1.0200195, -134.0853729, -154.3902435, -38.2317085, -0.0008392
0.1328125, 0.1826172, -1.0400391, -134.8780518, -155.5487823, -38.9634171, -0.0082246
0.1054688, 0.1899414, -1.0258789, -138.0487823, -156.0365906, -41.0365868, -0.0125887
0.0629883, 0.2006836, -0.9604492, -139.5731812, -155.5487823, -42.0121956, -0.0176242
0.0429688, 0.1962891, -0.9296875, -141.2804871, -154.0853729, -43.9024391, -0.0209812
-0.0136719, 0.1762695, -0.9321289, -138.7195129, -153.3536682, -43.1097565, -0.0240024
-0.0302734, 0.1708984, -0.9677734, -135, -154.2682953, -41.0975609, -0.0270237
-0.0302734, 0.175293, -1.0644531, -124.3902435, -158.7804871, -35.6097565, -0.0303807
-0.0078125, 0.2358398, -1.1289062, -120.3048782, -162.3170776, -33.1097565, -0.0330663
0.0058594, 0.277832, -1.1220703, -116.9512253, -170.0609741, -32.7439041, -0.0323949
0.0151367, 0.3500977, -1.0400391, -119.146347, -172.8048859, -34.5121956, -0.0303807
0.0180664, 0.3613281, -0.9692383, -126.3414688, -173.4756165, -39.0243912, -0.0310521
0.0351562, 0.3276367, -0.8388672, -129.5121918, -171.7073212, -40.2439041, -0.0310521
0.0424805, 0.2895508, -0.8041992, -130.9756165, -166.0365906, -38.7804871, -0.0283665
0.0874023, 0.2148438, -0.8408203, -128.4146423, -163.2317047, -36.1585388, -0.0297093
0.1108398, 0.1928711, -0.894043, -120, -159.146347, -29.8170738, -0.0325628
0.1357422, 0.2050781, -1.065918, -112.1951218, -159.0243988, -25.6097565, -0.0381018
0.1396484, 0.2382812, -1.1547852, -110.4878082, -159.8170776, -25, -0.0391089
0.1079102, 0.3359375, -1.2792969, -114.3292694, -162.4390259, -26.8902454, -0.0397803
0.0395508, 0.4331055, -1.2832031, -119.2682953, -164.146347, -29.2073174, -0.0406195
-0.0029297, 0.4663086, -1.2436523, -131.646347, -165.0609741, -35.6097565, -0.0404517
-0.0898438, 0.4941406, -1.1220703, -137.0121918, -164.8780518, -38.4756088, -0.0421302
-0.1289062, 0.4941406, -1.0639648, -142.9268341, -163.0487823, -43.0487823, -0.0404517
-0.1806641, 0.4648438, -0.987793, -143.0487823, -162.4390259, -43.7804871, -0.0404517
-0.1870117, 0.4418945, -0.9838867, -136.646347, -163.1097565, -41.341465, -0.0370947
-0.1650391, 0.4072266, -1.03125, -132.1341553, -164.6951294, -38.9634171, -0.0317235
-0.1425781, 0.4038086, -1.0708008, -124.6951218, -169.5731812, -34.3902435, -0.0287022
-0.0961914, 0.4082031, -1.1484375, -122.5, -175.1829376, -32.5, -0.0260166
-0.0712891, 0.4116211, -1.1762695, -123.5365906, -176.4634247, -32.2560997, -0.0213169
-0.0512695, 0.4238281, -1.1777344, -128.7804871, -176.1585388, -33.4146347, -0.0179599
-0.0654297, 0.4267578, -1.1210938, -132.1341553, -174.4512177, -34.6341476, -0.0157778
-0.0830078, 0.4238281, -1.0952148, -137.86586, -169.7561035, -37.0731697, -0.0179599
-0.1259766, 0.4140625, -1.065918, -138.7195129, -167.4390259, -37.6219521, -0.0166171
-0.1538086, 0.4052734, -1.0595703, -136.8292694, -165.4878082, -37.0731697, -0.0157778
-0.184082, 0.4052734, -1.043457, -134.146347, -166.0975647, -36.2804871, -0.0169528
-0.1938477, 0.4106445, -1.03125, -129.6341553, -169.8170776, -35.7926826, -0.0137636
-0.2138672, 0.4204102, -1.003418, -128.0487823, -172.3780518, -36.0365868, -0.012253
-0.2241211, 0.4165039, -1.0024414, -126.0365906, -176.1585388, -36.9512215, -0.0115816
-0.2358398, 0.4116211, -1.034668, -123.4756088, -176.8902435, -36.0975609, -0.012253
-0.2407227, 0.4106445, -1.0585938, -121.3414688, -176.4024506, -35.2439041, -0.0129244
-0.2514648, 0.4355469, -1.0996094, -117.3170776, -175.1219482, -32.0731697, -0.012253
-0.2631836, 0.5009766, -1.1108398, -116.5243912, -175.1829376, -30.6097565, -0.0099031
-0.2617188, 0.5410156, -1.0957031, -117.3780518, -174.7561035, -28.780489, -0.014435
-0.2504883, 0.6049805, -1.0449219, -119.4512253, -174.9390259, -28.2926826, -0.0115816
-0.2368164, 0.6162109, -1.0112305, -124.0243912, -172.9268341, -27.8048782, -0.0105745
-0.1928711, 0.6196289, -0.9643555, -126.3414688, -170.8536682, -27.6829281, -0.0102388
-0.1650391, 0.6044922, -0.9501953, -128.9024353, -165.3048859, -27.1341476, -0.008896
-0.1220703, 0.5556641, -0.9584961, -129.3292694, -162.3780518, -26.7682934, -0.0095674
-0.1123047, 0.5273438, -0.9829102, -129.2073212, -156.5243988, -27.2560978, -0.0095674
-0.1240234, 0.4824219, -1.0424805, -129.8170776, -152.5, -28.841465, -0.0068818
-0.1420898, 0.46875, -1.0649414, -130.9146423, -151.2195129, -30.3048782, -0.0015106
-0.2133789, 0.4633789, -1.0771484, -134.0853729, -150.6097565, -33.9634171, -0.0001678
-0.3056641, 0.4697266, -1.0185547, -135.6707306, -151.0365906, -36.0365868, -0.0008392
-0.3500977, 0.4716797, -0.980957, -136.5853729, -153.5365906, -38.7195129, -0.0010071
-0.4189453, 0.4775391, -0.9282227, -135.4268341, -154.8170776, -38.7195129, -0.002182
-0.4428711, 0.4741211, -0.9321289, -128.5975647, -158.4756165, -36.0365868, -0.0041962
-0.4575195, 0.4580078, -1.0107422, -123.3536606, -160.4878082, -33.9634171, -0.0048676
-0.456543, 0.4482422, -1.0712891, -112.5609818, -165.4878082, -29.9390259, -0.0057069
-0.4501953, 0.4516602, -1.1699219, -108.2317123, -168.7195129, -28.4756107, -0.0105745
-0.449707, 0.4624023, -1.1914062, -102.8658524, -175.4268341, -28.4756107, -0.0129244
-0.4692383, 0.4912109, -1.1757812, -102.0121994, -183.0487823, -30.7317085, -0.0169528
-0.4829102, 0.5136719, -1.1367188, -102.68293, -186.3414612, -31.9512196, -0.018967
-0.5078125, 0.5454102, -1.0424805, -101.5243912, -191.3414612, -32.9878044, -0.0240024
-0.4897461, 0.5673828, -0.9985352, -99.5731735, -193.0487823, -32.9268303, -0.0236667
-0.4731445, 0.5791016, -1.0058594, -92.8658524, -194.146347, -30.4268303, -0.024506
-0.4370117, 0.6254883, -1.0766602, -88.8414688, -194.7561035, -29.0853672, -0.0260166
-0.4169922, 0.6582031, -1.1152344, -82.68293, -195.9146423, -26.5243912, -0.0263523
-0.3862305, 0.746582, -1.144043, -82.0121994, -196.5243988, -25.6097565, -0.0310521
-0.3647461, 0.7910156, -1.1210938, -85.7926865, -196.2804871, -26.5853672, -0.0350805
-0.3452148, 0.8662109, -1.0195312, -89.6341476, -194.8780518, -27.8658543, -0.0317235
-0.3344727, 0.8808594, -0.9584961, -99.5121994, -187.6829376, -31.2195129, -0.0350805
-0.3115234, 0.8657227, -0.8554688, -107.7439041, -175, -34.0243912, -0.0364233
-0.300293, 0.8305664, -0.8300781, -110.3048782, -167.7439117, -34.3902435, -0.0323949
-0.2895508, 0.7426758, -0.8398438, -112.3170776, -152.6219482, -34.5121956, -0.0359197
-0.2958984, 0.6665039, -0.8857422, -113.1097565, -146.2804871, -34.5121956, -0.0377661
-0.315918, 0.6411133, -0.90625, -114.3292694, -136.2804871, -34.3292694, -0.0394446
-0.3764648, 0.6352539, -0.9262695, -115.3048782, -133.0487823, -34.4512215, -0.0407874
-0.4165039, 0.6479492, -0.925293, -117.1951218, -129.3292694, -34.1463432, -0.0394446
-0.4873047, 0.6806641, -0.9125977, -118.0487823, -128.3536682, -33.7804871, -0.0381018
-0.5180664, 0.6884766, -0.9145508, -118.8414688, -125.36586, -32.8658562, -0.0391089
-0.578125, 0.6865234, -0.9399414, -118.7195129, -122.9878082, -32.6219521, -0.0345769
-0.6069336, 0.6816406, -0.9658203, -117.8048782, -118.7804871, -32.0121956, -0.0323949
-0.6586914, 0.6757812, -1.015625, -115.1219559, -116.4634171, -30.6097565, -0.0290379
-0.6816406, 0.6777344, -1.0410156, -113.4146347, -116.3414688, -29.8170738, -0.0287022
-0.7094727, 0.6914062, -1.0683594, -110.36586, -118.6585388, -28.780489, -0.0260166
-0.7280273, 0.7138672, -1.078125, -109.146347, -120.9756088, -28.2926826, -0.0273594
-0.7260742, 0.71875, -1.0761719, -106.9512253, -126.0975647, -28.3536587, -0.0276951
-0.7192383, 0.7158203, -1.065918, -106.0365906, -127.9878082, -28.1707325, -0.0243381
-0.7080078, 0.7084961, -1.0673828, -104.2073212, -130.5487823, -27.4390259, -0.0229953
-0.6762695, 0.6928711, -1.0668945, -103.0487823, -131.3414612, -27.1951218, -0.0256809
-0.6625977, 0.690918, -1.0717773, -102.1951218, -132.5609741, -26.280489, -0.0263523
-0.6386719, 0.6914062, -1.097168, -101.5243912, -133.1097565, -25.6707325, -0.0258488
-0.6303711, 0.6967773, -1.1074219, -100.4268341, -134.6951294, -24.1463413, -0.0263523
-0.6049805, 0.7236328, -1.1230469, -100.0609818, -136.8902435, -23.0487804, -0.0270237
-0.6000977, 0.7353516, -1.1152344, -100.18293, -137.8048859, -22.8658543, -0.0236667
-0.59375, 0.765625, -1.0776367, -101.2195129, -139.0243988, -24.2682934, -0.0231632
-0.6035156, 0.7734375, -1.0063477, -101.8902435, -139.7561035, -25.2439022, -0.023331
-0.6054688, 0.7705078, -0.9638672, -102.8658524, -139.7561035, -26.9512196, -0.0251774
-0.5947266, 0.7661133, -0.8833008, -103.1097565, -139.2682953, -27.560976, -0.0238346
-0.5869141, 0.7539062, -0.8505859, -101.9512253, -137.0731812, -27.8048782, -0.0226596
-0.5551758, 0.7338867, -0.8095703, -101.0365906, -135.2439117, -27.5, -0.0229953
-0.5371094, 0.7226562, -0.7973633, -98.9024429, -130.6707306, -25.6097565, -0.0196384
-0.5092773, 0.7089844, -0.8081055, -98.1097565, -127.9878082, -24.6341476, -0.0162814
-0.5, 0.6967773, -0.8266602, -97.7439041, -121.5243912, -23.4146347, -0.0119173
-0.4990234, 0.6899414, -0.8779297, -97.3780518, -115.4878082, -22.2560978, -0.0135958
-0.5058594, 0.6889648, -0.9077148, -97.4390259, -112.9268341, -21.6463413, -0.0176242
-0.534668, 0.6977539, -0.9511719, -97.8658524, -109.5731735, -21.8902435, -0.0196384
-0.578125, 0.7241211, -0.9462891, -98.7804871, -108.5975647, -22.6219521, -0.0246738
-0.5986328, 0.7338867, -0.9277344, -100.0609818, -107.4390259, -24.6951218, -0.0276951
-0.6333008, 0.7509766, -0.8730469, -100.4268341, -107.3780518, -25.6097565, -0.0261845
-0.6401367, 0.7543945, -0.8408203, -99.9390259, -107.8048782, -26.2195129, -0.0216526
-0.6230469, 0.7495117, -0.7978516, -98.9634171, -108.1097565, -25.4268303, -0.0129244
-0.6044922, 0.7373047, -0.7875977, -96.2804871, -107.68293, -23.4146347, -0.0085603
-0.5581055, 0.7124023, -0.7880859, -95.2439041, -106.5853653, -22.1951218, -0.0105745
-0.5415039, 0.6972656, -0.7993164, -94.2682953, -103.1097565, -21.5853672, -0.0149386
-0.5205078, 0.6679688, -0.8237305, -94.5121994, -97.4390259, -21.0975609, -0.0129244
-0.5253906, 0.6635742, -0.8393555, -95.18293, -94.8170776, -21.5243912, -0.0162814
-0.5473633, 0.6733398, -0.8676758, -96.0365906, -90, -21.7073174, -0.0193027
-0.5795898, 0.6992188, -0.8876953, -96.4634171, -88.3536606, -21.8292694, -0.017792
-0.6010742, 0.7177734, -0.8891602, -96.8292694, -87.7439041, -21.9512196, -0.0149386
-0.6342773, 0.7392578, -0.8876953, -97.0121994, -88.2317123, -22.1341476, -0.012253
-0.6435547, 0.7480469, -0.8876953, -95.9756088, -90.18293, -22.5, -0.0092317
-0.6557617, 0.7514648, -0.9057617, -95.0609741, -91.4024429, -22.6219521, -0.005539
-0.6508789, 0.7441406, -0.9204102, -93.7804871, -93.9024429, -22.3780499, -0.0010071
-0.6430664, 0.7280273, -0.9448242, -93.2926865, -94.8170776, -22.0121956, 0.002182
-0.6386719, 0.7177734, -0.953125, -92.6219559, -97.2561035, -21.5243912, 0.002182
-0.628418, 0.7026367, -0.953125, -93.2926865, -99.0243912, -22.0121956, -0.0015106
-0.6235352, 0.6953125, -0.9389648, -94.2682953, -99.7561035, -22.8048782, -0.012253
-0.6220703, 0.6743164, -0.8876953, -96.3414688, -100.5487823, -23.9024391, -0.0236667
-0.6186523, 0.6606445, -0.8232422, -96.7073212, -100.7926865, -24.4512196, -0.0317235
-0.6162109, 0.6660156, -0.7905273, -96.3414688, -101.5853653, -23.9634151, -0.0404517
-0.6005859, 0.6669922, -0.7338867, -95.3658524, -101.646347, -23.5365868, -0.0464942
-0.5893555, 0.671875, -0.7128906, -93.1097565, -101.5853653, -22.2560978, -0.0515297
-0.5634766, 0.6870117, -0.6801758, -91.9512253, -100.8536606, -21.9512196, -0.0535439
-0.550293, 0.6982422, -0.671875, -91.0365906, -98.7195129, -21.4024391, -0.0547189
-0.5371094, 0.7167969, -0.6713867, -90.9146347, -96.8292694, -20.7926826, -0.0506905
-0.5283203, 0.7241211, -0.6757812, -91.8292694, -92.8048782, -19.939024, -0.0542153
-0.5205078, 0.7407227, -0.7036133, -93.6585388, -87.68293, -19.3902435, -0.0558938
-0.5268555, 0.7480469, -0.7211914, -94.8780518, -85.1219559, -18.8414631, -0.0547189
-0.5375977, 0.7416992, -0.7597656, -97.0121994, -80.9756088, -18.6585369, -0.0552224
-0.5654297, 0.7265625, -0.7919922, -98.2317123, -79.6341476, -18.9024391, -0.0572366
-0.581543, 0.7255859, -0.7998047, -99.8780518, -77.5, -19.8780499, -0.0582437
-0.6201172, 0.71875, -0.7915039, -101.3414688, -77.5, -20.5487804, -0.057908
-0.6318359, 0.7163086, -0.7836914, -102.3170776, -77.9878082, -21.7682934, -0.0491798
-0.6552734, 0.715332, -0.7626953, -102.4390259, -79.0853653, -22.0121956, -0.04448
-0.6586914, 0.7109375, -0.7519531, -102.1341476, -81.4024429, -21.2195129, -0.0407874
-0.652832, 0.6967773, -0.7368164, -101.646347, -82.4390259, -20.2439022, -0.0374304
-0.6450195, 0.6879883, -0.7382812, -100.3048782, -83.9634171, -18.4756107, -0.0374304
-0.6298828, 0.6650391, -0.7416992, -99.5731735, -83.6585388, -18.0487804, -0.0327306
-0.6289062, 0.6586914, -0.7441406, -99.2073212, -83.1097565, -18.3536587, -0.0357519
-0.6376953, 0.6591797, -0.7514648, -98.7195129, -82.0121994, -18.5365849, -0.0357519
-0.6513672, 0.6757812, -0.7568359, -98.5975647, -81.8292694, -18.4146347, -0.0350805
-0.6630859, 0.6875, -0.7578125, -97.6219559, -82.8048782, -17.560976, -0.0283665
-0.6782227, 0.7036133, -0.753418, -97.3780518, -83.9634171, -17.0731716, -0.0243381
-0.6826172, 0.7055664, -0.7490234, -96.8902435, -85.2439041, -16.5243912, -0.024506
-0.6816406, 0.7006836, -0.7280273, -96.7073212, -86.2195129, -16.7073174, -0.0216526
-0.6821289, 0.6943359, -0.7109375, -96.5243912, -87.1341476, -17.2560978, -0.0193027
-0.6855469, 0.6987305, -0.6894531, -95.7317123, -87.0121994, -17.2560978, -0.0135958
-0.6821289, 0.6967773, -0.6816406, -95, -87.1341476, -17.0731716, -0.0132601
-0.6777344, 0.7124023, -0.6806641, -93.7804871, -86.9512253, -15.6707325, -0.0115816
-0.6635742, 0.7329102, -0.6943359, -92.8048782, -86.9512253, -14.6951227, -0.008896
-0.65625, 0.7416992, -0.6992188, -91.8902435, -86.7073212, -13.5975609, -0.0099031
-0.6450195, 0.7495117, -0.7016602, -91.7073212, -86.2195129, -13.3536587, -0.0129244
-0.6411133, 0.7431641, -0.6972656, -92.1951218, -84.8780518, -14.6341467, -0.0149386
-0.6572266, 0.7314453, -0.6767578, -92.68293, -83.9634171, -15.3048782, -0.018967
-0.6630859, 0.7167969, -0.6674805, -93.4146347, -82.3780518, -15.9756098, -0.0216526
-0.6782227, 0.7124023, -0.6445312, -93.4146347, -81.5243912, -16.0975609, -0.0243381
-0.6816406, 0.7075195, -0.6333008, -91.7682953, -80.6097565, -15.8536587, -0.0280308
-0.6884766, 0.71875, -0.6201172, -89.6951218, -80.8536606, -15, -0.026688
-0.6914062, 0.7172852, -0.6137695, -88.5975647, -81.0975647, -14.6951227, -0.0253452
-0.6850586, 0.7280273, -0.5966797, -87.1951218, -80.6707306, -14.3902445, -0.0258488
-0.6708984, 0.7299805, -0.5795898, -86.4024429, -80.3048782, -14.0853662, -0.0283665
-0.6655273, 0.7275391, -0.5668945, -85.3658524, -77.9878082, -14.2682934, -0.0297093
-0.6630859, 0.7236328, -0.5576172, -84.9390259, -76.5243912, -14.1463413, -0.0327306
-0.6640625, 0.7202148, -0.5556641, -83.6585388, -72.6219559, -14.0243902, -0.0323949
-0.6777344, 0.7167969, -0.5561523, -83.2317123, -71.0975647, -13.780488, -0.0310521
-0.6865234, 0.71875, -0.5585938, -81.5243912, -68.3536606, -13.3536587, -0.0283665
-0.7041016, 0.7260742, -0.5620117, -80.3658524, -67.1951218, -12.7439032, -0.0280308
-0.7138672, 0.7294922, -0.565918, -78.1707306, -65.7317123, -12.560976, -0.0246738
-0.7290039, 0.7338867, -0.5634766, -75.7926865, -64.2682953, -11.8292685, -0.0258488
-0.7314453, 0.7319336, -0.5620117, -74.5121994, -63.7804909, -11.8292685, -0.0243381
-0.7338867, 0.7211914, -0.5693359, -71.6463394, -62.68293, -11.341464, -0.0226596
-0.7314453, 0.7192383, -0.5766602, -70.2439041, -62.5, -11.1585369, -0.0186313
-0.7294922, 0.7202148, -0.5820312, -67.1341476, -61.9512215, -10.5487804, -0.0219883
-0.730957, 0.715332, -0.5878906, -65.6707306, -61.6463432, -10.3048782, -0.0216526
-0.734375, 0.7163086, -0.5844727, -63.6585388, -60.8536606, -9.9390249, -0.0159457
-0.7407227, 0.7177734, -0.578125, -62.9268303, -60, -9.6341467, -0.012253
-0.7416992, 0.7207031, -0.5683594, -61.2195129, -58.3536606, -9.2073174, -0.0124208
-0.7392578, 0.7207031, -0.559082, -60.4268303, -57.9268303, -8.841464, -0.012253
-0.7412109, 0.7192383, -0.5527344, -58.6585388, -56.4024391, -8.0487804, -0.0129244
-0.7373047, 0.7231445, -0.5463867, -56.2804909, -55.4878044, -7.3780489, -0.0139315
-0.7324219, 0.7285156, -0.5478516, -54.9390259, -55.2439041, -7.1341467, -0.0124208
-0.7207031, 0.7329102, -0.5385742, -52.6829262, -54.4512215, -6.3414636, -0.0135958
-0.7036133, 0.7348633, -0.5283203, -51.4024391, -53.7804909, -6.0975609, -0.0176242
-0.6953125, 0.7319336, -0.527832, -50.4878044, -52.4390259, -5.7317076, -0.0213169
-0.6860352, 0.7167969, -0.5151367, -49.5121956, -51.2195129, -6.4024391, -0.0199741
-0.6782227, 0.7148438, -0.5195312, -48.0487823, -48.9634171, -6.7073174, -0.0162814
-0.6704102, 0.7236328, -0.5258789, -47.0731735, -47.8658562, -6.5243902, -0.0132601
-0.6650391, 0.7358398, -0.5273438, -44.9390259, -46.7682953, -5.9756098, -0.0135958
-0.6616211, 0.7597656, -0.5522461, -43.9634171, -46.8292694, -5.4878049, -0.012253
-0.6552734, 0.7636719, -0.5610352, -43.1097565, -46.4634171, -4.8170733, -0.0115816
-0.6455078, 0.7700195, -0.5771484, -43.4146347, -44.3292694, -5.1219511, -0.0115816
-0.6464844, 0.7646484, -0.5883789, -43.4756126, -42.9878044, -5.5487804, -0.008896
-0.6489258, 0.7661133, -0.5917969, -43.5975609, -40.4268303, -6.5853658, -0.0058747
-0.6635742, 0.7734375, -0.5864258, -43.7804871, -39.3902435, -6.7682929, -0.0001678
-0.6674805, 0.7729492, -0.5791016, -43.4146347, -38.2926826, -7.0121951, 0.0038605
-0.6699219, 0.7788086, -0.578125, -43.0487823, -38.1707344, -6.7682929, 0.0025177
-0.668457, 0.7749023, -0.5756836, -42.2560997, -37.5609779, -6.4634147, 0.0010071
-0.6650391, 0.7739258, -0.5712891, -41.6463432, -36.7073174, -6.4634147, 0.0025177
-0.6601562, 0.7724609, -0.5708008, -40.0609779, -35.3048782, -6.6463418, 0.0018463
-0.6660156, 0.765625, -0.574707, -39.3292694, -34.6341476, -6.5853658, -0.0001678
-0.6665039, 0.769043, -0.5830078, -37.5, -33.5975609, -6.280488, -0.0025177
-0.6616211, 0.7758789, -0.5888672, -36.0365868, -33.1097565, -5.2439027, -0.002182
-0.6630859, 0.7783203, -0.5952148, -35.7926826, -32.7439041, -5.2439027, -0.0041962
-0.6650391, 0.769043, -0.5961914, -35.5487823, -32.2560997, -4.6341462, -0.0102388
-0.6660156, 0.7412109, -0.5932617, -35.4878044, -31.7073174, -4.2682929, -0.0124208
-0.6713867, 0.7255859, -0.5878906, -35, -29.8170738, -4.0243902, -0.0129244
-0.671875, 0.7089844, -0.5825195, -34.3292694, -29.0243912, -3.9024391, -0.0129244
-0.6796875, 0.7021484, -0.5771484, -31.8292694, -28.2926826, -3.5975611, -0.0162814
-0.684082, 0.7041016, -0.5742188, -30.5487804, -28.7195129, -3.1097562, -0.0162814
-0.6806641, 0.7080078, -0.5708008, -26.280489, -30.060976, -1.9512196, -0.0203098
-0.6708984, 0.7192383, -0.5688477, -24.5731716, -30.7317085, -1.1585366, -0.0213169
-0.6625977, 0.722168, -0.5698242, -21.5243912, -31.0365868, 0, -0.026688
-0.6430664, 0.7275391, -0.5737305, -19.2073174, -30.4878063, 0.6707317, -0.0310521
-0.6357422, 0.7226562, -0.5742188, -18.4756107, -29.8170738, 1.0365853, -0.0359197
-0.6298828, 0.7250977, -0.5732422, -16.8292694, -27.7439022, 1.8902439, -0.0345769
-0.6230469, 0.7319336, -0.5703125, -16.0975609, -26.5243912, 2.195122, -0.0303807
-0.6176758, 0.7329102, -0.5668945, -14.8170738, -25.1829281, 3.0487804, -0.0256809
-0.6210938, 0.7314453, -0.5571289, -13.9634151, -24.4512196, 3.4756098, -0.0216526
-0.6201172, 0.7285156, -0.550293, -12.9878054, -22.9268303, 4.1463413, -0.0196384
-0.6196289, 0.7202148, -0.5395508, -12.0731707, -21.5243912, 4.5731707, -0.0109102
-0.6220703, 0.7216797, -0.5341797, -8.9634151, -19.2073174, 5.4878049, -0.0070497
-0.6210938, 0.7304688, -0.5380859, -7.3780489, -18.5975609, 6.1585369, -0.0082246
-0.6181641, 0.7363281, -0.5439453, -4.390244, -16.9512196, 7.5609756, -0.008896
-0.6069336, 0.7460938, -0.5737305, -1.7682927, -15.3658543, 8.6585369, -0.014435
-0.6049805, 0.7558594, -0.5908203, -0.9756098, -14.3292685, 9.3292685, -0.0176242
-0.6015625, 0.7646484, -0.6079102, 0, -11.7682934, 9.7560978, -0.0182956
-0.6069336, 0.7666016, -0.6206055, -0.3048781, -10.4878054, 9.6951218, -0.0218204
-0.609375, 0.7597656, -0.6166992, -0.6097561, -7.4390244, 9.6951218, -0.0270237
-0.6079102, 0.7524414, -0.5917969, -0.4268293, -6.0365853, 9.5731707, -0.0270237
-0.6088867, 0.75, -0.5786133, 0.9756098, -3.2317073, 9.3902445, -0.0276951
-0.6108398, 0.753418, -0.559082, 2.0121951, -1.8292683, 9.6341467, -0.0270237
-0.6098633, 0.7524414, -0.5561523, 4.7560978, 0.1829268, 10.1829271, -0.0297093
-0.6020508, 0.7543945, -0.5644531, 6.0365853, 0.5487805, 11.1585369, -0.0292058
-0.5996094, 0.753418, -0.5751953, 8.4756098, 2.8658538, 12.560976, -0.0236667
-0.5976562, 0.75, -0.5966797, 9.9390249, 6.3414636, 13.2926836, -0.0209812
-0.5996094, 0.7451172, -0.6069336, 10.7926836, 8.1707315, 13.4756098, -0.0157778
-0.6225586, 0.737793, -0.6362305, 11.4634151, 11.7682934, 13.7195129, -0.0115816
-0.6347656, 0.7451172, -0.6479492, 12.0731707, 12.9268293, 14.0243902, -0.0119173
-0.637207, 0.7460938, -0.6455078, 14.2073174, 13.5365858, 14.4512196, -0.0149386
-0.6420898, 0.7470703, -0.6279297, 15, 13.5975609, 14.9390249, -0.0164492
-0.6420898, 0.7470703, -0.6191406, 17.439024, 13.9634151, 15.1829271, -0.0176242
-0.6455078, 0.7407227, -0.6005859, 18.6585369, 14.5731707, 15.5487804, -0.0206455
-0.6430664, 0.734375, -0.5966797, 21.8902435, 16.6463413, 15.8536587, -0.0253452
-0.6430664, 0.730957, -0.6049805, 23.5975609, 17.3780499, 16.5243912, -0.0283665
-0.6489258, 0.7353516, -0.6176758, 27.4390259, 19.8170738, 17.6219521, -0.0283665
-0.6586914, 0.7387695, -0.6635742, 30.5487804, 21.4024391, 19.3902435, -0.0283665
-0.6655273, 0.7348633, -0.6884766, 31.9512196, 21.7682934, 20.1829281, -0.0219883
-0.6782227, 0.7275391, -0.7290039, 34.2682953, 22.5, 21.0975609, -0.018967
-0.6962891, 0.7114258, -0.7373047, 35.0609779, 23.1707325, 21.0975609, -0.0157778
-0.699707, 0.7016602, -0.730957, 37.6829262, 23.7195129, 20.9756107, -0.0129244
-0.7070312, 0.6953125, -0.6977539, 39.1463432, 23.9634151, 20.7317085, -0.0075532
-0.7089844, 0.6918945, -0.6787109, 43.7195129, 24.0853672, 20.4268303, -0.0097353
-0.7109375, 0.7084961, -0.6547852, 46.5243912, 23.9024391, 21.0975609, -0.0115816
-0.7050781, 0.7211914, -0.652832, 53.4756126, 23.4146347, 22.6219521, -0.0129244
-0.6787109, 0.7402344, -0.659668, 56.6463432, 24.0853672, 23.2926826, -0.0176242
-0.6665039, 0.7490234, -0.6601562, 61.7073174, 26.0975609, 24.5731716, -0.0206455
-0.6420898, 0.7617188, -0.6591797, 64.8170776, 30.1829281, 24.5731716, -0.0290379
-0.6342773, 0.7670898, -0.6542969, 66.0975647, 32.8658562, 25, -0.0323949
-0.6245117, 0.7734375, -0.6455078, 67.8048782, 38.4756088, 24.7560978, -0.033402
-0.612793, 0.7836914, -0.6225586, 69.1463394, 41.5243912, 24.9390259, -0.0392767
-0.6069336, 0.7900391, -0.6108398, 71.2195129, 47.8048782, 24.5731716, -0.0411231
-0.5913086, 0.8037109, -0.5844727, 72.3780518, 51.4024391, 24.2682934, -0.0441444
-0.5805664, 0.8100586, -0.574707, 74.4512177, 59.2073174, 23.9024391, -0.0488441
-0.5571289, 0.8354492, -0.5644531, 75.6707306, 63.0487823, 23.6585369, -0.0532082
-0.5439453, 0.8432617, -0.565918, 77.1341476, 71.4634171, 23.9024391, -0.0506905
-0.5214844, 0.8574219, -0.574707, 77.8658524, 75.4268341, 24.2073174, -0.0473335
-0.5117188, 0.8569336, -0.5869141, 77.8658524, 84.4512253, 24.6951218, -0.0451514
-0.5, 0.8398438, -0.6235352, 76.5853653, 93.4756088, 24.5731716, -0.0365911
-0.5039062, 0.8305664, -0.6484375, 76.4634171, 97.8658524, 24.4512196, -0.0320592
-0.5292969, 0.8095703, -0.7041016, 75.6097565, 106.5853653, 24.0853672, -0.0302129
-0.5561523, 0.7880859, -0.7563477, 75.7926865, 110.1219559, 23.9024391, -0.0236667
-0.5844727, 0.7827148, -0.7768555, 76.1585388, 115.0609818, 23.9634151, -0.0218204
-0.6274414, 0.7749023, -0.7905273, 76.8292694, 116.7073212, 23.7195129, -0.018967
-0.6459961, 0.7719727, -0.7875977, 79.146347, 117.5609818, 23.2926826, -0.0152743
-0.6665039, 0.7636719, -0.7641602, 80.6707306, 117.2561035, 23.0487804, -0.0166171
-0.6723633, 0.7592773, -0.7524414, 84.0243912, 116.0975647, 23.0487804, -0.018967
-0.6582031, 0.7363281, -0.7280273, 86.2804871, 115.6707306, 23.1707325, -0.0198062
-0.652832, 0.7231445, -0.7290039, 90.7926865, 115.1219559, 23.9024391, -0.0238346
-0.6298828, 0.6928711, -0.7548828, 95.4878082, 116.5853653, 25.7317085, -0.0231632
-0.6245117, 0.6811523, -0.7817383, 97.3170776, 117.5, 26.7073174, -0.0226596
-0.6166992, 0.6733398, -0.8286133, 100.1219559, 119.7561035, 28.2926826, -0.023331
-0.6259766, 0.6621094, -0.8691406, 101.1585388, 120.2439041, 28.780489, -0.0258488
-0.6269531, 0.6601562, -0.8793945, 102.8048782, 120.4268341, 29.6341476, -0.0258488
-0.6386719, 0.6630859, -0.8862305, 103.9024429, 120.4878082, 29.6951218, -0.0253452
-0.6430664, 0.6635742, -0.8852539, 106.8292694, 118.7195129, 30.4878063, -0.0256809
-0.6420898, 0.6674805, -0.8886719, 107.9268341, 117.7439041, 30.8536587, -0.0260166
-0.6386719, 0.6655273, -0.8857422, 111.5243912, 115.0609818, 31.7073174, -0.0243381
-0.6240234, 0.6704102, -0.8789062, 113.1097565, 114.146347, 31.8902454, -0.0229953
-0.6166992, 0.6674805, -0.8779297, 116.8292694, 113.3536606, 31.7682934, -0.0224918
-0.6108398, 0.6723633, -0.8833008, 120.0609818, 114.146347, 31.1585369, -0.0203098
-0.6118164, 0.6767578, -0.8925781, 121.4634171, 114.6341476, 31.2195129, -0.018967
-0.6206055, 0.6987305, -0.9077148, 124.146347, 115.6097565, 31.5243912, -0.0229953
-0.6240234, 0.7280273, -0.9174805, 125.36586, 115.7317123, 31.8902454, -0.023331
-0.6201172, 0.7363281, -0.918457, 127.3170776, 116.0975647, 32.6829262, -0.0243381
-0.6113281, 0.7446289, -0.9208984, 128.1707306, 116.646347, 32.8658562, -0.0290379
-0.6098633, 0.7456055, -0.9282227, 129.8170776, 117.9878082, 33.5365868, -0.0313878
-0.6030273, 0.7402344, -0.9506836, 130.4268341, 119.4512253, 33.5975609, -0.0290379
-0.6040039, 0.7329102, -0.9575195, 131.5853729, 121.4634171, 33.7195129, -0.0310521
-0.6074219, 0.7216797, -0.9785156, 132.5, 122.6219559, 33.5975609, -0.0260166
-0.6162109, 0.7182617, -0.9824219, 133.4146423, 125.5487823, 33.2926826, -0.023331
-0.6391602, 0.7290039, -0.9853516, 134.7561035, 127.68293, 33.2926826, -0.0243381
-0.6499023, 0.7382812, -0.9794922, 135.36586, 128.4756165, 33.4756088, -0.0209812
-0.6591797, 0.7607422, -0.9755859, 137.0731812, 128.8414612, 34.6341476, -0.0182956
-0.6474609, 0.7783203, -0.9726562, 138.0487823, 128.8414612, 35.6707344, -0.0162814
-0.6308594, 0.7880859, -0.9785156, 140.7926788, 129.8780518, 37.5609779, -0.0099031
-0.6030273, 0.8007812, -1.0078125, 141.4024353, 130.7926788, 38.5365868, -0.0109102
-0.5874023, 0.8173828, -1.027832, 142.0121918, 133.2926788, 39.5121956, -0.0129244
-0.5493164, 0.8032227, -1.0869141, 142.1951294, 135.1829224, 40.1829262, -0.0117494
-0.5273438, 0.7753906, -1.1152344, 140.9146423, 140.4268341, 38.9024391, -0.0109102
-0.5161133, 0.7294922, -1.1313477, 136.5243988, 146.4024353, 33.2317085, -0.0082246
-0.5493164, 0.7172852, -1.1137695, 134.4512177, 148.3536682, 30.060976, -0.0072175
-0.6342773, 0.7114258, -1.0639648, 133.2926788, 149.7561035, 28.2926826, -0.0109102
-0.6762695, 0.7211914, -1.0263672, 134.4512177, 149.2682953, 29.6341476, -0.0102388
-0.6713867, 0.7197266, -1.0195312, 138.9024353, 146.3414612, 33.1097565, -0.0085603
-0.6328125, 0.7055664, -1.0429688, 140.9756165, 145, 34.5121956, -0.0068818
-0.6108398, 0.6948242, -1.0649414, 144.7561035, 145.3048859, 35.3048782, -0.0048676
-0.5800781, 0.6977539, -1.1098633, 146.0365906, 146.3414612, 35.7317085, -0.0058747
-0.5712891, 0.7060547, -1.1201172, 147.6219482, 148.8414612, 36.4024391, -0.0078889
-0.5512695, 0.7226562, -1.1274414, 148.1097565, 149.5731812, 36.4024391, -0.0115816
-0.5424805, 0.730957, -1.121582, 147.5, 150.5487823, 36.4024391, -0.0142672
-0.5175781, 0.7231445, -1.0961914, 146.8902435, 152.0121918, 35.7317085, -0.0182956
-0.5107422, 0.7158203, -1.0864258, 146.7682953, 153.5975647, 35.3048782, -0.0240024
-0.5073242, 0.6953125, -1.0859375, 147.7439117, 157.3780518, 35.6097565, -0.0260166
-0.5073242, 0.6738281, -1.1289062, 148.4756165, 159.6341553, 35.9756088, -0.0263523
-0.512207, 0.6723633, -1.1645508, 150.0609741, 162.86586, 37.6829262, -0.0297093
-0.5161133, 0.6679688, -1.2270508, 150.6097565, 163.8414612, 38.7804871, -0.0293736
-0.519043, 0.6743164, -1.2426758, 150.7317047, 164.8170776, 39.2073174, -0.0287022
-0.5395508, 0.6826172, -1.2412109, 150.0609741, 165.0609741, 38.6585388, -0.0260166
-0.5458984, 0.684082, -1.2319336, 149.0243988, 164.5121918, 37.8048782, -0.0236667
-0.5561523, 0.675293, -1.215332, 149.2073212, 164.5731812, 38.1097565, -0.0209812
-0.5493164, 0.6635742, -1.2148438, 151.3414612, 164.0853729, 40.2439041, -0.0142672
-0.5195312, 0.6479492, -1.2158203, 153.9634247, 163.9024353, 42.0731735, -0.0068818
-0.5058594, 0.6396484, -1.2197266, 154.8170776, 164.6341553, 42.1951218, -0.0015106
-0.4814453, 0.6245117, -1.2260742, 155.0609741, 166.4634247, 42.0731735, 0.0015106
-0.46875, 0.6083984, -1.2246094, 155.2439117, 167.0731812, 42.1341476, -0.0001678
-0.4638672, 0.6064453, -1.2231445, 154.9390259, 169.6341553, 42.8658562, -0.0028534
-0.4594727, 0.6040039, -1.2231445, 155.1219482, 171.0365906, 43.5365868, -0.0052033
-0.4555664, 0.6015625, -1.2275391, 155.8536682, 173.2317047, 44.9390259, -0.0129244
-0.4501953, 0.59375, -1.234375, 156.646347, 173.9634247, 45.8536606, -0.0218204
-0.4428711, 0.5927734, -1.2456055, 158.1707306, 174.6951294, 47.1341476, -0.0290379
-0.4272461, 0.5776367, -1.2714844, 158.8414612, 175.0609741, 47.6219521, -0.0310521
-0.4243164, 0.5708008, -1.2905273, 160.4878082, 175.8536682, 47.9268303, -0.0310521
-0.425293, 0.5639648, -1.3115234, 161.2195129, 176.2804871, 48.0487823, -0.0323949
-0.4223633, 0.5703125, -1.3173828, 161.4634247, 176.2195129, 48.4756126, -0.0310521
-0.4155273, 0.5952148, -1.300293, 162.5609741, 174.3292694, 49.6341476, -0.0263523
-0.3833008, 0.6210938, -1.2636719, 162.8048859, 173.1707306, 50.1829262, -0.0209812
-0.3579102, 0.6235352, -1.2539062, 162.6829376, 171.8292694, 50.8536606, -0.0196384
-0.3041992, 0.6010742, -1.2592773, 162.1951294, 172.0731812, 50.9146347, -0.0125887
-0.2753906, 0.5844727, -1.2709961, 160.9756165, 176.7682953, 50.6707344, -0.008896
-0.2475586, 0.5561523, -1.2827148, 160.0609741, 179.6951294, 50.0609779, -0.0058747
-0.2480469, 0.5473633, -1.2875977, 157.7439117, 185.1219482, 48.0487823, -0.0095674
-0.2729492, 0.5385742, -1.2983398, 156.5853729, 186.7073212, 47.0121956, -0.0135958
-0.2856445, 0.5371094, -1.3061523, 155.36586, 187.7439117, 46.8292694, -0.0146029
-0.2949219, 0.5288086, -1.3344727, 155.0609741, 186.9512177, 47.8658562, -0.0203098
-0.2905273, 0.5351562, -1.3447266, 155, 186.0365906, 48.3536606, -0.0270237
-0.2788086, 0.5424805, -1.3574219, 153.9024353, 184.6341553, 48.9634171, -0.036759
-0.2597656, 0.5400391, -1.3666992, 153.0487823, 183.8414612, 48.5975609, -0.0387732
-0.2421875, 0.5322266, -1.3452148, 151.9512177, 184.146347, 47.1951218, -0.0431373
-0.2329102, 0.4951172, -1.3476562, 150.4878082, 183.9634247, 45.5487823, -0.04448
-0.2524414, 0.4863281, -1.3417969, 148.9024353, 185.1219482, 42.9878044, -0.0404517
-0.2832031, 0.4799805, -1.3647461, 148.7195129, 185.6707306, 42.3780479, -0.0340734
-0.2983398, 0.4804688, -1.3876953, 150.36586, 185.36586, 43.6585388, -0.0337377
-0.3056641, 0.4848633, -1.4448242, 151.0975647, 184.512207, 45.0609779, -0.0313878
-0.3032227, 0.4863281, -1.4511719, 150.6707306, 182.1341553, 45.5487823, -0.0283665
-0.3076172, 0.4750977, -1.434082, 148.8414612, 178.6585388, 43.2317085, -0.0229953
-0.3149414, 0.4638672, -1.4130859, 147.7439117, 176.646347, 42.5, -0.0229953
-0.3242188, 0.4521484, -1.3496094, 148.4146423, 172.9878082, 42.7439041, -0.0204776
