Application:, Trigno Discover (1.6.5)
Date/Time:, 29/01/2025 10:27:49
Collection Length (seconds):, 28.4445
wrist (81457), , , , , , bicep (81139)
sensor mode: 609, , , , , , sensor mode: 40
ACC X (G), ACC Y (G), ACC Z (G), GYRO X (deg/s), GYRO Y (deg/s), GYRO Z (deg/s), EMG 1 (mV)
370.3704 Hz, 370.3704 Hz, 370.3704 Hz, 370.3704 Hz, 370.3704 Hz, 370.3704 Hz, 2148.1481 Hz
0.9326172, -0.0727539, -0.331543, -23.2317085, -6.0365853, 6.4024391, -0.0520333
0.9458008, -0.0776367, -0.3203125, -23.9634151, -4.9390244, 6.5853658, -0.0486763
0.9682617, -0.1000977, -0.2998047, -23.9024391, -3.9024391, 6.0365853, -0.0473335
0.9726562, -0.1137695, -0.3012695, -23.8414631, -4.0243902, 5.9146342, -0.0473335
0.9633789, -0.1220703, -0.3139648, -23.3536587, -4.2073174, 5.7926831, -0.0459907
0.965332, -0.1118164, -0.331543, -23.1097565, -4.5731707, 6.0975609, -0.0439765
0.9731445, -0.1054688, -0.3354492, -22.5, -4.0853658, 6.3414636, -0.0386053
0.9819336, -0.1064453, -0.3364258, -22.439024, -4.0853658, 6.4634147, -0.0386053
0.9887695, -0.1040039, -0.3354492, -22.439024, -4.5121951, 6.5853658, -0.0446479
0.9946289, -0.109375, -0.3330078, -22.6219521, -4.4512196, 6.4024391, -0.0352483
0.9970703, -0.1113281, -0.3325195, -22.6219521, -4.7560978, 7.1951222, -0.017792
1.0024414, -0.1137695, -0.3276367, -22.439024, -4.8170733, 7.3780489, -0.003357
1.0009766, -0.1074219, -0.3271484, -21.8292694, -4.9390244, 7.3170733, 0.0104067
0.9970703, -0.1049805, -0.3173828, -20.6707325, -4.7560978, 6.8292685, 0.014435
0.9926758, -0.1040039, -0.3095703, -19.8780499, -4.6951222, 6.6463418, 0.0104067
0.9824219, -0.0996094, -0.3037109, -19.5731716, -4.8170733, 6.7073174, 0.0097353
0.9780273, -0.09375, -0.2905273, -19.4512196, -5.3048782, 6.7682929, 0.0050355
0.9711914, -0.0898438, -0.277832, -19.0243912, -5.2439027, 6.5853658, -0.0023499
0.9692383, -0.0800781, -0.2568359, -18.5365849, -4.9390244, 6.6463418, -0.0104067
0.9575195, -0.0751953, -0.2519531, -18.2926826, -5.1829271, 6.3414636, -0.017792
0.9570312, -0.0673828, -0.2529297, -18.3536587, -5.3048782, 6.280488, -0.0248417
0.9526367, -0.0615234, -0.2524414, -18.4146347, -6.4634147, 6.6463418, -0.0298772
0.9545898, -0.0654297, -0.2553711, -18.4756107, -7.0731707, 6.4634147, -0.03122
0.9575195, -0.0712891, -0.2626953, -18.3536587, -8.6585369, 6.4634147, -0.0298772
0.9599609, -0.1049805, -0.265625, -18.0487804, -10.1219511, 6.8292685, -0.0409552
0.9614258, -0.1137695, -0.2685547, -17.7439022, -10.2439022, 6.890244, -0.0547189
0.9584961, -0.1245117, -0.2807617, -16.3414631, -9.4512196, 7.1341467, -0.056733
0.9570312, -0.1152344, -0.2768555, -15.6097565, -8.9024391, 7.0121951, -0.0547189
0.9589844, -0.1044922, -0.2719727, -13.780488, -7.8048782, 6.0975609, -0.0473335
0.9536133, -0.0898438, -0.2744141, -12.9878054, -7.8658538, 5.3658538, -0.0426337
0.9550781, -0.0839844, -0.2875977, -12.5, -8.1707315, 4.9390244, -0.0302129
0.9628906, -0.0864258, -0.3071289, -12.3780489, -8.780488, 5.0609756, -0.0198062
0.9663086, -0.090332, -0.3139648, -13.1097565, -9.7560978, 5.7926831, -0.0073854
0.980957, -0.0864258, -0.3237305, -13.1707315, -9.7560978, 5.8536587, -0.0057069
0.9814453, -0.0869141, -0.3271484, -12.8048782, -8.780488, 5.7317076, -0.0127565
0.9750977, -0.0717773, -0.3334961, -12.5, -7.7439027, 5.4878049, -0.0285344
0.9702148, -0.0654297, -0.3383789, -12.5, -7.6829271, 5.609756, -0.0298772
0.9682617, -0.0600586, -0.3354492, -13.5975609, -7.9878049, 6.0365853, -0.0288701
0.9692383, -0.0634766, -0.3232422, -14.0853662, -8.2317076, 6.0975609, -0.0298772
0.9707031, -0.0756836, -0.3178711, -15.1829271, -8.841464, 5.9756098, -0.0204776
0.9736328, -0.0854492, -0.3173828, -15.2439032, -8.6585369, 6.2195125, -0.0164492
0.9770508, -0.0893555, -0.3168945, -15, -8.780488, 6.5853658, -0.0164492
0.9711914, -0.0869141, -0.3183594, -14.8780489, -8.4146347, 6.7073174, -0.0151064
0.972168, -0.078125, -0.3105469, -14.8780489, -7.5609756, 6.8292685, -0.0164492
0.9667969, -0.0551758, -0.3007812, -15, -6.7073174, 6.4634147, -0.0157778
0.9663086, -0.0483398, -0.2939453, -15.3048782, -6.7073174, 6.280488, -0.0104067
0.9677734, -0.0454102, -0.2958984, -16.4634151, -8.1097565, 6.280488, -0.0077211
0.9658203, -0.0541992, -0.3012695, -16.8902435, -8.9024391, 6.280488, -0.0070497
0.9775391, -0.0742188, -0.3051758, -17.8658543, -10.3048782, 7.0731707, -0.0124208
0.9858398, -0.0976562, -0.3032227, -17.8048782, -10.6707315, 7.3170733, -0.0191348
0.9863281, -0.1088867, -0.300293, -17.1341476, -9.5731707, 7.3170733, -0.027863
0.9799805, -0.1118164, -0.2998047, -16.7073174, -8.9634151, 7.1951222, -0.0439765
0.9746094, -0.1113281, -0.3027344, -15.5487804, -7.8048782, 6.3414636, -0.0580758
0.9599609, -0.1113281, -0.2988281, -15.5487804, -7.7439027, 5.9756098, -0.0715038
0.9550781, -0.1035156, -0.2954102, -15.5487804, -7.8048782, 5.4268293, -0.0795605
0.956543, -0.0869141, -0.2983398, -15.9146347, -8.1707315, 4.8170733, -0.0815747
0.956543, -0.0830078, -0.296875, -15.9756098, -8.5365858, 4.6341462, -0.0862745
0.9663086, -0.0839844, -0.2924805, -16.1585369, -8.9024391, 4.4512196, -0.0876173
0.9707031, -0.0849609, -0.2939453, -15.9146347, -9.0853662, 4.5121951, -0.0896315
0.9716797, -0.0874023, -0.2998047, -15.9756098, -9.2073174, 5, -0.0889601
0.9697266, -0.0996094, -0.2895508, -15.9756098, -8.9634151, 5, -0.0876173
0.9702148, -0.105957, -0.2890625, -15.4878054, -8.9634151, 4.8170733, -0.0835889
0.9648438, -0.1123047, -0.2822266, -15.2439032, -8.9024391, 4.5731707, -0.0802319
0.9589844, -0.1118164, -0.2788086, -14.2682934, -8.5365858, 4.4512196, -0.0809033
0.9541016, -0.1088867, -0.2827148, -14.0243902, -7.9878049, 3.5975611, -0.0795605
0.949707, -0.1064453, -0.2880859, -13.6585369, -8.780488, 3.1097562, -0.0782177
0.953125, -0.1000977, -0.3051758, -13.6585369, -9.5121956, 2.8658538, -0.0755322
0.9580078, -0.0942383, -0.3037109, -14.0853662, -9.3902445, 2.804878, -0.0661326
0.9555664, -0.0805664, -0.2900391, -13.5365858, -9.0243902, 2.9268293, -0.0621042
0.9526367, -0.0727539, -0.2822266, -13.4756098, -8.5365858, 2.3170731, -0.0587472
0.9389648, -0.0878906, -0.2744141, -13.5975609, -8.841464, 2.3170731, -0.0614328
0.9331055, -0.1137695, -0.2841797, -14.0853662, -9.7560978, 2.6829269, -0.0527047
0.9277344, -0.1254883, -0.2905273, -14.3292685, -10.9756098, 3.5365853, -0.0506905
0.9311523, -0.121582, -0.2973633, -14.0243902, -11.0365858, 3.5975611, -0.0500191
0.9321289, -0.112793, -0.2954102, -13.1097565, -9.8170738, 2.8658538, -0.0473335
0.9453125, -0.0913086, -0.2954102, -12.5, -8.841464, 2.3780489, -0.0412909
0.9477539, -0.0771484, -0.2910156, -12.0731707, -7.9878049, 1.6463414, -0.0379339
0.9536133, -0.0625, -0.2900391, -12.2560978, -8.719512, 1.7682927, -0.0392767
0.9560547, -0.0639648, -0.2949219, -12.560976, -9.0243902, 1.7073171, -0.0379339
0.953125, -0.0698242, -0.3071289, -13.0487804, -9.9390249, 2.4390244, -0.0352483
0.9541016, -0.0776367, -0.3134766, -13.3536587, -10, 2.804878, -0.0298772
0.9584961, -0.0913086, -0.3144531, -13.6585369, -9.3902445, 3.2317073, -0.0231632
0.9599609, -0.0869141, -0.3144531, -13.4756098, -8.5975609, 3.1097562, -0.011078
0.9526367, -0.0834961, -0.3129883, -12.8048782, -7.8048782, 2.804878, -0.0057069
0.9575195, -0.0854492, -0.3071289, -12.7439032, -8.0487804, 2.4390244, -0.0003357
0.9580078, -0.0917969, -0.3066406, -12.8658543, -8.2926826, 1.9512196, 0.0016785
0.96875, -0.0961914, -0.3105469, -12.8048782, -8.2317076, 2.0731707, -0.0010071
0.9692383, -0.1030273, -0.3125, -12.9878054, -7.9878049, 2.195122, -0.0030213
0.9726562, -0.1088867, -0.3085938, -12.8658543, -7.6219516, 2.1341465, -0.0030213
0.9711914, -0.1079102, -0.309082, -12.8048782, -7.3170733, 2.195122, -0.0097353
0.9716797, -0.1035156, -0.3056641, -12.4390249, -6.7682929, 1.6463414, -0.017792
0.9707031, -0.1015625, -0.3046875, -12.5, -6.7682929, 1.4634147, -0.0218204
0.9638672, -0.0927734, -0.2988281, -12.560976, -6.5243902, 1.1585366, -0.0285344
0.9667969, -0.0883789, -0.2851562, -12.5, -6.4024391, 0.7926829, -0.0379339
0.9692383, -0.0888672, -0.2802734, -13.2317076, -6.7682929, 0.3048781, -0.0392767
0.9638672, -0.1040039, -0.2749023, -13.2317076, -6.9512196, 0.3048781, -0.0419623
0.965332, -0.1098633, -0.2797852, -13.0487804, -7.8048782, 0.6097561, -0.0459907
0.9702148, -0.121582, -0.2841797, -13.1707315, -7.8658538, 0.7317073, -0.0500191
0.9692383, -0.1269531, -0.2841797, -12.6829271, -7.3780489, 0.3048781, -0.0500191
0.9702148, -0.1245117, -0.2861328, -12.0731707, -6.0365853, -0.5487805, -0.0486763
0.9716797, -0.112793, -0.2900391, -11.7073174, -5.4878049, -0.9146342, -0.0540475
0.9619141, -0.0942383, -0.300293, -11.219512, -4.6341462, -1.4634147, -0.056733
0.9570312, -0.0859375, -0.3071289, -11.280488, -4.390244, -1.5853659, -0.0580758
0.9423828, -0.078125, -0.3198242, -12.6219511, -4.4512196, -1.4634147, -0.0580758
0.9428711, -0.0722656, -0.3178711, -12.8658543, -4.8780489, -1.2195122, -0.0574044
0.9414062, -0.074707, -0.3139648, -13.2926836, -4.5731707, -0.6707317, -0.056733
0.9448242, -0.0668945, -0.3085938, -13.2317076, -4.6951222, -0.6707317, -0.0553902
0.9423828, -0.0615234, -0.3071289, -13.0487804, -4.6951222, -0.5487805, -0.0624399
0.9438477, -0.0571289, -0.3076172, -13.1097565, -4.390244, -0.5487805, -0.0654612
0.9462891, -0.0625, -0.3056641, -13.6585369, -4.1463413, -0.7317073, -0.0641184
0.9472656, -0.0703125, -0.3051758, -14.3292685, -5.1829271, -0.6707317, -0.0607614
0.9482422, -0.0766602, -0.3076172, -14.2073174, -5.1219511, -0.4268293, -0.056733
0.9477539, -0.0820312, -0.3085938, -14.0853662, -5.4268293, 0, -0.0513619
0.9560547, -0.0810547, -0.3110352, -14.3292685, -5.3048782, -0.0609756, -0.0412909
0.9511719, -0.0722656, -0.3115234, -13.9024391, -4.7560978, -0.2439024, -0.0406195
0.9462891, -0.0551758, -0.3105469, -14.1463413, -4.2682929, 0, -0.0433051
0.9414062, -0.0517578, -0.3071289, -14.3292685, -3.7195122, -0.1829268, -0.0433051
0.9506836, -0.0537109, -0.2958984, -14.6341467, -4.0243902, -0.3658537, -0.038941
0.9541016, -0.0585938, -0.2900391, -14.9390249, -4.9390244, -0.3658537, -0.0406195
0.9609375, -0.0703125, -0.2856445, -15.1219511, -5.1219511, -0.3658537, -0.0433051
0.9643555, -0.0776367, -0.2792969, -14.8170738, -5.3658538, 0.0609756, -0.0412909
0.9638672, -0.0883789, -0.2792969, -14.2682934, -5, 0.1219512, -0.0386053
0.9604492, -0.0917969, -0.2788086, -14.0243902, -4.5121951, 0, -0.0386053
0.9594727, -0.0952148, -0.2841797, -13.5975609, -4.5121951, 0, -0.0359197
0.956543, -0.0957031, -0.277832, -13.5365858, -4.6951222, -0.1829268, -0.03122
0.9604492, -0.097168, -0.28125, -13.2926836, -5.8536587, -0.5487805, -0.0248417
0.965332, -0.097168, -0.28125, -13.1707315, -5.7317076, -0.7926829, -0.0218204
0.9672852, -0.0927734, -0.2841797, -12.9268293, -6.0975609, -0.7926829, -0.0191348
0.9741211, -0.090332, -0.2797852, -13.2317076, -5.9146342, -0.7317073, -0.0097353
0.9755859, -0.0854492, -0.2827148, -12.8048782, -5.9756098, -1.2804878, -0.0083925
0.9702148, -0.0869141, -0.28125, -13.1707315, -5.9146342, -1.402439, -0.0218204
0.9658203, -0.0849609, -0.2802734, -13.2317076, -6.3414636, -1.2195122, -0.0365911
0.9584961, -0.0825195, -0.2832031, -13.7195129, -6.6463418, -0.8536586, -0.0382696
0.9580078, -0.0751953, -0.284668, -13.5975609, -6.7682929, -0.6707317, -0.0365911
0.9584961, -0.0595703, -0.2841797, -13.6585369, -6.5853658, -0.9146342, -0.0345769
0.9633789, -0.0522461, -0.2788086, -13.5365858, -6.5853658, -1.2195122, -0.0315557
0.9624023, -0.0478516, -0.2792969, -13.780488, -6.8292685, -1.3414634, -0.0258488
0.9575195, -0.0649414, -0.2841797, -14.1463413, -7.0731707, -1.3414634, -0.0204776
0.9560547, -0.074707, -0.2841797, -15.2439032, -7.4390244, -0.8536586, -0.0218204
0.9467773, -0.0805664, -0.2792969, -15.6097565, -7.6219516, -0.9756098, -0.0194705
0.9458008, -0.0844727, -0.2734375, -15.1219511, -7.5609756, -0.7926829, -0.0218204
0.9428711, -0.0751953, -0.2714844, -14.9390249, -7.3170733, -1.0365853, -0.0285344
0.9438477, -0.065918, -0.2744141, -13.9024391, -6.9512196, -1.5243902, -0.03122
0.9350586, -0.0600586, -0.2944336, -14.3292685, -7.6219516, -1.7682927, -0.0332341
0.9394531, -0.0595703, -0.3017578, -14.8780489, -8.1707315, -1.5853659, -0.0392767
0.9487305, -0.0693359, -0.3056641, -15.9146347, -8.780488, -1.4634147, -0.0436408
0.9628906, -0.0649414, -0.3007812, -15.9146347, -8.3536587, -1.5853659, -0.0527047
0.9677734, -0.0625, -0.2983398, -15.6097565, -7.3170733, -0.9146342, -0.063447
0.9628906, -0.0498047, -0.3037109, -15.060976, -6.5853658, -0.9146342, -0.0755322
0.9648438, -0.0454102, -0.3022461, -14.7560978, -6.3414636, -0.6097561, -0.076875
0.9594727, -0.0449219, -0.3095703, -15.060976, -6.2195125, -0.5487805, -0.0798962
0.9604492, -0.0424805, -0.3046875, -16.280489, -7.0121951, 0, -0.0822461
0.9570312, -0.0473633, -0.2949219, -16.5853653, -7.1341467, 0.3048781, -0.0795605
0.9570312, -0.0546875, -0.2924805, -16.8902435, -7.1341467, 0.5487805, -0.0728466
0.9550781, -0.0629883, -0.2822266, -16.9512196, -7.1951222, 0.8536586, -0.0661326
0.9526367, -0.0722656, -0.2856445, -16.8292694, -7.0731707, 1.097561, -0.0574044
0.9589844, -0.0732422, -0.2919922, -16.6463413, -7.0731707, 1.2195122, -0.0480049
0.9536133, -0.0708008, -0.2944336, -16.4634151, -7.0121951, 1.0365853, -0.0342412
0.9560547, -0.0712891, -0.2988281, -16.8292694, -6.5853658, 0.6707317, -0.0352483
0.9580078, -0.081543, -0.2978516, -16.5853653, -6.7682929, 0.7317073, -0.0553902
0.9628906, -0.0810547, -0.2949219, -16.4634151, -7.1951222, 0.7317073, -0.0728466
0.9643555, -0.0839844, -0.2939453, -16.5853653, -7.3780489, 0.9756098, -0.0688182
0.972168, -0.0859375, -0.2939453, -15.9146347, -6.9512196, 0.9146342, -0.0547189
0.9643555, -0.0942383, -0.2827148, -15.3658543, -7.0121951, 0.7317073, -0.0392767
0.9575195, -0.0986328, -0.28125, -15.1829271, -6.3414636, 0.3658537, -0.024506
0.9521484, -0.097168, -0.2851562, -14.9390249, -6.8292685, 0.2439024, -0.0191348
0.9506836, -0.0991211, -0.2827148, -14.9390249, -7.0121951, 0.3048781, -0.0171206
0.9594727, -0.1005859, -0.2724609, -14.6951227, -7.4390244, -0.2439024, -0.0204776
0.9672852, -0.1000977, -0.2705078, -14.5731707, -7.3780489, -0.6707317, -0.0251774
0.9658203, -0.09375, -0.2729492, -13.841464, -7.3780489, -0.8536586, -0.0271916
0.9584961, -0.0693359, -0.2739258, -13.841464, -7.0121951, -1.097561, -0.0218204
0.9541016, -0.0654297, -0.2744141, -13.1097565, -6.0975609, -1.4634147, -0.0151064
0.9482422, -0.059082, -0.2851562, -13.1707315, -6.5243902, -1.7073171, -0.0124208
0.949707, -0.065918, -0.2900391, -14.3292685, -8.2317076, -1.4634147, -0.0140993
0.9550781, -0.0771484, -0.2973633, -14.7560978, -9.0243902, -1.097561, -0.0171206
0.9599609, -0.0800781, -0.2993164, -15.3658543, -9.1463413, -0.5487805, -0.0218204
0.9692383, -0.0756836, -0.2983398, -15.3048782, -7.8658538, -0.7926829, -0.0325628
0.9707031, -0.0727539, -0.2983398, -14.9390249, -7.1341467, -0.5487805, -0.0500191
0.9633789, -0.0620117, -0.3027344, -14.2682934, -6.7682929, -0.7926829, -0.0621042
0.9614258, -0.0541992, -0.3164062, -15.1219511, -7.2560978, -0.9146342, -0.0694896
0.9609375, -0.0532227, -0.3208008, -15.9146347, -8.1707315, -0.1219512, -0.0715038
0.9667969, -0.065918, -0.3193359, -16.5853653, -8.4756098, 0.0609756, -0.0755322
0.9697266, -0.0678711, -0.315918, -16.6463413, -8.4146347, 0.5487805, -0.0721752
0.9707031, -0.0737305, -0.3071289, -16.5243912, -8.1097565, 0.9756098, -0.0688182
0.9726562, -0.0683594, -0.3046875, -15.8536587, -7.2560978, 1.2804878, -0.0661326
0.9624023, -0.0678711, -0.3095703, -15.4878054, -6.7073174, 1.097561, -0.0621042
0.9599609, -0.0634766, -0.309082, -16.1585369, -6.5243902, 0.9756098, -0.0641184
0.956543, -0.0649414, -0.3056641, -16.5853653, -7.3170733, 1.2195122, -0.0621042
0.9589844, -0.065918, -0.3056641, -16.8292694, -7.3170733, 1.2195122, -0.0647898
0.9667969, -0.0771484, -0.3071289, -16.6463413, -8.2926826, 1.4634147, -0.0661326
0.9819336, -0.0864258, -0.3017578, -16.3414631, -7.9878049, 1.6463414, -0.0654612
0.9863281, -0.0854492, -0.3017578, -15.7926836, -7.5609756, 1.7682927, -0.0607614
0.9858398, -0.0888672, -0.2978516, -15.2439032, -7.2560978, 1.6463414, -0.0553902
0.9863281, -0.0913086, -0.2949219, -14.6951227, -6.1585369, 1.402439, -0.06009
0.9726562, -0.0927734, -0.2900391, -14.6341467, -5.9756098, 1.097561, -0.0607614
0.9741211, -0.0888672, -0.2924805, -14.3292685, -5.9146342, 0.9146342, -0.0540475
0.9667969, -0.0908203, -0.2905273, -14.5731707, -6.1585369, 0.9756098, -0.0453193
0.9702148, -0.0922852, -0.2880859, -14.6951227, -6.8292685, 0.8536586, -0.0342412
0.9736328, -0.0952148, -0.2836914, -14.2682934, -7.0121951, 0.9756098, -0.0298772
0.9750977, -0.0952148, -0.28125, -13.9024391, -6.9512196, 0.7317073, -0.0271916
0.9638672, -0.0834961, -0.2851562, -13.7195129, -6.280488, 0.3048781, -0.0292058
0.9521484, -0.0800781, -0.2939453, -13.780488, -6.1585369, 0.6707317, -0.0352483
0.9516602, -0.081543, -0.293457, -14.2073174, -6.4024391, 0.3658537, -0.0446479
0.9560547, -0.0854492, -0.2890625, -14.2682934, -7.0731707, 0.4878049, -0.0500191
0.9584961, -0.0864258, -0.284668, -14.1463413, -7.5609756, 0.3658537, -0.0540475
0.9663086, -0.0751953, -0.2880859, -14.0243902, -7.1951222, 0.3048781, -0.0540475
0.96875, -0.0756836, -0.293457, -13.5365858, -7.0121951, 0.0609756, -0.0584115
0.9619141, -0.0727539, -0.3105469, -14.0853662, -6.9512196, -0.0609756, -0.0594186
0.9624023, -0.0708008, -0.315918, -14.8170738, -7.1341467, 0.4878049, -0.0607614
0.9604492, -0.065918, -0.3251953, -15.6707325, -7.3170733, 1.3414634, -0.0637827
0.965332, -0.0615234, -0.3261719, -16.1585369, -7.1951222, 1.5243902, -0.0627756
0.9589844, -0.046875, -0.3256836, -16.6463413, -6.5853658, 1.7682927, -0.0661326
0.9584961, -0.0307617, -0.3276367, -16.4024391, -6.2195125, 1.8902439, -0.0691539
0.9604492, -0.0297852, -0.3242188, -16.7682934, -6.0365853, 2.6219513, -0.0651255
0.9658203, -0.0410156, -0.3237305, -17.1341476, -6.4634147, 2.6829269, -0.0607614
0.9682617, -0.0517578, -0.3183594, -18.2926826, -6.7073174, 3.4756098, -0.0594186
0.9750977, -0.0761719, -0.3041992, -18.7195129, -7.3780489, 3.8414636, -0.0587472
0.9770508, -0.0859375, -0.3022461, -18.7195129, -7.1341467, 4.5121951, -0.0570687
0.9731445, -0.0966797, -0.3007812, -18.4756107, -6.9512196, 4.5731707, -0.056733
0.9707031, -0.0996094, -0.3022461, -17.9878044, -6.3414636, 4.4512196, -0.0570687
0.9707031, -0.0917969, -0.309082, -17.6219521, -6.0975609, 3.9634147, -0.0527047
0.9731445, -0.0869141, -0.3129883, -17.6219521, -5.9756098, 3.9634147, -0.0493477
0.9794922, -0.0834961, -0.3193359, -17.8658543, -5.9756098, 3.7195122, -0.0392767
0.9902344, -0.0751953, -0.3134766, -17.8658543, -6.0365853, 3.3536587, -0.0352483
0.9960938, -0.0791016, -0.3134766, -17.9878044, -6.0975609, 3.8414636, -0.0258488
1.0024414, -0.0957031, -0.3149414, -18.1097565, -6.2195125, 3.9634147, -0.024506
1.0063477, -0.1049805, -0.3129883, -17.6219521, -6.3414636, 4.0853658, -0.0224918
1.0068359, -0.1245117, -0.3085938, -17.2560978, -6.4634147, 4.2073174, -0.0174563
1.003418, -0.1298828, -0.3061523, -16.4634151, -5.9146342, 3.9634147, -0.017792
0.9824219, -0.1313477, -0.2998047, -15.2439032, -5.4878049, 3.6585367, -0.0258488
0.9702148, -0.1328125, -0.2958984, -15, -5.0609756, 3.0487804, -0.024506
0.9594727, -0.1279297, -0.2958984, -14.6951227, -4.9390244, 2.9268293, -0.0224918
0.9545898, -0.1220703, -0.2895508, -14.3292685, -5.3658538, 2.9268293, -0.0258488
0.9570312, -0.1030273, -0.2695312, -13.780488, -5.3658538, 2.1341465, -0.0285344
0.9580078, -0.0942383, -0.2617188, -13.7195129, -5.4878049, 2.0731707, -0.03122
0.9619141, -0.097168, -0.2631836, -13.5975609, -6.7682929, 1.402439, -0.0298772
0.9707031, -0.1049805, -0.2758789, -13.780488, -7.6829271, 1.6463414, -0.0292058
0.9746094, -0.1132812, -0.2788086, -14.2073174, -8.9024391, 2.4390244, -0.0325628
0.9907227, -0.1245117, -0.28125, -14.0853662, -9.5121956, 2.6219513, -0.0339055
0.9907227, -0.1289062, -0.2856445, -13.2317076, -10.3048782, 2.8658538, -0.0332341
0.9853516, -0.1337891, -0.2958984, -11.5243902, -9.6341467, 2.4390244, -0.0332341
0.984375, -0.1269531, -0.3022461, -10.9756098, -9.5121956, 2.3170731, -0.0325628
0.9799805, -0.1074219, -0.3120117, -10.3658543, -8.9024391, 2.1341465, -0.0325628
0.9760742, -0.0952148, -0.3188477, -10.3048782, -9.2073174, 2.195122, -0.0298772
0.9624023, -0.0751953, -0.3251953, -10.6707315, -9.5121956, 2.6219513, -0.0191348
0.956543, -0.0517578, -0.3486328, -11.341464, -10.060976, 3.2317073, -0.011078
0.9560547, -0.0419922, -0.3608398, -12.8658543, -11.0975609, 4.4512196, -0.0050355
0.9614258, -0.034668, -0.3774414, -14.3902445, -11.4024391, 5.1219511, -0.0016785
0.9667969, -0.0327148, -0.3764648, -15.6707325, -11.5853662, 6.0365853, -0.0137636
0.9741211, -0.0375977, -0.3671875, -16.4634151, -11.7682934, 6.6463418, -0.0238346
0.9780273, -0.0439453, -0.3608398, -17.2560978, -11.5853662, 7.6829271, -0.0251774
0.9711914, -0.0576172, -0.3535156, -18.4146347, -11.7073174, 8.4146347, -0.0231632
0.9711914, -0.065918, -0.3476562, -19.2073174, -11.7073174, 8.780488, -0.0151064
0.9677734, -0.0771484, -0.3378906, -20.2439022, -11.9512196, 9.5731707, -0.0070497
0.9614258, -0.0830078, -0.3354492, -20.8536587, -12.1341467, 10.060976, -0.0016785
0.9589844, -0.0830078, -0.3217773, -21.1585369, -12.1341467, 10.6707315, 0.0010071
0.9599609, -0.0795898, -0.3198242, -21.280489, -12.0121956, 10.6707315, -0.0016785
0.9604492, -0.0732422, -0.3227539, -21.5243912, -11.8292685, 10.7926836, -0.0063783
0.9604492, -0.0649414, -0.3339844, -21.7073174, -11.8292685, 11.1585369, -0.010071
0.9609375, -0.0620117, -0.3413086, -23.2317085, -12.6219511, 11.9512196, -0.0204776
0.9697266, -0.0698242, -0.3466797, -23.9634151, -13.2317076, 11.9512196, -0.0231632
0.9736328, -0.0756836, -0.3500977, -25.4268303, -13.9634151, 12.2560978, -0.0191348
0.9702148, -0.0898438, -0.3408203, -25.9756107, -15.1219511, 12.4390249, -0.0198062
0.9716797, -0.0952148, -0.3354492, -26.0975609, -15.6097565, 12.0731707, -0.0238346
0.96875, -0.121582, -0.3271484, -25.9146347, -16.0975609, 11.8902445, -0.0285344
0.9692383, -0.1303711, -0.328125, -25.8536587, -16.6463413, 11.4634151, -0.0365911
0.9628906, -0.1357422, -0.3232422, -25.6707325, -16.7682934, 11.1585369, -0.0463264
0.9550781, -0.1240234, -0.3125, -25.5487804, -16.6463413, 11.280488, -0.0513619
0.9521484, -0.1157227, -0.3076172, -24.8780499, -16.6463413, 10.8536587, -0.0540475
0.9404297, -0.1069336, -0.2963867, -24.8170738, -16.7682934, 10.5487804, -0.0647898
0.9394531, -0.0996094, -0.2983398, -24.5731716, -18.5975609, 10.1219511, -0.073518
0.9331055, -0.1030273, -0.3134766, -25, -20.1829281, 10, -0.0788891
0.9301758, -0.1015625, -0.3276367, -26.7682934, -23.9024391, 10.8536587, -0.076875
0.9355469, -0.1040039, -0.340332, -28.0487804, -25.5487804, 12.3780489, -0.0829175
0.9438477, -0.1000977, -0.3334961, -27.9268303, -25.6707325, 12.9268293, -0.0866102
0.949707, -0.0878906, -0.3256836, -28.2317085, -25.9146347, 12.6219511, -0.0825818
0.9575195, -0.0883789, -0.3242188, -27.9268303, -26.7073174, 12.1341467, -0.0795605
0.9663086, -0.0976562, -0.3349609, -29.0243912, -29.8170738, 11.5853662, -0.0688182
0.9731445, -0.1074219, -0.3393555, -30.1219521, -31.4024391, 12.0731707, -0.0647898
0.9804688, -0.1118164, -0.3339844, -31.1585369, -33.0487823, 12.6219511, -0.063447
0.9912109, -0.1020508, -0.3183594, -31.0975609, -33.1707306, 12.8658543, -0.063447
0.9956055, -0.0996094, -0.3139648, -29.5121956, -33.5975609, 13.1097565, -0.0651255
0.984375, -0.1035156, -0.3154297, -28.9024391, -34.3292694, 12.8658543, -0.0718395
0.9750977, -0.105957, -0.3227539, -27.9878063, -36.4024391, 13.1707315, -0.070161
0.9545898, -0.1186523, -0.3393555, -28.3536587, -38.9634171, 14.2073174, -0.0621042
0.9501953, -0.121582, -0.3520508, -29.0853672, -40.1219521, 14.8780489, -0.0547189
0.9365234, -0.1176758, -0.3701172, -29.9390259, -41.341465, 16.0365849, -0.0433051
0.9389648, -0.1054688, -0.3886719, -29.8780499, -41.4634171, 16.4634151, -0.0459907
0.9487305, -0.0976562, -0.3911133, -29.7560978, -41.7682953, 16.2195129, -0.0553902
0.9604492, -0.0961914, -0.3974609, -30.3658543, -42.2560997, 15.7317076, -0.0480049
0.9658203, -0.1020508, -0.4008789, -30.9756107, -44.4512215, 14.8780489, -0.0406195
0.9770508, -0.1220703, -0.4033203, -31.6463413, -45.6097565, 15.1219511, -0.0204776
0.9726562, -0.1274414, -0.4072266, -32.0731697, -46.341465, 15.7926836, -0.0043641
0.9624023, -0.1259766, -0.4223633, -32.3780479, -45.9146347, 16.1585369, 0.0070497
0.9638672, -0.1210938, -0.4321289, -31.2195129, -45.3048782, 16.9512196, 0.0127565
0.9575195, -0.1098633, -0.4492188, -30.5487804, -45.0609779, 16.7073174, 0.0097353
0.953125, -0.1147461, -0.456543, -30.7926846, -45.5487823, 16.5243912, -0.0010071
0.9609375, -0.1240234, -0.4584961, -31.7682934, -47.1341476, 16.4024391, -0.0137636
0.9711914, -0.1494141, -0.4321289, -32.1341476, -47.9878044, 16.3414631, -0.024506
0.9755859, -0.1660156, -0.4169922, -32.6219521, -48.9024391, 16.4024391, -0.0238346
0.9609375, -0.184082, -0.4047852, -32.5, -49.1463432, 16.2195129, -0.0224918
0.9550781, -0.1889648, -0.4042969, -30.6707325, -48.841465, 16.4634151, -0.0224918
0.9365234, -0.1728516, -0.40625, -29.8780499, -48.5365868, 16.5853653, -0.0201419
0.9326172, -0.1557617, -0.4077148, -28.4756107, -47.9268303, 16.8292694, -0.0191348
0.9326172, -0.1152344, -0.4111328, -28.2926826, -47.8048782, 16.7073174, -0.0265202
0.9389648, -0.1030273, -0.4155273, -28.5365868, -49.2682953, 15.9756098, -0.0386053
0.9667969, -0.1079102, -0.4213867, -30, -53.5975609, 14.3902445, -0.0547189
0.9760742, -0.1259766, -0.425293, -30.7926846, -56.0365868, 14.2073174, -0.066804
0.9951172, -0.1767578, -0.4291992, -31.4024391, -58.841465, 14.5731707, -0.0822461
0.9956055, -0.2109375, -0.4091797, -30.4878063, -59.2073174, 15.1219511, -0.0842603
0.9931641, -0.2216797, -0.402832, -27.6219521, -57.6219521, 15.6707325, -0.0745251
0.96875, -0.222168, -0.4257812, -25.6097565, -56.341465, 15.8536587, -0.0594186
0.9526367, -0.2045898, -0.4477539, -22.560976, -55.2439041, 15.7317076, -0.0486763
0.9282227, -0.1635742, -0.5014648, -21.5243912, -55.3048782, 15.7926836, -0.0359197
0.9301758, -0.1450195, -0.5214844, -21.0975609, -56.341465, 15.4878054, -0.0302129
0.9526367, -0.1186523, -0.5327148, -21.1585369, -57.4390259, 15.3048782, -0.0339055
0.9726562, -0.1118164, -0.5307617, -21.5853672, -58.9024391, 14.9390249, -0.0372625
0.9975586, -0.1274414, -0.5078125, -21.0365868, -59.3292694, 15, -0.0473335
1.0009766, -0.137207, -0.4960938, -20.9146347, -58.7804909, 15.4878054, -0.063447
0.9873047, -0.1411133, -0.4824219, -19.2073174, -57.3170738, 17.1951218, -0.0755322
0.9545898, -0.1337891, -0.4829102, -18.9024391, -56.4634171, 17.9878044, -0.0849317
0.9404297, -0.1264648, -0.4921875, -18.0487804, -56.2804909, 19.3902435, -0.0862745
0.9155273, -0.1147461, -0.5229492, -17.9878044, -57.1951218, 19.939024, -0.0963455
0.9169922, -0.1108398, -0.5351562, -18.9024391, -59.3902435, 20.7317085, -0.102388
0.934082, -0.1162109, -0.5512695, -19.8780499, -60.6097565, 21.1585369, -0.0983597
0.9555664, -0.1181641, -0.5493164, -21.0365868, -61.6463432, 21.6463413, -0.0849317
0.9858398, -0.1298828, -0.5458984, -20.7926826, -61.5853691, 22.0121956, -0.0748608
0.9897461, -0.1391602, -0.5375977, -20.060976, -60.5487823, 22.439024, -0.0647898
0.9863281, -0.1547852, -0.5146484, -18.6585369, -59.0243912, 23.0487804, -0.0621042
0.9853516, -0.1621094, -0.5029297, -18.0487804, -58.4146347, 23.7195129, -0.0621042
0.965332, -0.1645508, -0.4887695, -17.8048782, -57.68293, 24.6341476, -0.0627756
0.9536133, -0.1665039, -0.4697266, -18.4756107, -58.1097565, 24.5731716, -0.0621042
0.953125, -0.1650391, -0.4628906, -19.4512196, -59.1463432, 24.6341476, -0.0674754
0.9492188, -0.168457, -0.4663086, -19.939024, -60.2439041, 24.0853672, -0.0624399
0.9541016, -0.175293, -0.4814453, -20.9756107, -62.3780518, 23.4146347, -0.0594186
0.9555664, -0.1933594, -0.5239258, -21.5853672, -63.6585388, 23.6585369, -0.06009
0.9589844, -0.1972656, -0.5507812, -22.0121956, -65.3658524, 24.1463413, -0.0560616
0.965332, -0.1923828, -0.5722656, -21.8902435, -65.4268341, 24.4512196, -0.0513619
0.9731445, -0.1904297, -0.5727539, -20.3048782, -64.8170776, 25.060976, -0.0473335
0.9692383, -0.1875, -0.5483398, -18.1097565, -63.9024391, 24.5121956, -0.0463264
0.9633789, -0.1914062, -0.5336914, -17.2560978, -63.7195129, 24.3292694, -0.0433051
0.9389648, -0.190918, -0.5209961, -16.7073174, -64.0853653, 25.1219521, -0.0392767
0.9208984, -0.1748047, -0.5141602, -16.6463413, -64.3902435, 25.9146347, -0.0342412
0.9189453, -0.1650391, -0.5058594, -17.2560978, -64.9390259, 26.4024391, -0.0251774
0.9248047, -0.1513672, -0.503418, -17.439024, -65.8536606, 26.4024391, -0.0181277
0.9291992, -0.1513672, -0.5073242, -18.4756107, -68.0487823, 25.4268303, -0.0097353
0.9399414, -0.1621094, -0.5209961, -19.0853672, -69.5121994, 25.1829281, -0.0083925
0.9394531, -0.1704102, -0.5249023, -19.939024, -71.6463394, 25.7317085, -0.0083925
0.9555664, -0.1889648, -0.5263672, -20.1219521, -72.68293, 26.4634151, -0.0090639
0.9589844, -0.1938477, -0.5253906, -19.6341476, -72.9878082, 27.0121956, -0.011078
0.9541016, -0.1831055, -0.5258789, -18.5365849, -72.0121994, 27.1341476, -0.0124208
0.9448242, -0.1811523, -0.5253906, -18.4756107, -71.5243912, 27.4390259, -0.0164492
0.9360352, -0.1699219, -0.5107422, -18.5975609, -72.3780518, 27.0121956, -0.021149
0.9389648, -0.1850586, -0.4853516, -19.2682934, -73.4146347, 26.5243912, -0.024506
0.9418945, -0.1982422, -0.46875, -19.8170738, -76.1585388, 25.4878063, -0.0271916
0.9355469, -0.2304688, -0.4604492, -19.5121956, -77.5, 25.3658543, -0.0359197
0.9262695, -0.2387695, -0.4667969, -18.7195129, -80.1219559, 26.0365868, -0.0426337
0.9169922, -0.246582, -0.4916992, -17.8658543, -81.5853653, 26.2195129, -0.0446479
0.9101562, -0.2387695, -0.5097656, -14.3292685, -83.4146347, 26.5853672, -0.0473335
0.9189453, -0.2182617, -0.5527344, -12.560976, -83.9634171, 25.9756107, -0.0480049
0.9257812, -0.203125, -0.574707, -10.4878054, -83.6585388, 25.5487804, -0.0647898
0.9350586, -0.1831055, -0.5932617, -10.7926836, -83.1707306, 25.5487804, -0.0822461
0.940918, -0.1713867, -0.5883789, -11.6463413, -83.1707306, 25.5487804, -0.0835889
0.9448242, -0.1635742, -0.5639648, -12.6219511, -82.5, 25.9756107, -0.0788891
0.9311523, -0.1591797, -0.5678711, -12.4390249, -82.6219559, 25.7926826, -0.0681468
0.9204102, -0.159668, -0.5786133, -12.4390249, -83.3536606, 26.4024391, -0.056733
0.9038086, -0.1650391, -0.6289062, -12.6829271, -83.8414688, 26.7073174, -0.0459907
0.8979492, -0.1669922, -0.6474609, -14.3292685, -85.18293, 28.1097565, -0.0345769
0.8974609, -0.1674805, -0.6538086, -15.4878054, -85.4878082, 28.780489, -0.0352483
0.9038086, -0.1621094, -0.6376953, -16.6463413, -83.4146347, 29.2073174, -0.0339055
0.9130859, -0.1523438, -0.6035156, -16.7073174, -82.1341476, 29.1463413, -0.0328985
0.9111328, -0.1572266, -0.5942383, -17.2560978, -80.9756088, 28.5365868, -0.0372625
0.8916016, -0.1806641, -0.5737305, -18.7195129, -82.9268341, 28.6585369, -0.0409552
0.8901367, -0.199707, -0.5571289, -19.5731716, -84.3292694, 29.0853672, -0.0459907
0.8842773, -0.2363281, -0.5205078, -19.3902435, -86.8902435, 29.8170738, -0.0466621
0.8769531, -0.2480469, -0.5268555, -18.4756107, -87.0121994, 29.6951218, -0.0466621
0.8701172, -0.2436523, -0.543457, -16.2195129, -86.8902435, 29.4512196, -0.0449836
0.8637695, -0.2348633, -0.5883789, -15.7317076, -86.8292694, 28.9634151, -0.0446479
0.8642578, -0.2299805, -0.6103516, -15.1219511, -88.7195129, 27.8658543, -0.0392767
0.8662109, -0.2338867, -0.6582031, -15.4268293, -89.8170776, 27.4390259, -0.0339055
0.8725586, -0.237793, -0.6713867, -15.6707325, -92.0121994, 28.0487804, -0.0298772
0.9052734, -0.2416992, -0.6665039, -15.8536587, -92.5, 28.5365868, -0.0231632
0.9208984, -0.2387695, -0.659668, -15.1829271, -90.9756088, 29.0853672, -0.0218204
0.9262695, -0.2270508, -0.6489258, -14.0853662, -88.9024429, 28.4146347, -0.0275273
0.9165039, -0.2177734, -0.6533203, -14.0853662, -88.6585388, 28.1097565, -0.0325628
0.8813477, -0.199707, -0.6708984, -14.5731707, -88.4756088, 28.9024391, -0.0365911
0.8774414, -0.1870117, -0.6704102, -15, -89.3292694, 29.0853672, -0.0392767
0.8847656, -0.1821289, -0.6601562, -15.4878054, -90.9146347, 29.0853672, -0.0412909
0.8930664, -0.2001953, -0.6455078, -15.9146347, -91.8902435, 28.6585369, -0.0459907
0.8955078, -0.2163086, -0.6445312, -14.9390249, -94.5121994, 28.1707325, -0.0459907
0.8959961, -0.2612305, -0.6616211, -14.6951227, -95.9756088, 28.5975609, -0.0506905
0.9008789, -0.2807617, -0.6699219, -13.780488, -97.5609741, 29.6951218, -0.0520333
0.9091797, -0.2714844, -0.6948242, -12.6829271, -97.1951218, 30, -0.0540475
0.90625, -0.2553711, -0.699707, -10.6097565, -94.6951218, 30.2439022, -0.056733
0.8994141, -0.2260742, -0.6958008, -9.6951218, -92.1951218, 28.6585369, -0.0540475
0.8969727, -0.2094727, -0.6811523, -10.1829271, -92.1951218, 27.9878063, -0.0503548
0.8974609, -0.2114258, -0.6411133, -11.6463413, -94.3292694, 26.6463413, -0.0459907
0.8920898, -0.2304688, -0.6376953, -12.0731707, -96.4024429, 26.280489, -0.0459907
0.8916016, -0.2421875, -0.6508789, -13.2317076, -100.1219559, 25.8536587, -0.0486763
0.8911133, -0.2646484, -0.6782227, -12.9268293, -101.7682953, 26.2195129, -0.0493477
0.890625, -0.2763672, -0.6977539, -11.6463413, -103.2317123, 26.0975609, -0.0473335
0.8862305, -0.2763672, -0.7304688, -10.4878054, -103.2926865, 26.0365868, -0.0493477
0.8808594, -0.2729492, -0.7460938, -9.0853662, -102.2561035, 26.6463413, -0.049012
0.8730469, -0.2539062, -0.7519531, -8.841464, -101.4024429, 26.4024391, -0.0433051
0.8701172, -0.2441406, -0.7504883, -9.3902445, -100.2439041, 25.9146347, -0.0339055
0.875, -0.2124023, -0.7324219, -11.0975609, -100.6097565, 25.6707325, -0.0305486
0.8745117, -0.1977539, -0.715332, -11.8292685, -100.6707306, 26.0975609, -0.0433051
0.8691406, -0.1811523, -0.6757812, -13.5975609, -101.5243912, 25.8536587, -0.0466621
0.8481445, -0.175293, -0.671875, -13.841464, -102.5, 26.0365868, -0.0419623
0.8461914, -0.1816406, -0.6791992, -14.0853662, -104.6341476, 26.1585369, -0.0345769
0.831543, -0.2070312, -0.699707, -13.9634151, -106.2195129, 26.6463413, -0.0392767
0.8310547, -0.222168, -0.7109375, -13.6585369, -108.7804871, 27.560976, -0.0352483
0.8393555, -0.262207, -0.7246094, -13.4146347, -109.5731735, 28.1707325, -0.024506
0.8374023, -0.2788086, -0.7392578, -12.3170738, -110.4268341, 28.780489, -0.017792
0.8369141, -0.2792969, -0.8037109, -10.7317076, -110.36586, 29.3902454, -0.0090639
0.8305664, -0.2666016, -0.8422852, -10.1219511, -109.5731735, 29.4512196, -0.0003357
0.8408203, -0.2167969, -0.9023438, -10.4268293, -106.8292694, 29.4512196, -0.0003357
0.8510742, -0.1943359, -0.9023438, -11.4634151, -105.18293, 28.9634151, -0.0083925
0.8754883, -0.1611328, -0.8535156, -14.2682934, -101.9512253, 27.8048782, -0.0151064
0.8710938, -0.1616211, -0.7802734, -15.3048782, -101.0975647, 27.6219521, -0.0198062
0.8618164, -0.1655273, -0.7529297, -16.5243912, -100.3658524, 27.9878063, -0.0271916
0.8291016, -0.190918, -0.7441406, -16.7682934, -100.9756088, 28.5975609, -0.0365911
0.8139648, -0.2080078, -0.7558594, -16.4634151, -103.3536606, 30.060976, -0.0419623
0.7832031, -0.2363281, -0.7963867, -16.1585369, -104.8780518, 30.7317085, -0.0473335
0.7817383, -0.2480469, -0.809082, -15.7317076, -106.4634171, 31.6463413, -0.0540475
0.7670898, -0.2675781, -0.7788086, -14.3292685, -105.5487823, 33.3536606, -0.0553902
0.796875, -0.2578125, -0.7763672, -13.5975609, -105.2439041, 33.1097565, -0.0580758
0.8208008, -0.2368164, -0.7651367, -14.0243902, -103.9024429, 30.1219521, -0.0594186
0.8173828, -0.2241211, -0.7592773, -14.8170738, -103.3536606, 29.0243912, -0.063447
0.7802734, -0.2109375, -0.7670898, -15.7926836, -102.9878082, 28.2317085, -0.0594186
0.7485352, -0.21875, -0.7929688, -15.7926836, -104.146347, 28.6585369, -0.0580758
0.7412109, -0.2250977, -0.8105469, -16.280489, -107.68293, 30, -0.0500191
0.7583008, -0.2441406, -0.8349609, -16.4024391, -109.2682953, 30.7926846, -0.0503548
0.7739258, -0.2519531, -0.8349609, -16.2195129, -110.2439041, 31.7073174, -0.0506905
0.7983398, -0.2626953, -0.8100586, -15.9146347, -109.8170776, 31.7073174, -0.0446479
0.809082, -0.2646484, -0.793457, -15.3658543, -108.2926865, 31.2195129, -0.0459907
0.8115234, -0.2734375, -0.7680664, -15.3048782, -107.4390259, 29.6951218, -0.0459907
0.8037109, -0.2768555, -0.7514648, -14.9390249, -107.9268341, 28.9634151, -0.0486763
0.7646484, -0.2841797, -0.7485352, -14.3292685, -110, 28.1707325, -0.049012
0.7421875, -0.2768555, -0.765625, -13.780488, -110.9146347, 27.8658543, -0.0527047
0.7109375, -0.2583008, -0.8125, -12.8658543, -113.1707306, 27.560976, -0.0584115
0.7094727, -0.246582, -0.847168, -12.560976, -113.7195129, 27.3170738, -0.0624399
0.7172852, -0.2392578, -0.8525391, -13.4146347, -115.3048782, 26.9512196, -0.0654612
0.7363281, -0.2382812, -0.8759766, -14.1463413, -116.1585388, 27.0121956, -0.0694896
0.7446289, -0.2338867, -0.8847656, -15, -117.0121994, 27.9878063, -0.070161
0.753418, -0.2246094, -0.894043, -14.9390249, -116.9512253, 28.4146347, -0.063447
0.7607422, -0.2192383, -0.8964844, -14.2073174, -115.5487823, 29.2073174, -0.0607614
0.7558594, -0.2192383, -0.8950195, -13.6585369, -114.146347, 29.8780499, -0.0587472
0.7470703, -0.2265625, -0.8935547, -13.5975609, -114.0853653, 30.3658543, -0.0597543
0.730957, -0.2475586, -0.8916016, -12.8658543, -115.18293, 31.4634151, -0.0580758
0.7285156, -0.25, -0.8999023, -12.3780489, -115.7926865, 31.5853672, -0.0553902
0.7280273, -0.2666016, -0.9287109, -11.7682934, -116.646347, 32.1951218, -0.0577401
0.734375, -0.2753906, -0.9418945, -11.6463413, -116.8902435, 32.1341476, -0.0527047
0.7431641, -0.2802734, -0.9370117, -11.6463413, -116.3414688, 31.7073174, -0.0553902
0.7441406, -0.2749023, -0.9130859, -11.7682934, -115.4878082, 31.280489, -0.0580758
0.7333984, -0.2607422, -0.902832, -11.8292685, -113.3536606, 30.7926846, -0.0607614
0.7006836, -0.2124023, -0.9111328, -11.4634151, -111.8292694, 30.6097565, -0.0597543
0.6811523, -0.1816406, -0.9243164, -11.6463413, -110.7317123, 30.1829281, -0.070161
0.6542969, -0.159668, -0.9345703, -13.5975609, -112.5, 30.8536587, -0.076875
0.6586914, -0.1713867, -0.9291992, -15.1219511, -114.2682953, 31.7073174, -0.0822461
0.6811523, -0.2260742, -0.8955078, -18.4756107, -117.9878082, 34.4512215, -0.0758679
0.6894531, -0.2607422, -0.8798828, -18.7195129, -119.0243912, 35.6097565, -0.0728466
0.6899414, -0.3022461, -0.8735352, -16.4634151, -119.3292694, 36.9512215, -0.0654612
0.6616211, -0.2749023, -0.921875, -14.6951227, -118.4756088, 37.2560997, -0.0574044
0.6425781, -0.2412109, -0.9501953, -12.8658543, -115.7926865, 37.0731697, -0.0459907
0.6303711, -0.1826172, -0.9667969, -12.9878054, -114.7561035, 36.1585388, -0.0258488
0.6274414, -0.1723633, -0.9536133, -16.0365849, -114.8780518, 35.4878044, -0.0063783
0.6333008, -0.2084961, -0.9121094, -17.8658543, -116.0365906, 35.7926826, 0.0097353
0.6401367, -0.2382812, -0.8955078, -20.4878044, -119.8170776, 37.6829262, 0.0164492
0.6503906, -0.2861328, -0.8984375, -19.8780499, -122.5, 39.2682953, 0.0174563
0.6533203, -0.3037109, -0.9047852, -18.4756107, -122.8048782, 39.2073174, 0.0157778
0.6381836, -0.3183594, -0.9350586, -15.3048782, -121.8292694, 38.9634171, 0.0104067
0.6035156, -0.3056641, -0.9921875, -14.0853662, -120.9756088, 38.9634171, 0.0050355
0.5908203, -0.2871094, -1.0175781, -13.841464, -120.1219559, 38.6585388, -0.0050355
0.5947266, -0.2631836, -1.0356445, -13.9024391, -120.0609818, 38.841465, -0.0117494
0.609375, -0.2539062, -1.0258789, -15.060976, -119.7561035, 38.2926826, -0.0191348
0.6303711, -0.2641602, -0.9814453, -15.4268293, -119.6341476, 37.4390259, -0.0298772
0.6303711, -0.2763672, -0.9682617, -15.9146347, -119.2682953, 36.6463432, -0.0386053
0.612793, -0.3056641, -0.9726562, -15.1219511, -119.2682953, 36.8902435, -0.0433051
0.6049805, -0.3217773, -0.9892578, -12.7439032, -120.6097565, 38.5975609, -0.0419623
0.5976562, -0.3383789, -1.0170898, -8.9634151, -121.8292694, 39.7560997, -0.0392767
0.6044922, -0.3457031, -1.0166016, -7.5, -121.7073212, 39.8780479, -0.0365911
0.6166992, -0.355957, -1.0009766, -4.8780489, -119.8170776, 39.0853653, -0.0453193
0.6064453, -0.3422852, -0.9995117, -3.5365853, -118.4756088, 38.2926826, -0.0419623
0.5917969, -0.324707, -1.0029297, -2.195122, -116.8292694, 36.9512215, -0.0406195
0.5634766, -0.2836914, -1.0043945, -2.1341465, -116.5853653, 36.5243912, -0.0352483
0.5541992, -0.2612305, -1.0053711, -2.804878, -116.1585388, 35.6097565, -0.0271916
0.5385742, -0.2265625, -1.0053711, -3.2317073, -116.1585388, 35.4878044, -0.027863
0.5332031, -0.2226562, -1.0048828, -4.9390244, -117.4390259, 35.4268303, -0.0271916
0.5371094, -0.2324219, -0.9912109, -6.4024391, -118.4756088, 35.8536606, -0.027863
0.543457, -0.2451172, -0.9770508, -8.2926826, -120.18293, 37.9268303, -0.0315557
0.5620117, -0.2875977, -0.9355469, -8.3536587, -120.4878082, 39.1463432, -0.0365911
0.5620117, -0.3012695, -0.9174805, -7.6219516, -119.8780518, 39.1463432, -0.0419623
0.519043, -0.3203125, -0.9213867, -6.3414636, -119.0853653, 38.7195129, -0.0406195
0.4575195, -0.3183594, -0.9819336, -5.5487804, -119.6341476, 38.4146347, -0.0446479
0.4414062, -0.3134766, -1.0131836, -5.4268293, -122.3170776, 39.5731735, -0.0433051
0.4453125, -0.2993164, -1.0317383, -6.1585369, -123.3536606, 40.2439041, -0.0433051
0.4589844, -0.2866211, -1.0214844, -8.4146347, -124.4512253, 39.5731735, -0.0419623
0.4819336, -0.2587891, -0.9907227, -9.3902445, -123.9024429, 39.2073174, -0.0406195
0.4887695, -0.2543945, -0.9790039, -11.280488, -122.3780518, 37.8048782, -0.0446479
0.484375, -0.2617188, -0.9780273, -11.8292685, -122.68293, 38.1097565, -0.0493477
0.4755859, -0.2773438, -0.987793, -12.3170738, -125.5487823, 39.3292694, -0.0486763
0.4599609, -0.3237305, -1.0166016, -11.219512, -128.2317047, 41.8902435, -0.0480049
0.4614258, -0.3330078, -1.0234375, -9.6951218, -129.146347, 42.8658562, -0.0466621
0.4682617, -0.3515625, -1.0263672, -7.1341467, -128.2317047, 43.4146347, -0.0419623
0.4638672, -0.3500977, -1.0341797, -5.9756098, -127.1951218, 43.1097565, -0.0459907
0.4550781, -0.3447266, -1.0439453, -4.2682929, -124.7561035, 42.3170738, -0.0439765
0.4282227, -0.3271484, -1.0581055, -4.2682929, -124.3292694, 42.0731735, -0.0412909
0.418457, -0.3178711, -1.0678711, -4.2682929, -124.2073212, 41.6463432, -0.0446479
0.4116211, -0.3037109, -1.0644531, -4.390244, -124.2682953, 41.5243912, -0.0446479
0.4169922, -0.3012695, -1.0522461, -4.8170733, -124.9390259, 41.0365868, -0.0406195
0.4248047, -0.3217773, -1.0195312, -5.2439027, -125.36586, 40.9146347, -0.0396124
0.4238281, -0.3364258, -1.0146484, -4.8780489, -125.9146347, 41.2195129, -0.0426337
0.3974609, -0.3496094, -1.0292969, -3.4756098, -126.5853653, 42.6829262, -0.0419623
0.3857422, -0.3510742, -1.0449219, -2.5609756, -126.7073212, 43.2926826, -0.0473335
0.378418, -0.3300781, -1.0717773, -1.402439, -125.9146347, 43.7195129, -0.0446479
0.3745117, -0.2895508, -1.0585938, -1.4634147, -124.9390259, 43.1097565, -0.0446479
0.3774414, -0.2773438, -1.0390625, -2.2560976, -123.0487823, 42.0121956, -0.0433051
0.3769531, -0.2705078, -0.9995117, -2.804878, -122.9268341, 41.5853653, -0.0446479
0.3730469, -0.2773438, -0.9892578, -4.390244, -124.5731735, 42.2560997, -0.0433051
0.34375, -0.2963867, -0.9946289, -4.9390244, -125.7317123, 42.5609779, -0.0419623
0.3251953, -0.3037109, -1.019043, -4.8170733, -127.7439041, 43.6585388, -0.0392767
0.2949219, -0.3100586, -1.1044922, -4.7560978, -129.3902435, 44.3292694, -0.0433051
0.2978516, -0.3198242, -1.1367188, -4.0853658, -131.8902435, 46.8902435, -0.0412909
0.3554688, -0.3417969, -1.1318359, -4.4512196, -131.7682953, 49.3292694, -0.0369268
0.3916016, -0.3491211, -1.09375, -4.5731707, -129.8780518, 49.3292694, -0.0406195
0.4238281, -0.3520508, -1.0097656, -3.8414636, -124.0853653, 46.9512215, -0.0527047
0.3793945, -0.34375, -1.0048828, -3.3536587, -121.9512253, 45.7317085, -0.0654612
0.3369141, -0.3334961, -1.0263672, -2.1341465, -122.1951218, 44.3902435, -0.0540475
0.2724609, -0.3344727, -1.0908203, -1.5243902, -124.5731735, 44.7560997, -0.0379339
0.2734375, -0.3457031, -1.1015625, -1.4634147, -129.9390259, 46.6463432, -0.0258488
0.3061523, -0.3681641, -1.0751953, -1.5243902, -131.4634247, 47.3780518, -0.0184634
0.3242188, -0.3813477, -1.0556641, -0.1219512, -131.4634247, 46.6463432, -0.011078
0.3266602, -0.3901367, -1.043457, 1.097561, -130.1219482, 46.0975609, -0.0070497
0.3232422, -0.3813477, -1.0595703, 3.7195122, -128.2926788, 45.9146347, -0.0070497
0.3120117, -0.3564453, -1.0947266, 4.8780489, -127.7439041, 45.1219521, -0.0117494
0.3061523, -0.3417969, -1.0976562, 4.6951222, -127.68293, 44.6951218, -0.0137636
0.3081055, -0.3286133, -1.0644531, 2.5, -127.1341476, 44.1463432, -0.0164492
0.3046875, -0.3217773, -1.0205078, 1.402439, -126.5853653, 43.4146347, -0.0231632
0.2900391, -0.3222656, -1.0205078, -0.3048781, -127.9878082, 42.0121956, -0.0298772
0.2392578, -0.3017578, -1.0698242, -0.6707317, -128.9024353, 42.6219521, -0.0339055
0.2304688, -0.2905273, -1.0981445, -2.804878, -130.9146423, 43.3536606, -0.0325628
0.2387695, -0.2529297, -1.1103516, -4.2073174, -131.1585388, 43.5365868, -0.0265202
0.2485352, -0.2485352, -1.0878906, -8.2317076, -130.7926788, 42.6219521, -0.021149
0.265625, -0.2929688, -1.0224609, -10.5487804, -130.36586, 42.3170738, -0.0224918
0.2744141, -0.3193359, -1.0058594, -13.3536587, -131.4634247, 43.2317085, -0.0258488
0.2495117, -0.378418, -1.0009766, -12.0121956, -133.7195129, 44.2073174, -0.0426337
0.2407227, -0.3950195, -1.0092773, -10.1219511, -133.5365906, 44.4512215, -0.0580758
0.2280273, -0.4116211, -1.0307617, -6.0975609, -133.0487823, 42.1341476, -0.070161
0.1948242, -0.4072266, -1.0424805, -4.4512196, -131.4024353, 41.2195129, -0.076875
0.1757812, -0.3930664, -1.0507812, -2.9878049, -129.4512177, 40.0609779, -0.0782177
0.1503906, -0.3583984, -1.0673828, -3.0487804, -129.9390259, 39.9390259, -0.0775463
0.1474609, -0.3398438, -1.0717773, -3.5975611, -131.2804871, 39.0243912, -0.0775463
0.1582031, -0.3198242, -1.0795898, -4.2073174, -131.9512177, 38.2317085, -0.073518
0.1669922, -0.3222656, -1.0820312, -5.8536587, -133.9634247, 37.7439041, -0.0782177
0.1875, -0.3461914, -1.0810547, -6.1585369, -134.6341553, 37.9268303, -0.0762036
0.1938477, -0.3662109, -1.0825195, -5.609756, -136.5853729, 39.2073174, -0.0822461
0.2094727, -0.3876953, -1.0942383, -2.0731707, -135.6707306, 39.8780479, -0.0762036
0.2089844, -0.3891602, -1.1035156, 0.1829268, -134.6341553, 40.1829262, -0.0694896
0.1992188, -0.3740234, -1.1162109, 4.0853658, -131.0365906, 40.3048782, -0.0654612
0.1821289, -0.3457031, -1.1206055, 5.4268293, -129.3902435, 39.9390259, -0.0540475
0.1748047, -0.3413086, -1.1157227, 5.8536587, -128.3536682, 38.6585388, -0.0406195
0.1582031, -0.3417969, -1.1098633, 5.3048782, -128.8414612, 38.7804871, -0.0332341
0.1484375, -0.340332, -1.1113281, 3.1097562, -130.6097565, 39.5731735, -0.024506
0.1494141, -0.3286133, -1.0996094, 2.5, -130.7317047, 39.8170738, -0.017792
0.1513672, -0.3085938, -1.0839844, 1.3414634, -129.2073212, 38.6585388, -0.0157778
0.144043, -0.2675781, -1.0366211, 0.2439024, -127.4390259, 37.6219521, -0.014435
0.128418, -0.2573242, -1.015625, -2.7439024, -125.3048782, 36.1585388, -0.0198062
0.0859375, -0.2548828, -1.019043, -6.0365853, -128.4146423, 37.0121956, -0.03122
0.0683594, -0.2714844, -1.0297852, -7.1951222, -131.2195129, 37.9878044, -0.0439765
0.0668945, -0.3208008, -1.0478516, -9.5731707, -135.5487823, 39.8780479, -0.0553902
0.0859375, -0.3588867, -1.0439453, -9.9390249, -136.4634247, 40.9146347, -0.0647898
0.0878906, -0.3657227, -1.0493164, -9.3902445, -134.3902435, 40.9146347, -0.0728466
0.081543, -0.3457031, -1.0678711, -9.0243902, -132.6829224, 40.7926826, -0.0856031
0.0712891, -0.3164062, -1.078125, -9.2682924, -129.6341553, 39.6951218, -0.0933242
0.0620117, -0.2636719, -1.0952148, -9.8170738, -129.4512177, 39.1463432, -0.0916457
0.0634766, -0.2573242, -1.0883789, -12.4390249, -131.3414612, 38.2926826, -0.0943313
0.0893555, -0.2924805, -1.0292969, -14.3292685, -132.5609741, 38.4756088, -0.0929885
0.0942383, -0.3237305, -0.9980469, -16.4024391, -134.2682953, 39.8780479, -0.0839246
0.0800781, -0.3803711, -0.96875, -13.1707315, -133.6585388, 40.1829262, -0.0835889
0.0644531, -0.3925781, -0.9746094, -10.1829271, -132.9878082, 40.1829262, -0.0809033
0.0161133, -0.3808594, -1.0117188, -5.1219511, -131.5853729, 39.3902435, -0.0741894
-0.0161133, -0.3388672, -1.0532227, -3.9024391, -131.2804871, 38.7195129, -0.073518
-0.03125, -0.3183594, -1.0771484, -4.0243902, -131.7682953, 37.8658562, -0.0718395
-0.0307617, -0.2895508, -1.1186523, -5.5487804, -132.6219482, 37.8048782, -0.0674754
-0.0175781, -0.2851562, -1.1264648, -8.5975609, -134.6341553, 38.4756088, -0.0688182
0.027832, -0.2915039, -1.1166992, -9.8170738, -135.5487823, 38.5975609, -0.0715038
0.0483398, -0.3041992, -1.1020508, -11.5243902, -135.0609741, 39.4512215, -0.0688182
0.0708008, -0.3320312, -1.0595703, -10.9146347, -133.7195129, 40.3048782, -0.063447
0.0712891, -0.34375, -1.0429688, -7.5, -130.7926788, 41.2195129, -0.0607614
0.0532227, -0.3613281, -1.0424805, -3.1097562, -128.1097565, 41.1585388, -0.0584115
0.0351562, -0.362793, -1.0541992, -1.9512196, -127.3170776, 41.2804871, -0.056733
-0.0058594, -0.3544922, -1.1035156, -1.097561, -126.8902435, 40.9146347, -0.0547189
-0.0180664, -0.3330078, -1.1240234, -1.9512196, -127.0731735, 40.6097565, -0.066804
-0.0107422, -0.3178711, -1.1098633, -5.4878049, -125.9756165, 40, -0.0664683
0.0073242, -0.2797852, -1.0380859, -7.3170733, -124.8780518, 38.9634171, -0.0621042
0.0117188, -0.2626953, -0.9912109, -11.219512, -121.9512253, 36.2804871, -0.0513619
-0.0219727, -0.2421875, -0.9233398, -13.1097565, -120.9146347, 35.2439041, -0.042298
-0.0541992, -0.2451172, -0.9106445, -16.0365849, -122.68293, 34.5121956, -0.0463264
-0.1108398, -0.265625, -0.9150391, -17.8658543, -127.4390259, 35.6097565, -0.0406195
-0.1269531, -0.2827148, -0.918457, -18.4756107, -129.8780518, 36.5243912, -0.0288701
-0.1450195, -0.3183594, -0.9223633, -19.1463413, -132.6219482, 37.1951218, -0.0137636
-0.1557617, -0.3398438, -0.9296875, -18.780489, -133.2317047, 37.9268303, -0.0097353
-0.1513672, -0.3691406, -0.9760742, -16.8902435, -134.3902435, 39.6341476, -0.0097353
-0.1162109, -0.3525391, -1.0200195, -15.8536587, -134.7561035, 40.3048782, -0.011078
-0.0859375, -0.3330078, -1.0307617, -14.9390249, -133.4756165, 39.2073174, -0.0164492
-0.0473633, -0.2949219, -0.9995117, -15.6097565, -131.8902435, 37.8658562, -0.0231632
-0.0444336, -0.2871094, -0.9780273, -17.560976, -128.7804871, 35.1219521, -0.0339055
-0.0791016, -0.2998047, -0.9448242, -18.4756107, -128.4756165, 35, -0.0419623
-0.1030273, -0.3120117, -0.9326172, -19.6341476, -129.5731812, 35.7317085, -0.0486763
-0.1518555, -0.3310547, -0.9472656, -18.3536587, -130.7317047, 37.3170738, -0.0587472
-0.168457, -0.3349609, -0.9667969, -16.7073174, -130.8536682, 37.8048782, -0.0553902
-0.1738281, -0.3374023, -0.9941406, -14.2073174, -131.3414612, 38.7804871, -0.0386053
-0.1552734, -0.3295898, -0.9873047, -12.9878054, -131.0975647, 38.841465, -0.0161135
-0.1171875, -0.3193359, -0.949707, -12.5, -129.5121918, 37.2560997, -0.0016785
-0.1210938, -0.3193359, -0.9501953, -12.560976, -128.4146423, 36.5243912, 0.0060426
-0.137207, -0.3261719, -0.9780273, -12.3170738, -128.8414612, 36.5243912, 0.0090639
-0.1499023, -0.3339844, -1.0136719, -11.8292685, -129.4512177, 36.8902435, 0.0090639
-0.1459961, -0.3271484, -1.0166016, -10.7317076, -129.2073212, 37.5609779, 0.0010071
-0.1225586, -0.3120117, -0.9863281, -10.1829271, -127.8048782, 37.4390259, -0.0097353
-0.1220703, -0.3022461, -0.9707031, -9.9390249, -123.9024429, 36.2804871, -0.0204776
-0.1435547, -0.2866211, -0.9824219, -10.6707315, -122.6219559, 36.2195129, -0.0285344
-0.1582031, -0.2866211, -0.996582, -11.0975609, -123.3536606, 36.5853653, -0.0302129
-0.1669922, -0.2890625, -1.0014648, -13.1097565, -125.3048782, 37.6219521, -0.0379339
-0.1616211, -0.2949219, -0.9916992, -13.780488, -124.4512253, 37.8048782, -0.0426337
-0.1694336, -0.2875977, -0.9790039, -13.841464, -121.5243912, 37.2560997, -0.0409552
-0.1669922, -0.2944336, -0.9418945, -13.780488, -120.9146347, 36.9512215, -0.0409552
-0.171875, -0.3061523, -0.9160156, -14.4512196, -120.6707382, 36.4024391, -0.0439765
-0.2036133, -0.3061523, -0.8803711, -15.4878054, -120.6097565, 36.5243912, -0.0486763
-0.2299805, -0.2885742, -0.8823242, -16.9512196, -120.18293, 36.2804871, -0.0500191
-0.2773438, -0.2363281, -0.8964844, -17.560976, -120.1219559, 35.3658562, -0.0708324
-0.2963867, -0.2177734, -0.8994141, -20.1829281, -121.2804871, 34.3292694, -0.0681468
-0.2954102, -0.2387695, -0.8652344, -24.0243912, -124.8780518, 34.6951218, -0.0560616
-0.2866211, -0.2724609, -0.840332, -25.3048782, -127.1951218, 35.6707344, -0.0426337
-0.2646484, -0.3354492, -0.828125, -24.0243912, -130.7926788, 37.1951218, -0.0218204
-0.262207, -0.3500977, -0.84375, -22.1341476, -131.4024353, 37.5609779, 0.0016785
-0.2646484, -0.3530273, -0.8793945, -18.7195129, -129.3902435, 36.341465, 0.0124208
-0.277832, -0.3266602, -0.8852539, -17.2560978, -127.3780518, 35.1219521, 0.0234989
-0.2919922, -0.3100586, -0.8945312, -16.7073174, -125.3048782, 32.9268303, 0.021149
-0.3188477, -0.2875977, -0.9077148, -17.1341476, -126.1585388, 32.7439041, 0.0164492
-0.3129883, -0.2807617, -0.9140625, -19.0853672, -129.0243988, 32.9878044, 0.0097353
-0.3022461, -0.2548828, -0.9311523, -20.4268303, -130.3048859, 32.6829262, 0.0090639
-0.3022461, -0.2485352, -0.9404297, -22.560976, -130.5487823, 31.9512196, 0.0104067
-0.2929688, -0.2529297, -0.9477539, -23.4756107, -129.8780518, 33.1707306, 0.0090639
-0.2807617, -0.2607422, -0.934082, -23.6585369, -129.0853729, 34.1463432, 0.0070497
-0.2597656, -0.28125, -0.894043, -23.2926826, -125.9756165, 35.2439041, -0.0016785
-0.2592773, -0.2915039, -0.8881836, -22.6829281, -124.2682953, 35.3048782, -0.0083925
-0.2900391, -0.3056641, -0.9248047, -21.0975609, -122.5609818, 35.6707344, -0.017792
-0.3193359, -0.2866211, -0.9936523, -21.3414631, -122.5609818, 35.9146347, -0.0292058
-0.3232422, -0.2709961, -1.0146484, -23.0487804, -122.8048782, 35.8536606, -0.0379339
-0.3110352, -0.2333984, -1.0131836, -24.6341476, -121.8902435, 35.4268303, -0.0480049
-0.3056641, -0.2167969, -0.9985352, -28.2317085, -119.2073212, 34.3902435, -0.0570687
-0.2973633, -0.2207031, -0.9580078, -30.3048782, -117.9878082, 34.1463432, -0.0604257
-0.2963867, -0.2373047, -0.9506836, -32.5, -117.1951218, 35, -0.0661326
-0.293457, -0.2875977, -0.934082, -32.5, -117.3170776, 37.1341476, -0.073518
-0.2832031, -0.3168945, -0.9169922, -31.7682934, -116.9512253, 37.9268303, -0.0822461
-0.2797852, -0.3530273, -0.8662109, -28.4146347, -113.4756088, 37.6219521, -0.0856031
-0.3334961, -0.3544922, -0.8325195, -26.4024391, -111.1585388, 36.8902435, -0.0876173
-0.3657227, -0.3408203, -0.8256836, -23.1097565, -108.2926865, 34.4512215, -0.0862745
-0.4291992, -0.3266602, -0.8178711, -21.7682934, -108.7195129, 33.5365868, -0.0876173
-0.4448242, -0.3325195, -0.8027344, -21.0975609, -112.9878082, 31.8902454, -0.0889601
-0.4511719, -0.3432617, -0.7875977, -21.1585369, -115.5487823, 31.7682934, -0.0933242
-0.4394531, -0.3481445, -0.7910156, -21.3414631, -120.18293, 30.9146347, -0.0943313
-0.4155273, -0.3413086, -0.8066406, -21.0975609, -121.0365906, 29.8780499, -0.0923171
-0.4047852, -0.3413086, -0.8056641, -20.3048782, -122.7439041, 27.7439022, -0.0906386
-0.4091797, -0.3173828, -0.8037109, -19.0853672, -122.4390259, 26.280489, -0.087953
-0.4238281, -0.3056641, -0.8183594, -17.9878044, -122.3170776, 26.0975609, -0.0862745
-0.4331055, -0.2739258, -0.890625, -16.4024391, -123.5365906, 27.1951218, -0.0795605
-0.4106445, -0.2421875, -0.9384766, -16.6463413, -124.2682953, 27.6219521, -0.076875
-0.3896484, -0.2299805, -0.9277344, -18.6585369, -123.4146347, 27.6829281, -0.0755322
-0.3618164, -0.2260742, -0.8457031, -20.4268303, -121.5243912, 27.0121956, -0.0782177
-0.3706055, -0.2363281, -0.8056641, -23.2926826, -118.1097565, 26.0975609, -0.0728466
-0.4223633, -0.2587891, -0.78125, -23.9024391, -117.9268341, 26.5243912, -0.0664683
-0.4599609, -0.2641602, -0.8022461, -24.0853672, -120.36586, 28.2926826, -0.0674754
-0.5019531, -0.246582, -0.8901367, -23.780489, -121.8292694, 29.4512196, -0.0661326
-0.4960938, -0.2236328, -0.9306641, -24.3292694, -123.5975647, 31.1585369, -0.0641184
-0.4560547, -0.1899414, -0.9741211, -28.0487804, -121.7682953, 30.7926846, -0.0607614
-0.425293, -0.1865234, -0.9599609, -30.7926846, -120.5487823, 30.7317085, -0.0553902
-0.3647461, -0.2177734, -0.8881836, -35.5487823, -117.86586, 31.1585369, -0.0540475
-0.3608398, -0.2509766, -0.8276367, -36.6463432, -116.2804871, 30.7926846, -0.0500191
-0.3823242, -0.2592773, -0.8139648, -37.1951218, -112.5609818, 30.1829281, -0.0459907
-0.4467773, -0.2548828, -0.8076172, -36.7682953, -110.9756088, 29.9390259, -0.0386053
-0.4755859, -0.2548828, -0.8139648, -36.7073174, -110.36586, 29.4512196, -0.0352483
-0.5185547, -0.2451172, -0.8227539, -37.1341476, -110.8536606, 29.0243912, -0.0325628
-0.53125, -0.2368164, -0.8271484, -38.6585388, -112.8048782, 28.2926826, -0.0332341
-0.5395508, -0.2348633, -0.8442383, -39.2682953, -113.8414688, 27.9878063, -0.0379339
-0.5268555, -0.2431641, -0.8466797, -40.3048782, -115.18293, 28.5365868, -0.03122
-0.4736328, -0.2553711, -0.8193359, -40.1829262, -114.8780518, 29.0853672, -0.0325628
-0.4487305, -0.2490234, -0.7954102, -40.1829262, -113.1097565, 28.4756107, -0.0325628
-0.4560547, -0.2260742, -0.7797852, -40, -108.3536606, 26.4634151, -0.0332341
-0.4956055, -0.2182617, -0.78125, -39.3902435, -106.7682953, 25.9146347, -0.0352483
-0.5043945, -0.2246094, -0.7626953, -39.5731735, -106.1585388, 26.4024391, -0.0352483
-0.5175781, -0.2641602, -0.6918945, -39.5121956, -106.5853653, 26.5243912, -0.0342412
-0.5361328, -0.2861328, -0.6723633, -37.5, -107.9878082, 25.7926826, -0.0315557
-0.5908203, -0.2988281, -0.7128906, -35.6097565, -108.5975647, 26.0975609, -0.0325628
-0.6054688, -0.2895508, -0.7412109, -32.3170738, -110.36586, 27.0121956, -0.0302129
-0.5869141, -0.2509766, -0.746582, -31.4634151, -110.9756088, 26.8902454, -0.0315557
-0.5722656, -0.230957, -0.7255859, -31.9512196, -111.3414688, 23.5365868, -0.0352483
-0.5698242, -0.2236328, -0.7104492, -33.9634171, -112.1341476, 22.0121956, -0.0339055
-0.5839844, -0.2231445, -0.7436523, -34.0853653, -113.7804871, 23.0487804, -0.0315557
-0.5766602, -0.2075195, -0.809082, -34.0243912, -116.7682953, 25.4268303, -0.0332341
-0.5117188, -0.190918, -0.7866211, -33.9634171, -116.7682953, 25.3658543, -0.0332341
-0.5, -0.1962891, -0.7480469, -34.1463432, -113.3536606, 23.7195129, -0.03122
-0.515625, -0.2480469, -0.7050781, -34.3292694, -111.7682953, 23.1097565, -0.0285344
-0.5415039, -0.2700195, -0.71875, -33.5975609, -112.4390259, 25.3048782, -0.0352483
-0.5776367, -0.2739258, -0.8037109, -32.8658562, -113.9024429, 26.5243912, -0.0379339
-0.5839844, -0.2495117, -0.8408203, -31.5243912, -115.6097565, 27.9268303, -0.0332341
-0.559082, -0.1923828, -0.8461914, -31.1585369, -114.5731735, 27.1951218, -0.0288701
-0.5419922, -0.1743164, -0.8212891, -33.4756088, -110.5487823, 24.7560978, -0.0218204
-0.5307617, -0.1733398, -0.7529297, -37.6829262, -107.8048782, 23.780489, -0.0164492
-0.5371094, -0.1870117, -0.7348633, -39.4512215, -107.9878082, 24.0853672, -0.0097353
-0.5546875, -0.2109375, -0.7304688, -41.0365868, -109.8780518, 25.2439022, -0.0016785
-0.5732422, -0.215332, -0.7397461, -40.4268303, -110.4268341, 25.3658543, -0.0036927
-0.5800781, -0.2163086, -0.7387695, -40.0609779, -108.9024429, 25.2439022, -0.0057069
-0.6049805, -0.2089844, -0.7416992, -40.1219521, -107.9268341, 24.6951218, -0.0036927
-0.6196289, -0.2148438, -0.7519531, -41.2804871, -107.5609818, 24.9390259, -0.0057069
-0.6176758, -0.2236328, -0.7602539, -41.9512215, -108.5365906, 25.5487804, -0.0124208
-0.6000977, -0.2338867, -0.7402344, -42.1951218, -110.1219559, 26.3414631, -0.0171206
-0.5737305, -0.2202148, -0.6816406, -41.9512215, -109.4512253, 25.9756107, -0.0204776
-0.5844727, -0.2109375, -0.6635742, -41.8902435, -105.7317123, 23.780489, -0.024506
-0.6254883, -0.1948242, -0.659668, -42.0731735, -104.0243912, 23.3536587, -0.0308843
-0.644043, -0.1928711, -0.6723633, -42.4390259, -104.8780518, 24.2073174, -0.0352483
-0.6645508, -0.1987305, -0.7094727, -43.4146347, -107.3780518, 25.4268303, -0.0352483
-0.652832, -0.2050781, -0.6914062, -43.5365868, -108.1097565, 25.4268303, -0.0386053
-0.6401367, -0.2124023, -0.6542969, -44.2073174, -106.8902435, 24.3902435, -0.0406195
-0.6411133, -0.2314453, -0.5639648, -44.0243912, -105.5487823, 23.5975609, -0.0446479
-0.6503906, -0.2329102, -0.5209961, -43.4756126, -103.0487823, 22.8658543, -0.0459907
-0.690918, -0.2329102, -0.4814453, -42.5609779, -103.1097565, 22.1951218, -0.0433051
-0.7177734, -0.2285156, -0.4975586, -39.6951218, -106.7682953, 20.9146347, -0.0433051
-0.7680664, -0.2402344, -0.5712891, -38.2926826, -109.8780518, 21.5243912, -0.0399481
-0.7548828, -0.246582, -0.6064453, -35.7317085, -115.1219559, 23.5365868, -0.0332341
-0.6972656, -0.2446289, -0.6450195, -33.9634171, -114.4512253, 23.6585369, -0.0345769
-0.6728516, -0.234375, -0.6572266, -33.4146347, -112.1341476, 22.6219521, -0.0379339
-0.6445312, -0.206543, -0.6767578, -32.9878044, -107.1341476, 20.3658543, -0.0396124
-0.6230469, -0.1855469, -0.6635742, -33.2317085, -105.18293, 19.5121956, -0.0365911
-0.6147461, -0.1811523, -0.6362305, -33.9634171, -103.4146347, 18.9634151, -0.0352483
-0.6103516, -0.1948242, -0.5566406, -34.3292694, -102.6219559, 18.1707325, -0.0426337
-0.625, -0.2084961, -0.5117188, -32.5, -100.5487823, 17.6219521, -0.0580758
-0.6787109, -0.2241211, -0.4658203, -31.0975609, -99.9390259, 17.439024, -0.0647898
-0.7172852, -0.2250977, -0.4726562, -27.6829281, -99.0853653, 18.3536587, -0.0674754
-0.7773438, -0.2060547, -0.5234375, -26.280489, -99.5731735, 19.0853672, -0.0661326
-0.7851562, -0.1918945, -0.5473633, -25, -100.5487823, 19.8780499, -0.0674754
-0.7646484, -0.1772461, -0.6010742, -26.3414631, -102.5, 19.8170738, -0.073518
-0.7470703, -0.171875, -0.6264648, -27.3780499, -102.7439041, 19.5731716, -0.0715038
-0.6904297, -0.1689453, -0.6450195, -29.7560978, -102.2561035, 19.939024, -0.0715038
-0.6342773, -0.1645508, -0.5805664, -30.3658543, -100.7317123, 19.3902435, -0.0664683
-0.6201172, -0.1630859, -0.5336914, -30.5487804, -95.2439041, 17.8048782, -0.0621042
-0.6518555, -0.159668, -0.4848633, -30.8536587, -92.4390259, 17.0731716, -0.063447
-0.6865234, -0.1557617, -0.4975586, -31.2195129, -90.4268341, 17.8658543, -0.0647898
-0.746582, -0.1582031, -0.5419922, -31.9512196, -90.9146347, 19.0243912, -0.0560616
-0.7587891, -0.1635742, -0.5556641, -33.2317085, -93.2317123, 21.280489, -0.0406195
-0.75, -0.1674805, -0.5703125, -33.4756088, -93.5975647, 21.8902435, -0.0318914
-0.7382812, -0.1655273, -0.5800781, -35.1829262, -92.0731735, 21.8292694, -0.0379339
-0.7280273, -0.144043, -0.5942383, -38.4756088, -88.4756088, 20.7317085, -0.0406195
-0.7197266, -0.1381836, -0.5991211, -39.9390259, -87.6219559, 20.7317085, -0.0298772
-0.6992188, -0.1411133, -0.6113281, -42.8048782, -87.6219559, 21.1585369, -0.0231632
-0.6640625, -0.1450195, -0.5771484, -43.5365868, -87.1951218, 21.7073174, -0.0218204
-0.6523438, -0.1464844, -0.5273438, -43.5365868, -83.2317123, 20.9756107, -0.0204776
-0.6630859, -0.1630859, -0.3896484, -42.7439041, -80.2439041, 19.8170738, -0.0083925
-0.6914062, -0.1879883, -0.3305664, -42.0121956, -75.8536606, 18.2926826, 0.0077211
-0.7788086, -0.2353516, -0.2861328, -41.5243912, -76.1585388, 18.4146347, 0.0083925
-0.8227539, -0.2441406, -0.3105469, -39.7560997, -80.2439041, 19.5121956, -0.0016785
-0.8769531, -0.222168, -0.402832, -38.5975609, -82.3170776, 19.6341476, -0.0151064
-0.8725586, -0.2001953, -0.4482422, -36.4634171, -85.4268341, 19.0853672, -0.0325628
-0.828125, -0.1875, -0.4873047, -35.7317085, -86.646347, 18.4146347, -0.0392767
-0.784668, -0.1928711, -0.484375, -35.5487823, -86.5853653, 18.2926826, -0.0476692
-0.7050781, -0.2114258, -0.4765625, -33.7804871, -85.7926865, 18.2317085, -0.0503548
-0.6513672, -0.206543, -0.4658203, -31.7073174, -84.5731735, 17.9878044, -0.0527047
-0.6489258, -0.1938477, -0.4501953, -27.0121956, -79.146347, 16.4024391, -0.0543832
-0.6811523, -0.1767578, -0.4057617, -25.1219521, -76.2195129, 15.4878054, -0.0553902
-0.7143555, -0.1757812, -0.3955078, -22.6219521, -72.5609741, 14.6951227, -0.0560616
-0.7792969, -0.1767578, -0.4145508, -22.0731716, -72.6219559, 15.3658543, -0.0574044
-0.8017578, -0.1748047, -0.4399414, -21.2195129, -75.18293, 17.1951218, -0.063447
-0.8071289, -0.1708984, -0.4897461, -21.0365868, -76.2195129, 17.6219521, -0.0715038
-0.7885742, -0.1601562, -0.5004883, -20.9756107, -76.0975647, 18.1097565, -0.0762036
-0.7431641, -0.1518555, -0.4736328, -20.7926826, -73.1097565, 17.1951218, -0.0782177
-0.7202148, -0.1508789, -0.4472656, -21.0975609, -71.3414688, 16.7073174, -0.0809033
-0.7021484, -0.144043, -0.3891602, -21.4024391, -68.2317123, 15.7317076, -0.0849317
-0.71875, -0.1396484, -0.3613281, -21.4634151, -67.0121994, 15.6097565, -0.0862745
-0.7421875, -0.1381836, -0.3637695, -21.4634151, -66.3414612, 16.0365849, -0.0916457
-0.777832, -0.1274414, -0.3867188, -21.4024391, -66.5243912, 16.5243912, -0.0839246
-0.7866211, -0.1181641, -0.4018555, -22.439024, -66.2804871, 17.439024, -0.0728466
-0.793457, -0.1030273, -0.4155273, -23.7195129, -66.0975647, 17.9878044, -0.0614328
-0.7836914, -0.1044922, -0.4125977, -25.8536587, -65.6097565, 17.9878044, -0.0520333
-0.762207, -0.1191406, -0.4033203, -26.280489, -64.8170776, 18.5975609, -0.0439765
-0.7480469, -0.1240234, -0.4023438, -26.5243912, -63.7195129, 18.9024391, -0.03122
-0.7338867, -0.1298828, -0.4018555, -26.280489, -60.5487823, 18.4756107, -0.0298772
-0.7314453, -0.1303711, -0.3920898, -26.5853672, -58.6585388, 18.0487804, -0.0285344
-0.7387695, -0.1254883, -0.3447266, -26.7682934, -55.1219521, 16.7682934, -0.0298772
-0.7602539, -0.1455078, -0.3022461, -27.2560978, -54.5731735, 16.2195129, -0.0305486
-0.7763672, -0.1586914, -0.2929688, -27.3170738, -54.8780518, 16.0975609, -0.0325628
-0.8046875, -0.1606445, -0.2895508, -26.9512196, -55.18293, 16.1585369, -0.0298772
-0.809082, -0.1650391, -0.2895508, -25.9146347, -54.6951218, 15.7317076, -0.0265202
-0.8125, -0.1533203, -0.2944336, -25.060976, -53.841465, 15.5487804, -0.0218204
-0.8149414, -0.1430664, -0.2983398, -23.3536587, -52.5609779, 14.5121956, -0.0224918
-0.8041992, -0.1303711, -0.2866211, -22.0731716, -51.0975609, 13.841464, -0.027863
-0.7954102, -0.1328125, -0.2695312, -21.7682934, -50.3048782, 12.9878054, -0.0352483
-0.7910156, -0.1337891, -0.2382812, -20.6097565, -48.9634171, 11.7682934, -0.0406195
-0.7958984, -0.1445312, -0.2436523, -20.060976, -48.5975609, 11.5853662, -0.0459907
-0.8129883, -0.1474609, -0.277832, -17.9878044, -48.5365868, 12.1341467, -0.0540475
-0.8022461, -0.1376953, -0.3017578, -16.5243912, -48.3536606, 12.7439032, -0.0594186
-0.7905273, -0.1308594, -0.296875, -13.4146347, -46.341465, 12.6219511, -0.0607614
-0.7685547, -0.1362305, -0.2661133, -11.7073174, -44.3902435, 12.1341467, -0.0647898
-0.7680664, -0.1420898, -0.2578125, -9.2682924, -40.9146347, 11.8902445, -0.0674754
-0.7841797, -0.1323242, -0.2519531, -9.0853662, -39.1463432, 11.341464, -0.0684825
-0.7958984, -0.1259766, -0.2553711, -8.9634151, -37.3170738, 10.4268293, -0.0681468
-0.8115234, -0.125, -0.2490234, -9.0853662, -36.7682953, 9.8780489, -0.0708324
-0.8125, -0.1191406, -0.2475586, -8.780488, -36.4634171, 9.5731707, -0.0755322
-0.8081055, -0.1035156, -0.2631836, -8.9024391, -35.4878044, 9.7560978, -0.0755322
-0.7978516, -0.0927734, -0.269043, -8.9024391, -34.5731697, 9.5121956, -0.0715038
-0.7836914, -0.0786133, -0.2773438, -9.2682924, -31.7682934, 9.2682924, -0.0654612
-0.7861328, -0.0527344, -0.2900391, -10, -30.1829281, 9.1463413, -0.0533761
-0.7875977, -0.0429688, -0.2890625, -12.3780489, -27.1951218, 8.780488, -0.0439765
-0.7924805, -0.0595703, -0.277832, -13.4756098, -26.1585369, 9.0853662, -0.0412909
-0.7900391, -0.0727539, -0.2734375, -15.3048782, -25.4268303, 10.3048782, -0.0359197
-0.7714844, -0.1064453, -0.2514648, -15.7926836, -24.7560978, 10.6707315, -0.0382696
-0.7636719, -0.1113281, -0.2397461, -15.1219511, -22.439024, 10.4268293, -0.0392767
-0.7636719, -0.1245117, -0.2226562, -13.3536587, -18.9634151, 9.3292685, -0.0412909
-0.7709961, -0.1298828, -0.2192383, -12.6219511, -17.5, 9.0243902, -0.0416266
-0.7807617, -0.1469727, -0.2070312, -11.5243902, -15.4268293, 8.5975609, -0.0439765
-0.7856445, -0.1542969, -0.2021484, -10.8536587, -14.7560978, 7.9268293, -0.0486763
-0.793457, -0.1699219, -0.1967773, -9.3902445, -13.5975609, 6.8292685, -0.0614328
-0.7983398, -0.2021484, -0.2099609, -8.1707315, -13.3536587, 6.3414636, -0.0674754
-0.793457, -0.2133789, -0.2148438, -6.0975609, -12.8048782, 5.8536587, -0.0614328
-0.7768555, -0.1826172, -0.2104492, -4.5121951, -11.5243902, 5.3658538, -0.0553902
-0.7719727, -0.1503906, -0.2045898, -2.804878, -7.3170733, 1.7073171, -0.0459907
-0.800293, -0.0805664, -0.2329102, -3.2317073, -5.2439027, -0.2439024, -0.0365911
-0.8188477, -0.0673828, -0.2539062, -6.280488, -4.8170733, -1.7073171, -0.0265202
-0.8208008, -0.0800781, -0.2797852, -9.1463413, -8.0487804, 0.1219512, -0.0214847
-0.7939453, -0.1005859, -0.2744141, -8.780488, -8.5365858, 1.1585366, -0.0184634
-0.7509766, -0.1201172, -0.2636719, -6.8292685, -4.6341462, 1.5243902, -0.0164492
-0.7407227, -0.1108398, -0.2739258, -6.0365853, -1.3414634, 1.2804878, -0.0204776
-0.7519531, -0.0888672, -0.3066406, -5.3658538, 4.0853658, 1.5853659, -0.024506
-0.75, -0.0761719, -0.2827148, -5.609756, 5.1829271, 1.5243902, -0.0271916
-0.7490234, -0.0810547, -0.2612305, -6.1585369, 7.0731707, 1.2195122, -0.0325628
-0.7573242, -0.1079102, -0.2412109, -6.1585369, 8.4146347, 1.0365853, -0.0352483
-0.7612305, -0.1210938, -0.2460938, -5.7926831, 10.4268293, 1.2804878, -0.0406195
-0.7626953, -0.1293945, -0.2578125, -5.5487804, 11.341464, 1.5853659, -0.0446479
-0.7602539, -0.128418, -0.2553711, -5.1219511, 14.2682934, 1.0365853, -0.0486763
-0.7636719, -0.1176758, -0.2431641, -4.6341462, 17.1341476, -0.4878049, -0.0500191
-0.7675781, -0.1157227, -0.2475586, -4.5731707, 18.3536587, -0.9146342, -0.0540475
-0.7739258, -0.1020508, -0.2685547, -4.7560978, 19.8780499, -1.0365853, -0.0594186
-0.7695312, -0.0913086, -0.296875, -5, 20.5487804, -1.0365853, -0.0527047
-0.7636719, -0.0922852, -0.3100586, -5.3048782, 22.2560978, -0.7926829, -0.0446479
-0.7407227, -0.0947266, -0.3129883, -5.3658538, 23.4146347, -0.5487805, -0.0379339
-0.7270508, -0.0898438, -0.3022461, -5.4268293, 27.560976, -1.2195122, -0.0305486
-0.7231445, -0.109375, -0.2788086, -5.4268293, 30.1219521, -1.8902439, -0.0238346
-0.7265625, -0.1230469, -0.2626953, -6.0365853, 33.7804871, -2.7439024, -0.0224918
-0.7416992, -0.1425781, -0.2304688, -6.5853658, 34.6341476, -3.4146342, -0.0198062
-0.7475586, -0.144043, -0.2260742, -5.4268293, 36.5243912, -4.1463413, -0.017792
-0.7626953, -0.1474609, -0.2329102, -3.5975611, 38.3536606, -4.9390244, -0.0191348
-0.7729492, -0.1362305, -0.2387695, -3.4756098, 39.2073174, -5.1829271, -0.0171206
-0.7915039, -0.0922852, -0.2802734, -4.3292685, 41.4634171, -6.4024391, -0.03122
-0.8012695, -0.0532227, -0.3012695, -5.9756098, 42.3170738, -6.6463418, -0.0339055
-0.7958984, -0.0522461, -0.2866211, -9.4512196, 42.5609779, -7.0731707, -0.0352483
-0.7724609, -0.0810547, -0.2509766, -10.5487804, 42.2560997, -6.8292685, -0.0228275
-0.7583008, -0.1079102, -0.2402344, -10.6097565, 42.3170738, -5.9756098, -0.0231632
-0.7402344, -0.1464844, -0.2436523, -9.5121956, 42.5609779, -5.609756, -0.0194705
-0.7299805, -0.152832, -0.2504883, -5.9756098, 44.4512215, -5.7926831, -0.0090639
-0.7280273, -0.1601562, -0.2592773, -4.5121951, 45.7926826, -6.4024391, 0.0043641
-0.734375, -0.1669922, -0.2641602, -2.5, 48.1097565, -7.8048782, 0.0104067
-0.7558594, -0.1723633, -0.2905273, -1.7073171, 49.6951218, -7.6829271, 0.0157778
-0.7617188, -0.1733398, -0.3115234, -1.6463414, 49.9390259, -7.0731707, 0.0184634
-0.7504883, -0.1225586, -0.3676758, -1.402439, 52.3780518, -7.1341467, 0.0224918
-0.7504883, -0.0258789, -0.4160156, -1.5853659, 54.3902435, -7.9268293, 0.0130922
-0.7431641, -0.0019531, -0.4208984, -3.8414636, 57.9268303, -9.6341467, 0.0006714
-0.7094727, -0.0166016, -0.4033203, -5.7317076, 58.5975609, -9.5121956, -0.0157778
-0.6860352, -0.050293, -0.3896484, -9.6951218, 58.4756126, -7.7439027, -0.0325628
-0.6503906, -0.1147461, -0.3706055, -10.3658543, 58.9634171, -6.890244, -0.0486763
-0.6469727, -0.1386719, -0.3691406, -9.8780489, 62.9878082, -6.0975609, -0.0718395
-0.65625, -0.1455078, -0.3774414, -8.9024391, 66.2195129, -6.1585369, -0.0956741
-0.6689453, -0.1425781, -0.3925781, -7.0121951, 71.8292694, -6.7073174, -0.1094377
-0.6967773, -0.1235352, -0.4243164, -7.5, 74.5121994, -7.8048782, -0.1104448
-0.7089844, -0.1152344, -0.4301758, -9.0243902, 75.0609741, -8.2926826, -0.105745
-0.7104492, -0.097168, -0.4238281, -11.9512196, 76.0975647, -9.4512196, -0.0882887
-0.706543, -0.0874023, -0.4135742, -13.6585369, 75.9756088, -10.060976, -0.063447
-0.7104492, -0.0913086, -0.4106445, -16.3414631, 76.3414688, -10.4268293, -0.0406195
-0.6987305, -0.1005859, -0.3969727, -16.9512196, 77.0121994, -10.3658543, -0.0218204
-0.6884766, -0.1074219, -0.3925781, -17.2560978, 79.0243912, -10.4878054, -0.0117494
-0.6821289, -0.1166992, -0.3642578, -17.0121956, 80.0609741, -11.0365858, -0.0117494
-0.6879883, -0.1235352, -0.3388672, -16.7682934, 81.5853653, -12.4390249, -0.014435
-0.6992188, -0.1586914, -0.2817383, -16.280489, 81.5853653, -12.8048782, -0.0292058
-0.7070312, -0.1796875, -0.2543945, -14.8780489, 80.9756088, -14.0853662, -0.0500191
-0.7324219, -0.2036133, -0.2299805, -12.2560978, 79.4512177, -15.3658543, -0.056733
-0.7456055, -0.2099609, -0.2480469, -10.9146347, 79.0243912, -16.2195129, -0.0607614
-0.7714844, -0.1962891, -0.3374023, -9.5121956, 77.3780518, -16.5853653, -0.0621042
-0.762207, -0.1572266, -0.4189453, -9.7560978, 76.646347, -16.5853653, -0.0637827
-0.7373047, -0.1391602, -0.4291992, -10.6707315, 75.4268341, -17.5, -0.0641184
-0.6860352, -0.1118164, -0.4282227, -10.7317076, 75.7317123, -18.2317085, -0.063447
-0.6689453, -0.1025391, -0.4453125, -11.341464, 78.0487823, -19.3292694, -0.063447
-0.6542969, -0.0893555, -0.5185547, -11.7073174, 79.4512177, -18.9634151, -0.063447
-0.6464844, -0.0908203, -0.5620117, -12.6829271, 80.9756088, -16.4024391, -0.0654612
-0.6103516, -0.0942383, -0.5795898, -12.9878054, 81.4024429, -14.8780489, -0.06009
-0.5854492, -0.0932617, -0.5649414, -11.1585369, 84.2073212, -13.0487804, -0.0533761
-0.5571289, -0.0996094, -0.5273438, -8.9634151, 90.5487823, -13.5365858, -0.0527047
-0.5649414, -0.1015625, -0.5253906, -8.5975609, 93.6585388, -13.1707315, -0.0473335
-0.6098633, -0.1137695, -0.5488281, -8.2926826, 98.2926865, -12.0121956, -0.0527047
-0.6430664, -0.1245117, -0.5673828, -8.841464, 98.5975647, -11.280488, -0.0553902
-0.6469727, -0.1308594, -0.5732422, -9.6951218, 98.4756088, -10.4878054, -0.0540475
-0.6508789, -0.1264648, -0.5644531, -9.8170738, 98.7195129, -10.7317076, -0.0594186
-0.6489258, -0.1274414, -0.5517578, -9.1463413, 100.0609818, -11.5853662, -0.0570687
-0.6425781, -0.1425781, -0.503418, -8.9634151, 100.9756088, -12.1341467, -0.0540475
-0.640625, -0.1601562, -0.4819336, -8.1097565, 102.3170776, -12.9878054, -0.0516976
-0.6435547, -0.1860352, -0.4848633, -7.8048782, 102.3780518, -13.5975609, -0.0540475
-0.65625, -0.1933594, -0.5112305, -7.9878049, 101.7682953, -13.841464, -0.0553902
-0.6669922, -0.1738281, -0.5668945, -9.2073174, 102.0121994, -14.4512196, -0.0553902
-0.6665039, -0.1489258, -0.5820312, -10.4878054, 102.3780518, -15.1219511, -0.0557259
-0.6611328, -0.1044922, -0.5732422, -12.6829271, 103.6585388, -17.3170738, -0.0621042
-0.6469727, -0.1074219, -0.5292969, -14.2073174, 103.6585388, -18.0487804, -0.0674754
-0.6352539, -0.1191406, -0.5087891, -16.5243912, 102.68293, -18.780489, -0.0728466
-0.6044922, -0.1508789, -0.4863281, -17.560976, 101.2804871, -18.780489, -0.0708324
-0.5996094, -0.1640625, -0.487793, -19.2073174, 99.3902435, -19.3902435, -0.0728466
-0.5976562, -0.1767578, -0.4799805, -19.3292694, 99.5121994, -19.3902435, -0.0741894
-0.5991211, -0.184082, -0.4511719, -19.0243912, 99.8170776, -21.1585369, -0.0755322
-0.6049805, -0.203125, -0.3969727, -18.3536587, 100, -22.3780499, -0.0718395
-0.621582, -0.2124023, -0.3896484, -15.6097565, 98.8414688, -25, -0.0674754
-0.6572266, -0.234375, -0.456543, -12.8658543, 94.5731735, -25.4268303, -0.0621042
-0.675293, -0.2319336, -0.5258789, -12.1341467, 91.3414688, -25.1829281, -0.0614328
-0.6948242, -0.1982422, -0.6821289, -10.9756098, 85.6097565, -22.3780499, -0.0557259
-0.6577148, -0.1308594, -0.7587891, -10.7926836, 84.3902435, -20.5487804, -0.052369
-0.625, -0.0869141, -0.7456055, -9.9390249, 86.9512253, -19.1463413, -0.0486763
-0.5639648, -0.0102539, -0.6845703, -9.6341467, 91.1585388, -19.3902435, -0.0480049
-0.5483398, 0.0043945, -0.675293, -9.1463413, 100.8536606, -21.4024391, -0.0500191
-0.5551758, -0.0283203, -0.7041016, -9.5121956, 103.9024429, -21.5853672, -0.0486763
-0.5449219, -0.0688477, -0.7250977, -12.6219511, 102.8048782, -17.6219521, -0.0459907
-0.4868164, -0.1704102, -0.737793, -13.9634151, 100.1219559, -14.8780489, -0.0459907
-0.4541016, -0.2055664, -0.7456055, -14.2682934, 97.9878082, -11.5853662, -0.0500191
-0.4145508, -0.2333984, -0.7773438, -11.0975609, 104.5731735, -11.8902445, -0.0500191
-0.4213867, -0.2226562, -0.7998047, -9.5121956, 110, -12.7439032, -0.0476692
-0.4506836, -0.1708984, -0.8056641, -8.6585369, 120.5487823, -15.3658543, -0.0459907
-0.4985352, -0.1254883, -0.753418, -9.1463413, 124.0243912, -16.5853653, -0.0446479
-0.5170898, -0.1162109, -0.7192383, -13.780488, 126.4634171, -19.0853672, -0.0372625
-0.5595703, -0.121582, -0.6787109, -16.5243912, 125.18293, -19.939024, -0.0419623
-0.578125, -0.1352539, -0.6870117, -22.1951218, 120.1219559, -21.0365868, -0.0513619
-0.5766602, -0.1772461, -0.7158203, -24.2073174, 117.1951218, -21.0975609, -0.0433051
-0.5581055, -0.1953125, -0.7172852, -27.5, 113.4756088, -20.4878044, -0.0285344
-0.512207, -0.2104492, -0.6894531, -28.2926826, 113.4146347, -20.7317085, -0.0151064
-0.496582, -0.2094727, -0.6674805, -29.0243912, 116.5243912, -23.7195129, -0.0030213
-0.4912109, -0.2114258, -0.6533203, -29.0243912, 119.0243912, -27.0731716, 0.0077211
-0.5009766, -0.2138672, -0.6523438, -29.1463413, 119.3902435, -27.8658543, 0.0104067
-0.5126953, -0.2338867, -0.6459961, -28.9634151, 116.9512253, -28.7195129, 0.0090639
-0.5151367, -0.2685547, -0.6420898, -28.2926826, 115.4878082, -28.7195129, 0.0104067
-0.5097656, -0.2875977, -0.6523438, -25.6707325, 111.646347, -30.060976, 0.0097353
-0.5141602, -0.3256836, -0.7680664, -23.3536587, 109.4512253, -30.6097565, 0.0050355
-0.5268555, -0.3208008, -0.8837891, -19.6951218, 105, -29.8780499, 0.0010071
-0.5102539, -0.2792969, -1.0996094, -18.7195129, 103.4146347, -27.6219521, -0.0070497
-0.4663086, -0.2353516, -1.1479492, -18.5975609, 105.18293, -22.8048782, -0.0151064
-0.3383789, -0.121582, -1.0888672, -18.780489, 109.5731735, -22.6219521, -0.0097353
-0.300293, -0.0737305, -1.0229492, -19.4512196, 124.8170776, -27.4390259, 0.0043641
-0.3115234, -0.0473633, -0.9003906, -21.5243912, 136.4634247, -30.9756107, 0.0083925
-0.3388672, -0.0678711, -0.8598633, -23.1707325, 137.9268341, -30.060976, 0.014435
-0.3945312, -0.1289062, -0.8344727, -26.6463413, 133.0487823, -25.3048782, 0.0204776
-0.4414062, -0.1796875, -0.8725586, -27.8658543, 129.146347, -23.3536587, 0.0302129
-0.456543, -0.1938477, -0.9008789, -28.4146347, 124.4512253, -21.1585369, 0.03122
-0.4575195, -0.2294922, -0.9301758, -27.8048782, 123.6585388, -20.4878044, 0.0275273
-0.4326172, -0.2456055, -0.921875, -26.4024391, 124.5121994, -20, 0.0231632
-0.3876953, -0.2685547, -0.8945312, -26.0365868, 125.5487823, -19.8780499, 0.014435
-0.3666992, -0.2709961, -0.8793945, -25.7317085, 128.4756165, -20.8536587, -0.0036927
-0.3535156, -0.2685547, -0.8857422, -25.8536587, 130.0609741, -22.6829281, -0.0191348
-0.3481445, -0.265625, -0.9086914, -26.0365868, 129.8170776, -23.4146347, -0.0352483
-0.3408203, -0.2592773, -0.934082, -27.0731716, 129.8170776, -24.4512196, -0.0513619
-0.3378906, -0.2548828, -0.9208984, -27.9878063, 130.3048859, -25, -0.0664683
-0.3154297, -0.2539062, -0.8476562, -28.4756107, 131.9512177, -27.6219521, -0.0809033
-0.3193359, -0.2792969, -0.7509766, -28.1097565, 132.5, -29.3292694, -0.0936599
-0.3339844, -0.2954102, -0.7226562, -26.5243912, 132.3170776, -32.4390259, -0.1017166
-0.3764648, -0.3271484, -0.730957, -25.1829281, 130.6097565, -33.7195129, -0.1117876
-0.3955078, -0.3393555, -0.7695312, -21.7073174, 125.0609818, -35.6707344, -0.1211872
-0.4155273, -0.3427734, -0.8837891, -19.8780499, 121.8292694, -36.0365868, -0.1238727
-0.4023438, -0.3378906, -0.9311523, -17.1951218, 117.86586, -36.2195129, -0.1258869
-0.3549805, -0.3032227, -0.9682617, -16.1585369, 118.7195129, -37.2560997, -0.1252155
-0.3242188, -0.2788086, -0.9521484, -15.8536587, 121.2195129, -38.5365868, -0.1205158
-0.2871094, -0.2270508, -0.9067383, -14.5731707, 127.1341476, -41.4024391, -0.1161517
-0.2905273, -0.2089844, -0.8999023, -13.5365858, 129.3902435, -42.5609779, -0.1107805
-0.3276367, -0.1738281, -0.9536133, -12.1951218, 130.3048859, -41.6463432, -0.1030594
-0.3745117, -0.1323242, -1.0493164, -12.0731707, 129.7561035, -39.8780479, -0.1010452
-0.3876953, -0.1083984, -1.081543, -13.4756098, 129.2682953, -35.4878044, -0.1000381
-0.3613281, -0.0756836, -1.059082, -14.8780489, 130.1219482, -33.4146347, -0.102388
-0.3432617, -0.0727539, -1.0107422, -17.439024, 133.0487823, -31.7073174, -0.0983597
-0.328125, -0.1142578, -0.9213867, -18.0487804, 134.7561035, -31.4024391, -0.0950027
-0.3369141, -0.1469727, -0.8930664, -17.0731716, 134.6951294, -29.6951218, -0.102388
-0.3598633, -0.222168, -0.8842773, -14.2682934, 131.646347, -25.9756107, -0.1003738
-0.3603516, -0.2509766, -0.8974609, -12.1951218, 130, -23.5975609, -0.0862745
-0.3393555, -0.2788086, -0.9487305, -9.8170738, 129.3292694, -20.7317085, -0.056733
-0.3330078, -0.2714844, -0.984375, -9.3292685, 130.9756165, -20.6097565, -0.03122
-0.3125, -0.2387695, -1.0161133, -10.3658543, 135.0609741, -22.0121956, -0.0164492
-0.2788086, -0.2094727, -0.9746094, -11.9512196, 137.1341553, -23.0487804, -0.0016785
-0.2641602, -0.1938477, -0.9365234, -14.3292685, 139.8780518, -25.060976, 0.0003357
-0.25, -0.1816406, -0.8764648, -15.3048782, 140.1219482, -26.0975609, -0.0070497
-0.2607422, -0.1733398, -0.8745117, -17.2560978, 139.0853729, -26.280489, -0.014435
-0.2724609, -0.1606445, -0.8959961, -18.7195129, 138.3536682, -26.0975609, -0.021149
-0.2817383, -0.1474609, -0.9208984, -22.6829281, 137.1341553, -25.8536587, -0.0258488
-0.2988281, -0.128418, -0.9570312, -27.6829281, 136.3414612, -26.1585369, -0.0318914
-0.3017578, -0.121582, -0.9682617, -30.3658543, 135.8536682, -26.7682934, -0.0406195
-0.2856445, -0.1289062, -0.9619141, -35.3658562, 134.2682953, -27.560976, -0.0500191
-0.2670898, -0.1474609, -0.9448242, -37.9268303, 132.9268341, -27.6219521, -0.06009
-0.2255859, -0.1914062, -0.887207, -41.2195129, 131.2804871, -27.8048782, -0.0647898
-0.2016602, -0.2314453, -0.8540039, -42.3170738, 130.6097565, -27.9878063, -0.0647898
-0.2084961, -0.2504883, -0.8720703, -41.6463432, 130.0609741, -28.5365868, -0.0553902
-0.2441406, -0.2661133, -0.9785156, -40.5487823, 129.8170776, -28.4756107, -0.0359197
-0.2539062, -0.2651367, -1.0371094, -38.1097565, 128.1097565, -26.4634151, -0.011078
-0.2319336, -0.2407227, -1.1293945, -37.1341476, 127.5, -25.5487804, 0.0083925
-0.1933594, -0.2255859, -1.1386719, -35.4268303, 128.1707306, -24.6341476, 0.021149
-0.1289062, -0.1796875, -1.137207, -34.1463432, 132.2561035, -24.9390259, 0.0238346
-0.1035156, -0.1625977, -1.1367188, -33.9024391, 135.5487823, -25.6097565, 0.0157778
-0.1025391, -0.1347656, -1.171875, -33.5975609, 140.8536682, -25, -0.0083925
-0.1162109, -0.1259766, -1.1923828, -34.1463432, 142.6219482, -24.1463413, -0.0238346
-0.1152344, -0.1206055, -1.2011719, -35.5487823, 143.5975647, -21.5853672, -0.0339055
-0.0942383, -0.137207, -1.1425781, -36.1585388, 143.9634247, -20.3048782, -0.0318914
-0.0766602, -0.1586914, -1.1025391, -36.7682953, 144.8170776, -19.0853672, -0.0365911
-0.0678711, -0.2089844, -1.0151367, -36.4024391, 145.6707306, -19.2073174, -0.0379339
-0.0756836, -0.2363281, -0.9951172, -34.8780479, 146.9512177, -19.0853672, -0.0379339
-0.1123047, -0.2783203, -1.0175781, -33.6585388, 146.8292694, -18.8414631, -0.0382696
-0.1323242, -0.293457, -1.0625, -31.0975609, 144.3292694, -17.6829281, -0.0379339
-0.1367188, -0.2915039, -1.1538086, -27.9878063, 140.7317047, -15.3658543, -0.0426337
-0.1113281, -0.2832031, -1.1689453, -26.7073174, 140.1219482, -14.6951227, -0.0446479
-0.0166016, -0.2578125, -1.0996094, -24.6951218, 143.1707306, -15.1219511, -0.0527047
0.027832, -0.2446289, -1.0361328, -23.4146347, 146.2195129, -16.4634151, -0.056733
0.059082, -0.2241211, -0.9311523, -21.9512196, 152.0121918, -20.7317085, -0.0594186
0.0009766, -0.222168, -0.9350586, -21.5243912, 153.1707306, -22.0731716, -0.0574044
-0.0424805, -0.222168, -0.984375, -22.6219521, 149.8170776, -22.8658543, -0.056733
-0.0996094, -0.2084961, -1.1220703, -24.2073174, 145.4878082, -22.2560978, -0.056733
-0.0947266, -0.1967773, -1.1674805, -29.5731716, 136.9512177, -20.6097565, -0.0584115
-0.0112305, -0.1787109, -1.1508789, -32.1951218, 134.2073212, -20.2439022, -0.0597543
0.0444336, -0.1704102, -1.1005859, -36.341465, 134.3902435, -21.4634151, -0.0553902
0.1132812, -0.1743164, -0.9931641, -37.5, 138.7804871, -24.2682934, -0.0493477
0.1152344, -0.1835938, -0.9746094, -37.0731697, 140.3048859, -25.1829281, -0.0520333
0.0595703, -0.1914062, -1.0239258, -36.0975609, 140.3048859, -24.0853672, -0.0466621
0.0151367, -0.1801758, -1.0864258, -36.1585388, 138.4756165, -23.0487804, -0.0486763
0.0112305, -0.1723633, -1.1103516, -36.7073174, 134.7561035, -21.3414631, -0.0500191
0.0073242, -0.1469727, -1.1738281, -37.1341476, 133.1097565, -21.280489, -0.0486763
0.0092773, -0.1333008, -1.2177734, -36.5853653, 130.1219482, -20.7926826, -0.0419623
0.046875, -0.1328125, -1.2939453, -36.9512215, 129.2073212, -19.6341476, -0.0406195
0.0844727, -0.1303711, -1.2998047, -37.8658562, 129.3902435, -16.1585369, -0.0426337
0.1640625, -0.1323242, -1.2680664, -38.7804871, 131.0975647, -15, -0.0406195
0.1855469, -0.1391602, -1.2592773, -38.5365868, 136.0975647, -14.8780489, -0.042298
0.1831055, -0.168457, -1.293457, -34.6951218, 138.3536682, -14.8780489, -0.0446479
0.1777344, -0.1884766, -1.3271484, -32.9268303, 138.3536682, -14.2073174, -0.0453193
0.1928711, -0.2211914, -1.3666992, -30.3658543, 137.4390259, -11.5243902, -0.049012
0.2397461, -0.2358398, -1.3208008, -29.9390259, 137.9878082, -10.7926836, -0.0466621
0.2592773, -0.2382812, -1.2724609, -28.7195129, 142.86586, -12.0121956, -0.0412909
0.246582, -0.2397461, -1.1665039, -27.560976, 146.2195129, -14.0853662, -0.0406195
0.2241211, -0.234375, -1.125, -24.3292694, 151.9512177, -17.9268303, -0.0406195
0.1445312, -0.2158203, -1.1025391, -22.9268303, 153.3536682, -19.1463413, -0.0359197
0.1035156, -0.1899414, -1.1166992, -22.1341476, 152.3170776, -19.6951218, -0.0339055
0.0478516, -0.121582, -1.1689453, -22.7439022, 150.36586, -19.4512196, -0.0352483
0.0429688, -0.0849609, -1.1933594, -26.4024391, 145.6097565, -19.2073174, -0.0365911
0.0605469, -0.0449219, -1.2246094, -32.3780479, 140.3048859, -17.9878044, -0.0345769
0.0961914, -0.0551758, -1.2319336, -35.7317085, 137.5, -17.0731716, -0.0325628
0.1884766, -0.0991211, -1.1992188, -41.7682953, 131.5243988, -14.9390249, -0.027863
0.2885742, -0.1796875, -1.097168, -43.841465, 128.9024353, -14.1463413, -0.027863
0.3227539, -0.2211914, -1.0415039, -44.0243912, 127.9268341, -14.0853662, -0.0285344
0.331543, -0.2568359, -0.9658203, -41.8292694, 129.146347, -14.7560978, -0.0298772
0.3027344, -0.2553711, -0.9677734, -35.1219521, 132.9268341, -16.9512196, -0.0292058
0.2158203, -0.2080078, -1.0327148, -31.8292694, 134.3292694, -17.9268303, -0.0298772
0.175293, -0.1728516, -1.0712891, -27.8658543, 134.4512177, -18.2926826, -0.0261845
0.1435547, -0.0991211, -1.1240234, -27.8658543, 132.86586, -18.1097565, -0.0218204
0.1494141, -0.0654297, -1.1328125, -32.0731697, 128.0487823, -18.1707325, -0.0224918
0.1943359, -0.0263672, -1.1176758, -38.4756088, 122.4390259, -18.4146347, -0.03122
0.2167969, -0.0273438, -1.1044922, -41.7682953, 119.5731735, -19.0853672, -0.0396124
0.2612305, -0.0444336, -1.0844727, -45.1829262, 114.7561035, -19.3902435, -0.0318914
0.2905273, -0.074707, -1.0966797, -46.0365868, 112.9268341, -19.6951218, -0.0090639
0.2895508, -0.0917969, -1.1298828, -46.2195129, 110.18293, -18.780489, 0.0023499
0.2866211, -0.1069336, -1.2270508, -45.7317085, 109.146347, -17.9268303, -0.0231632
0.2851562, -0.1040039, -1.2768555, -45.3048782, 108.9024429, -15.9756098, -0.0399481
0.3017578, -0.0917969, -1.3164062, -45.3048782, 109.5121994, -14.7560978, -0.0527047
0.3261719, -0.0913086, -1.3051758, -46.5243912, 112.2561035, -13.4756098, -0.0419623
0.3647461, -0.0986328, -1.2558594, -47.2560997, 113.9024429, -13.841464, -0.017792
0.3632812, -0.1132812, -1.2402344, -48.1097565, 116.8902435, -15.1829271, 0.0151064
0.3325195, -0.1352539, -1.253418, -48.1097565, 117.9878082, -15.2439032, 0.0439765
0.309082, -0.1435547, -1.2714844, -47.5609779, 118.5365906, -14.6341467, 0.0560616
0.2788086, -0.1337891, -1.2900391, -46.5853653, 118.9634171, -13.1707315, 0.0621042
0.2822266, -0.1030273, -1.2446289, -46.0365868, 120.4268341, -12.6829271, 0.0580758
0.2871094, -0.0893555, -1.2138672, -45.5487823, 125.0609818, -12.8048782, 0.0332341
0.2856445, -0.0600586, -1.1689453, -45.7317085, 127.68293, -13.4146347, 0.0023499
0.2773438, -0.0566406, -1.1538086, -47.2560997, 129.6951294, -14.7560978, -0.0204776
0.2578125, -0.0517578, -1.121582, -48.6585388, 128.8414612, -14.9390249, -0.0386053
0.2519531, -0.0517578, -1.1064453, -51.2195129, 125.3048782, -15, -0.0446479
0.2661133, -0.074707, -1.0634766, -52.3780518, 123.5975647, -14.0243902, -0.0513619
0.2729492, -0.0927734, -1.046875, -53.1707344, 121.2804871, -12.6219511, -0.0513619
0.2822266, -0.1445312, -1.0224609, -52.0121956, 121.1585388, -11.5243902, -0.0540475
0.2861328, -0.1645508, -1.0166016, -50.3658562, 120.9756088, -11.219512, -0.0654612
0.2895508, -0.190918, -1.0219727, -46.8292694, 120.6707382, -10.9756098, -0.0674754
0.3066406, -0.2099609, -1.0219727, -44.6951218, 120.1219559, -11.219512, -0.0728466
0.315918, -0.2182617, -1.0004883, -41.1585388, 120, -11.6463413, -0.073518
0.3452148, -0.2314453, -0.9169922, -39.5731735, 120.4268341, -12.3780489, -0.0782177
0.3564453, -0.2363281, -0.8676758, -35.0609779, 122.1951218, -15, -0.0829175
0.3349609, -0.2470703, -0.8139648, -32.3170738, 123.1097565, -16.8292694, -0.0835889
0.3046875, -0.2495117, -0.8295898, -27.0121956, 122.0121994, -19.1463413, -0.0862745
0.2402344, -0.2290039, -0.9501953, -24.5731716, 119.6341476, -19.5731716, -0.0896315
0.2280273, -0.2094727, -1.0283203, -22.0121956, 113.5975647, -18.1097565, -0.0929885
0.2612305, -0.1542969, -1.1411133, -21.7682934, 108.7195129, -16.0975609, -0.0929885
0.3149414, -0.1313477, -1.1577148, -22.6219521, 107.8048782, -15.6707325, -0.0862745
0.4443359, -0.1171875, -1.0981445, -23.8414631, 109.3292694, -16.7073174, -0.0835889
0.5268555, -0.1318359, -1.0234375, -23.9024391, 111.5853653, -17.6219521, -0.0802319
0.5234375, -0.1376953, -1.019043, -22.0731716, 115.5487823, -19.1463413, -0.0809033
0.4648438, -0.1152344, -1.112793, -21.0975609, 116.8902435, -19.2682934, -0.0809033
0.421875, -0.0878906, -1.1787109, -19.939024, 118.7195129, -17.5, -0.0795605
0.3642578, -0.0146484, -1.2919922, -20.8536587, 119.146347, -16.4024391, -0.0745251
0.3608398, 0.0097656, -1.3168945, -26.1585369, 119.8170776, -14.5121956, -0.0795605
0.3945312, 0.0258789, -1.300293, -30.1829281, 120.2439041, -13.9634151, -0.0849317
0.4238281, 0.0048828, -1.2563477, -38.4146347, 119.9390259, -13.4146347, -0.0835889
0.4848633, -0.0664062, -1.1386719, -44.6951218, 118.8414688, -13.3536587, -0.081239
0.5092773, -0.1142578, -1.0732422, -46.2804871, 118.7195129, -13.3536587, -0.0782177
0.5107422, -0.1933594, -0.9560547, -44.5121956, 120.0609818, -13.4756098, -0.0721752
0.4648438, -0.234375, -0.9116211, -41.9512215, 121.5243912, -13.7195129, -0.0688182
0.4262695, -0.2373047, -0.9262695, -35.3048782, 123.4146347, -13.9634151, -0.0580758
0.3623047, -0.2021484, -1.012207, -32.4390259, 123.1707382, -13.780488, -0.0419623
0.3466797, -0.1791992, -1.0532227, -30.4268303, 121.1585388, -12.5, -0.0298772
0.387207, -0.128418, -1.0883789, -30.9146347, 119.7561035, -11.9512196, -0.0261845
0.4272461, -0.1123047, -1.0786133, -33.4146347, 117.0731735, -11.7682934, -0.0265202
0.5073242, -0.1025391, -1.0209961, -34.6341476, 116.4024429, -12.3780489, -0.0204776
0.5385742, -0.1064453, -0.9907227, -35.1219521, 116.1585388, -14.0853662, -0.0191348
0.5605469, -0.128418, -0.9316406, -32.9268303, 117.5609818, -14.5731707, -0.017792
0.5566406, -0.1352539, -0.9008789, -31.0365868, 118.5365906, -14.8170738, -0.017792
0.5205078, -0.1538086, -0.8525391, -27.0121956, 119.4512253, -15.060976, -0.0140993
0.4560547, -0.1738281, -0.8779297, -24.7560978, 118.6585388, -15.060976, -0.014435
0.4223633, -0.1728516, -0.9238281, -22.3780499, 115, -14.6341467, -0.0137636
0.3828125, -0.1474609, -1.0439453, -22.560976, 112.9268341, -13.780488, -0.0151064
0.394043, -0.1264648, -1.0864258, -24.8170738, 108.5975647, -11.8292685, -0.0191348
0.4731445, -0.0834961, -1.0966797, -26.4024391, 107.3780518, -11.4634151, -0.0224918
0.5253906, -0.0708008, -1.0717773, -29.9390259, 107.0121994, -12.6219511, -0.0339055
0.6098633, -0.0849609, -0.9907227, -31.0975609, 107.7439041, -13.2926836, -0.0486763
0.6308594, -0.1044922, -0.9511719, -31.7682934, 108.9634171, -15, -0.0661326
0.6181641, -0.144043, -0.9038086, -29.9390259, 109.3292694, -15.6097565, -0.0741894
0.59375, -0.1616211, -0.9033203, -28.1707325, 109.4512253, -15.4878054, -0.076875
0.534668, -0.1875, -0.9321289, -24.0853672, 107.7439041, -14.3292685, -0.070161
0.4931641, -0.1801758, -0.9946289, -21.9512196, 106.646347, -13.7195129, -0.0560616
0.4882812, -0.1669922, -1.0297852, -17.9878044, 104.0243912, -11.6463413, -0.0325628
0.5283203, -0.1269531, -1.0644531, -16.5853653, 103.5365906, -10.7926836, -0.0164492
0.5600586, -0.1020508, -1.0629883, -14.1463413, 103.9634171, -10.1219511, -0.0003357
0.6206055, -0.0708008, -1.0205078, -13.5975609, 105.18293, -10.6707315, 0.0070497
0.6376953, -0.0644531, -0.9858398, -12.6829271, 108.4756088, -11.8902445, 0.0063783
0.6259766, -0.0678711, -0.9204102, -12.5, 110.4268341, -12.560976, 0.0023499
0.6030273, -0.0664062, -0.9067383, -12.4390249, 111.646347, -12.4390249, -0.0137636
0.5390625, -0.0625, -0.9404297, -11.7682934, 110.1219559, -10.9146347, -0.0265202
0.5073242, -0.0561523, -0.9873047, -12.1341467, 108.2317123, -9.7560978, -0.0506905
0.4794922, -0.0244141, -1.0898438, -14.2073174, 104.5121994, -6.7073174, -0.0929885
0.5249023, 0, -1.1459961, -16.280489, 102.8658524, -5.1829271, -0.1111162
0.5688477, 0.0078125, -1.1416016, -20.7926826, 102.1341476, -3.6585367, -0.1030594
0.6630859, -0.0131836, -1.0722656, -23.0487804, 103.1097565, -3.5365853, -0.0829175
0.6948242, -0.0341797, -1.0229492, -25.2439022, 105.9756088, -4.0243902, -0.0594186
0.7177734, -0.0869141, -0.9355469, -25.2439022, 107.9268341, -4.2682929, -0.0224918
0.703125, -0.109375, -0.9106445, -23.4756107, 111.5243912, -4.4512196, 0.0090639
0.6479492, -0.1352539, -0.9145508, -20.5487804, 112.9268341, -3.9024391, 0.0238346
0.6123047, -0.1401367, -0.9311523, -19.939024, 112.9268341, -3.0487804, 0.0221561
0.5703125, -0.1103516, -0.9628906, -19.6341476, 112.9268341, -2.0121951, 0.0157778
0.5727539, -0.09375, -0.9697266, -19.7560978, 112.0121994, -2.2560976, 0.0023499
0.6054688, -0.0693359, -0.9550781, -20.8536587, 109.0853653, -3.1707318, -0.006714
0.6630859, -0.0854492, -0.909668, -21.5853672, 107.3780518, -3.6585367, -0.024506
0.6899414, -0.1083984, -0.8881836, -22.8658543, 104.4512253, -4.0243902, -0.0500191
0.7236328, -0.1552734, -0.8256836, -22.2560978, 103.3536606, -4.2073174, -0.0607614
0.7294922, -0.1782227, -0.7905273, -19.5121956, 102.68293, -4.6341462, -0.0715038
0.7143555, -0.2075195, -0.7460938, -16.9512196, 103.2317123, -4.7560978, -0.0728466
0.6938477, -0.2133789, -0.7431641, -10.5487804, 104.6341476, -5.8536587, -0.0473335
0.6474609, -0.1958008, -0.7768555, -5.7317076, 103.2926865, -6.5243902, -0.0194705
0.6201172, -0.1777344, -0.8164062, -4.0853658, 102.3170776, -6.7682929, 0.0070497
0.6069336, -0.1264648, -0.8920898, -3.1097562, 98.8414688, -6.8292685, 0.0305486
0.6225586, -0.1030273, -0.9238281, -3.3536587, 96.5243912, -7.1951222, 0.0332341
0.6772461, -0.0820312, -0.9604492, -5.0609756, 92.9878082, -7.9878049, 0.0218204
0.7368164, -0.081543, -0.9580078, -5.7926831, 91.8902435, -8.4756098, 0.0070497
0.7597656, -0.0869141, -0.9477539, -6.0975609, 92.3780518, -8.5365858, -0.0151064
0.7792969, -0.1035156, -0.9262695, -5.609756, 93.7195129, -8.4146347, -0.0382696
0.7724609, -0.1044922, -0.9248047, -3.7804878, 96.8902435, -7.7439027, -0.056733
0.7177734, -0.0844727, -0.9770508, -2.6829269, 97.9268341, -7.1341467, -0.0715038
0.6889648, -0.0605469, -1.0126953, -1.9512196, 100.1219559, -4.6341462, -0.0876173
0.6567383, -0.0029297, -1.0737305, -3.1097562, 100.7317123, -2.0731707, -0.0983597
0.6625977, 0.015625, -1.0854492, -3.9634147, 100.3658524, -1.402439, -0.1037308
0.7021484, 0.0424805, -1.0698242, -6.4024391, 98.9634171, -0.9146342, -0.105745
0.7319336, 0.0380859, -1.0444336, -8.2317076, 98.2926865, -0.9756098, -0.1131304
0.7822266, -0.0078125, -0.9599609, -10.5487804, 98.7195129, -0.6707317, -0.112459
0.7861328, -0.0727539, -0.8823242, -11.0975609, 99.3902435, -0.3048781, -0.1148089
0.7729492, -0.1049805, -0.8657227, -10.8536587, 101.5243912, 1.6463414, -0.1111162
0.7114258, -0.1123047, -0.8994141, -10.1219511, 102.5609818, 2.9878049, -0.0997024
0.6860352, -0.1035156, -0.9423828, -8.780488, 103.1707306, 5.4878049, -0.0822461
0.6733398, -0.0566406, -1.0258789, -8.5365858, 102.5, 6.7073174, -0.0607614
0.6923828, -0.0302734, -1.0385742, -8.841464, 101.7073212, 7.5, -0.0527047
0.765625, 0.0092773, -0.9736328, -11.219512, 102.3170776, 6.7682929, -0.0621042
0.8100586, 0.0083008, -0.9169922, -12.1951218, 103.1707306, 6.0365853, -0.0809033
0.8662109, -0.0292969, -0.8173828, -12.9268293, 103.9024429, 4.3292685, -0.0829175
0.8637695, -0.0571289, -0.7905273, -12.9268293, 103.6585388, 4.5731707, -0.0758679
0.8115234, -0.1171875, -0.7636719, -11.8902445, 102.3780518, 7.1951222, -0.0688182
0.7675781, -0.1425781, -0.7685547, -10.7926836, 101.9512253, 8.2926826, -0.0587472
0.7524414, -0.1376953, -0.7724609, -7.5, 100.3658524, 9.5121956, -0.0500191
0.7397461, -0.1054688, -0.7827148, -5.4268293, 100, 9.2073174, -0.0513619
0.75, -0.0849609, -0.7802734, -2.9268293, 98.2317123, 8.2926826, -0.0540475
0.7915039, -0.0424805, -0.7729492, -2.4390244, 97.1341476, 7.2560978, -0.0553902
0.815918, -0.0371094, -0.7709961, -2.9878049, 93.7804871, 5.4878049, -0.0496834
0.8525391, -0.0493164, -0.7705078, -4.4512196, 89.6951218, 4.8780489, -0.0500191
0.8623047, -0.065918, -0.762207, -4.4512196, 88.4756088, 4.8780489, -0.0436408
0.8803711, -0.097168, -0.7387695, -2.804878, 87.8658524, 5.4878049, -0.0298772
0.8745117, -0.1103516, -0.7324219, -1.6463414, 87.8048782, 5.7317076, -0.017792
0.8461914, -0.1103516, -0.7592773, 2.2560976, 87.9878082, 5.0609756, -0.0271916
0.8154297, -0.09375, -0.8120117, 3.2317073, 87.8048782, 4.8780489, -0.0527047
0.8095703, -0.0805664, -0.8276367, 3.7195122, 86.7682953, 4.5121951, -0.0661326
0.8232422, -0.0644531, -0.8339844, 3.4756098, 86.0365906, 4.0243902, -0.0580758
0.8320312, -0.0625, -0.8305664, 3.2926829, 84.3292694, 2.9268293, -0.0493477
0.8608398, -0.0546875, -0.8242188, 3.4146342, 84.0853653, 2.4390244, -0.0386053
0.8774414, -0.0571289, -0.8164062, 3.9634147, 83.9024429, 1.7073171, -0.0325628
0.8911133, -0.0722656, -0.7958984, 4.8780489, 85.0609741, 1.0365853, -0.0298772
0.8891602, -0.0766602, -0.7875977, 5.3658538, 85.5487823, 0.9146342, -0.0365911
0.8720703, -0.0766602, -0.777832, 6.4634147, 86.7682953, 1.2195122, -0.0372625
0.8588867, -0.0712891, -0.7773438, 7.0121951, 87.1341476, 1.097561, -0.0325628
0.8369141, -0.0561523, -0.796875, 7.1341467, 87.0121994, 1.1585366, -0.0164492
0.8208008, -0.0253906, -0.840332, 7.0731707, 86.5853653, 0.9146342, -0.0023499
0.8203125, -0.0180664, -0.8579102, 5.4268293, 85.3658524, 1.0365853, 0.0036927
0.8334961, -0.0107422, -0.8696289, 4.1463413, 84.9390259, 1.2195122, -0.0006714
0.8505859, -0.0073242, -0.8618164, 1.2804878, 84.9390259, 1.4634147, -0.0083925
0.8681641, -0.0131836, -0.8134766, 0.3658537, 85.6707306, 1.402439, -0.0151064
0.875, -0.0170898, -0.78125, -0.5487805, 88.1707306, 1.3414634, -0.0352483
0.8544922, -0.0327148, -0.7612305, -0.6097561, 89.9390259, 1.7073171, -0.0446479
0.8330078, -0.0327148, -0.7744141, -1.0365853, 90.0609741, 2.0121951, -0.0540475
0.7919922, -0.0224609, -0.8232422, -2.8658538, 89.4512253, 3.7804878, -0.063447
0.7900391, 0.0019531, -0.840332, -3.9024391, 88.9024429, 4.6341462, -0.0594186
0.8066406, 0.0058594, -0.828125, -5.609756, 87.9878082, 4.8780489, -0.06009
0.8574219, -0.0009766, -0.7866211, -5.9146342, 87.4390259, 4.390244, -0.0627756
0.8730469, -0.0170898, -0.7583008, -6.4024391, 87.3170776, 3.7195122, -0.0654612
0.8955078, -0.0551758, -0.6918945, -6.4634147, 87.5, 3.4756098, -0.0678111
0.8925781, -0.0737305, -0.6577148, -5.9146342, 88.5365906, 3.7804878, -0.076875
0.8793945, -0.0952148, -0.5922852, -5.1219511, 89.0853653, 4.1463413, -0.0825818
0.8686523, -0.1030273, -0.574707, -2.3170731, 88.9634171, 3.4756098, -0.0869459
0.8344727, -0.1035156, -0.581543, 0.1219512, 85.7926865, 2.5, -0.0852674
0.8227539, -0.1040039, -0.6079102, 1.0365853, 83.4756088, 2.6829269, -0.0782177
0.8320312, -0.0947266, -0.6435547, 1.402439, 78.3536606, 2.6829269, -0.0664683
0.8740234, -0.078125, -0.6513672, 1.9512196, 76.5243912, 2.6829269, -0.0520333
0.902832, -0.0678711, -0.652832, 3.2317073, 75.4268341, 1.9512196, -0.0453193
0.9438477, -0.065918, -0.6396484, 4.2073174, 75.5487823, 1.402439, -0.0379339
0.9555664, -0.0654297, -0.6416016, 6.4634147, 76.1585388, 0.1219512, -0.0352483
0.9511719, -0.0693359, -0.652832, 6.7682929, 76.3414688, 0, -0.0339055
0.9394531, -0.0664062, -0.6567383, 7.1341467, 75.8536606, 0.8536586, -0.0258488
0.9179688, -0.0522461, -0.6860352, 7.0121951, 75.5487823, 1.0365853, -0.017792
0.9086914, -0.0439453, -0.7055664, 6.2195125, 74.1463394, 1.0365853, -0.0164492
0.90625, -0.0214844, -0.7475586, 5, 72.1951218, 0.7926829, -0.0164492
0.9057617, -0.0185547, -0.7612305, 3.6585367, 71.5853653, 0.6707317, -0.017792
0.9243164, -0.0043945, -0.7387695, 1.6463414, 71.4024429, 0.7926829, -0.0164492
0.9423828, -0.0068359, -0.6728516, 1.2804878, 71.8902435, 0.4878049, -0.0238346
0.9365234, -0.0151367, -0.6464844, 1.3414634, 72.9878082, -0.3048781, -0.0332341
0.9003906, -0.0454102, -0.6381836, 0.9756098, 72.9268341, -0.6097561, -0.0493477
0.8769531, -0.0629883, -0.6420898, 0.0609756, 70.8536606, -0.0609756, -0.0527047
0.8696289, -0.0898438, -0.6328125, -0.9146342, 69.3902435, 0.6097561, -0.0446479
0.8808594, -0.0976562, -0.6225586, -1.9512196, 66.5853653, 1.0365853, -0.0480049
0.9150391, -0.0991211, -0.6132812, -1.5243902, 65.4878082, 0.4268293, -0.0446479
0.9321289, -0.0991211, -0.6206055, 0.1829268, 64.0853653, -0.9146342, -0.0265202
0.9492188, -0.097168, -0.6640625, -0.1829268, 63.2926826, -1.7682927, 0.0090639
0.9550781, -0.0957031, -0.6767578, -0.2439024, 62.5609779, -1.7073171, 0.0372625
0.9628906, -0.0874023, -0.6826172, -1.2195122, 62.9268303, -1.2804878, 0.06009
0.9604492, -0.0683594, -0.6767578, -0.8536586, 63.1707344, -1.2804878, 0.0923171
0.9526367, -0.0532227, -0.684082, -0.1829268, 64.3292694, -0.9146342, 0.1037308
0.9326172, -0.0229492, -0.6948242, 0.2439024, 64.8780518, -0.7317073, 0.0997024
0.9213867, -0.0029297, -0.7055664, -1.0365853, 64.7560959, 0.2439024, 0.0950027
0.918457, 0.0117188, -0.7055664, -2.3780489, 64.0853653, 0.2439024, 0.0829175
0.9140625, 0.0048828, -0.7094727, -5.609756, 61.341465, 0.2439024, 0.0654612
0.9130859, -0.0253906, -0.7202148, -7.3780489, 59.5121956, 0.8536586, 0.0419623
0.9155273, -0.0395508, -0.7216797, -10.1829271, 56.7073174, 2.5609756, 0.0164492
0.9345703, -0.0654297, -0.6962891, -11.5243902, 56.4024391, 4.0243902, -0.0097353
0.9375, -0.0732422, -0.6645508, -11.0975609, 57.1341476, 4.1463413, -0.0325628
0.9355469, -0.0737305, -0.6337891, -9.2073174, 58.2317085, 4.5121951, -0.0574044
0.9248047, -0.0742188, -0.6274414, -8.2926826, 58.0487823, 4.2682929, -0.0795605
0.9223633, -0.0737305, -0.6357422, -7.7439027, 55.6097565, 4.6341462, -0.0956741
0.9350586, -0.0585938, -0.6479492, -8.3536587, 54.0243912, 5.1829271, -0.102388
0.9423828, -0.0561523, -0.652832, -9.0853662, 50.7317085, 5.7926831, -0.1104448
0.96875, -0.0556641, -0.6435547, -9.2682924, 49.4512215, 5.670732, -0.1138018
0.980957, -0.0595703, -0.6289062, -9.2682924, 48.2317085, 5.1829271, -0.1164874
0.9907227, -0.0771484, -0.5922852, -9.3902445, 47.9878044, 4.9390244, -0.1168231
0.9819336, -0.0883789, -0.5722656, -9.6341467, 46.9512215, 4.2682929, -0.1117876
0.9619141, -0.1074219, -0.5322266, -9.0243902, 43.9024391, 3.1097562, -0.1104448
0.9511719, -0.1123047, -0.5185547, -8.5975609, 41.7682953, 2.9878049, -0.1054093
0.9389648, -0.121582, -0.5019531, -7.3170733, 37.0731697, 2.195122, -0.0956741
0.9399414, -0.125, -0.5004883, -6.2195125, 34.7560997, 1.8902439, -0.0651255
0.956543, -0.1230469, -0.503418, -4.0243902, 30.2439022, 0.6707317, -0.0459907
0.9746094, -0.1347656, -0.5141602, -3.2926829, 27.7439022, 0.0609756, -0.0419623
0.9794922, -0.1445312, -0.5170898, -2.0731707, 23.0487804, -1.9512196, -0.0506905
0.9633789, -0.1689453, -0.543457, -1.2195122, 21.0365868, -2.3780489, -0.0594186
0.949707, -0.1699219, -0.5595703, 0.2439024, 18.9634151, -2.3780489, -0.0731823
0.9189453, -0.1499023, -0.5878906, 1.2195122, 18.6585369, -2.0731707, -0.0916457
0.9052734, -0.1245117, -0.6030273, 3.0487804, 18.780489, -2.9878049, -0.0997024
0.8994141, -0.0712891, -0.6357422, 3.2317073, 16.7073174, -4.8780489, -0.0936599
0.902832, -0.0546875, -0.6464844, 2.195122, 15.060976, -5.609756, -0.0866102
0.9208984, -0.0341797, -0.6513672, -2.1341465, 11.5853662, -5.4268293, -0.0862745
0.9536133, -0.0351562, -0.640625, -4.0243902, 10.1219511, -5.3658538, -0.0862745
0.9599609, -0.0375977, -0.6459961, -7.6219516, 7.8048782, -4.9390244, -0.0674754
0.9560547, -0.03125, -0.6845703, -9.6341467, 6.6463418, -4.1463413, -0.0332341
0.9506836, -0.0258789, -0.7036133, -12.8048782, 5.7317076, -1.7682927, 0.0030213
0.9335938, -0.0136719, -0.7363281, -13.841464, 5.3658538, -0.9756098, -0.0070497
0.9233398, 0.0048828, -0.7441406, -15.4878054, 5.5487804, 0.8536586, -0.024506
0.9121094, 0.0307617, -0.7587891, -16.4634151, 5.9756098, 1.4634147, -0.0379339
0.9052734, 0.0385742, -0.7568359, -18.7195129, 5.7926831, 2.5609756, -0.0258488
0.890625, 0.0400391, -0.7470703, -22.3170738, 4.5731707, 4.0243902, -0.003357
0.8901367, 0.0336914, -0.7270508, -24.1463413, 3.9634147, 5, 0.0137636
0.8823242, 0.0039062, -0.6958008, -27.6829281, 2.5, 7.0121951, 0.0251774
0.8818359, -0.0297852, -0.6699219, -28.9024391, 1.8902439, 7.8048782, 0.0171206
0.8818359, -0.0463867, -0.6591797, -30.8536587, 0.9146342, 9.1463413, 0.0023499
0.8818359, -0.0688477, -0.6577148, -31.280489, 0.2439024, 9.6951218, 0.0124208
0.8857422, -0.0722656, -0.6616211, -31.4024391, -0.9756098, 10.1829271, 0.0151064
0.9038086, -0.0717773, -0.668457, -31.6463413, -1.4634147, 10.1829271, 0.0090639
0.9125977, -0.0693359, -0.668457, -31.8292694, -2.5, 10.7317076, -0.0043641
0.9243164, -0.0673828, -0.6669922, -31.5243912, -3.0487804, 10.9756098, -0.0251774
0.9248047, -0.0664062, -0.6557617, -32.3170738, -3.7804878, 11.280488, -0.0587472
0.9223633, -0.0776367, -0.6259766, -33.2926826, -4.6951222, 11.8292685, -0.0943313
0.9174805, -0.0854492, -0.6069336, -33.3536606, -5.609756, 11.5243902, -0.1144732
0.8955078, -0.1123047, -0.5991211, -33.4146347, -8.780488, 11.1585369, -0.1245441
0.8662109, -0.1254883, -0.6333008, -33.7804871, -10.5487804, 10.8536587, -0.140322
0.8579102, -0.1289062, -0.6601562, -34.8170738, -14.2682934, 10.7926836, -0.1507286
0.871582, -0.1245117, -0.7006836, -35.4268303, -16.0365849, 10.9146347, -0.164828
0.887207, -0.125, -0.6987305, -35.9146347, -17.6829281, 10.1829271, -0.1695277
0.9204102, -0.128418, -0.6850586, -35.5487823, -18.0487804, 9.3902445, -0.1641566
0.9238281, -0.1352539, -0.6757812, -35.5487823, -19.3292694, 8.1097565, -0.161471
0.9160156, -0.1479492, -0.6723633, -35.3048782, -20.1219521, 8.1707315, -0.1560998
0.9091797, -0.1489258, -0.6708984, -35.1219521, -22.3170738, 8.9024391, -0.1514
0.8920898, -0.1484375, -0.6645508, -35.3048782, -25.3048782, 9.2073174, -0.1487144
0.8818359, -0.1445312, -0.6679688, -35.7317085, -26.8292694, 9.3292685, -0.1399863
0.8686523, -0.1240234, -0.6962891, -36.5243912, -29.5731716, 10.1829271, -0.1292439
0.8759766, -0.1123047, -0.7045898, -36.4634171, -31.280489, 10.7317076, -0.1171588
0.8867188, -0.1030273, -0.7001953, -35.7317085, -34.3292694, 11.4024391, -0.1077592
0.9150391, -0.0981445, -0.690918, -34.8780479, -35.4268303, 11.5243902, -0.1003738
0.9199219, -0.0991211, -0.6870117, -33.6585388, -37.1341476, 11.6463413, -0.087953
0.9165039, -0.1083984, -0.6870117, -33.4146347, -38.2317085, 11.6463413, -0.0923171
0.9067383, -0.1137695, -0.6904297, -33.6585388, -40.3048782, 12.9268293, -0.1265583
0.8886719, -0.1040039, -0.6987305, -33.9024391, -41.341465, 13.5365858, -0.1399863
0.8823242, -0.097168, -0.6972656, -34.0243912, -43.1097565, 14.5121956, -0.1131304
0.887207, -0.0766602, -0.6918945, -33.6585388, -44.6341476, 14.0853662, -0.0755322
0.8911133, -0.074707, -0.6933594, -33.4756088, -46.0365868, 13.5365858, -0.0352483
0.8930664, -0.0800781, -0.7177734, -34.3292694, -49.2682953, 13.4756098, -0.0016785
0.9072266, -0.1015625, -0.7172852, -35.0609779, -50.5487823, 14.0243902, 0.0231632
0.9243164, -0.1079102, -0.7036133, -35.6097565, -52.6829262, 14.9390249, 0.027863
0.9389648, -0.1274414, -0.6767578, -35.0609779, -53.2926826, 14.6341467, 0.0204776
0.9375, -0.1396484, -0.6738281, -33.0487823, -54.3902435, 14.0853662, 0.017792
0.9208984, -0.15625, -0.7050781, -31.7073174, -55.2439041, 13.9634151, 0.0224918
0.9135742, -0.1650391, -0.7250977, -30.6097565, -58.1707344, 13.5975609, 0.0198062
0.9125977, -0.1611328, -0.7641602, -31.1585369, -60.3048782, 14.4512196, -0.0298772
0.9165039, -0.1533203, -0.7729492, -31.4634151, -61.2804909, 14.6341467, -0.0392767
0.9194336, -0.1318359, -0.765625, -32.6219521, -61.7682953, 15.2439032, -0.0231632
0.9257812, -0.1181641, -0.7563477, -32.4390259, -61.9512215, 15.3048782, 0.0057069
0.9428711, -0.1010742, -0.7260742, -31.9512196, -62.2560997, 15.060976, 0.0292058
0.9384766, -0.1044922, -0.7397461, -31.5853672, -63.2926826, 14.7560978, 0.0446479
0.9287109, -0.1171875, -0.7675781, -31.9512196, -67.2560959, 14.6951227, 0.0426337
0.9248047, -0.1323242, -0.8227539, -32.3780479, -69.6951218, 15.2439032, 0.0184634
0.9262695, -0.1367188, -0.8359375, -33.1097565, -72.68293, 16.9512196, -0.0070497
0.9448242, -0.1411133, -0.8310547, -32.9878044, -73.0487823, 17.7439022, -0.0204776
0.9501953, -0.140625, -0.8349609, -31.4024391, -72.3170776, 18.0487804, -0.0258488
0.9580078, -0.1362305, -0.8007812, -29.8780499, -71.0365906, 17.9268303, -0.0218204
0.9550781, -0.1362305, -0.7929688, -29.0853672, -70.6707306, 17.6829281, -0.0057069
0.9306641, -0.1376953, -0.7890625, -28.4756107, -72.1951218, 17.9268303, 0.0036927
0.9223633, -0.1367188, -0.7954102, -27.8658543, -73.7195129, 18.1097565, 0.003357
0.9174805, -0.1298828, -0.796875, -27.9878063, -77.0121994, 19.3902435, -0.0124208
0.925293, -0.125, -0.7753906, -28.0487804, -78.0487823, 20.2439022, -0.0285344
0.9287109, -0.1225586, -0.762207, -28.0487804, -79.4512177, 20.9756107, -0.0433051
0.9194336, -0.1044922, -0.7333984, -27.560976, -79.7560959, 21.280489, -0.0597543
0.921875, -0.0986328, -0.71875, -26.280489, -79.5731735, 22.6219521, -0.0728466
0.9111328, -0.0913086, -0.6767578, -25.7926826, -80.18293, 22.7439022, -0.0741894
0.90625, -0.0952148, -0.6665039, -24.5121956, -83.5975647, 23.0487804, -0.0715038
0.8828125, -0.1103516, -0.6958008, -23.780489, -88.9634171, 23.4756107, -0.0637827
0.8706055, -0.1142578, -0.7280273, -24.1463413, -91.7073212, 23.8414631, -0.0527047
0.8681641, -0.1254883, -0.7836914, -24.9390259, -96.5853653, 25.3048782, -0.0392767
0.878418, -0.1289062, -0.7895508, -25.5487804, -98.2926865, 25.6707325, -0.0258488
0.9223633, -0.1557617, -0.7563477, -24.7560978, -99.3292694, 25.3048782, -0.0137636
0.9487305, -0.1713867, -0.7119141, -24.0243912, -98.7804871, 24.7560978, -0.010071
0.949707, -0.1806641, -0.703125, -21.4024391, -98.4146347, 24.0243912, -0.0050355
0.9248047, -0.1733398, -0.7392578, -19.8780499, -98.8414688, 24.0243912, 0.0050355
0.9155273, -0.159668, -0.7543945, -17.9268303, -99.8170776, 24.6341476, -0.0057069
0.9057617, -0.1225586, -0.7705078, -17.5, -100.3658524, 25.060976, -0.0194705
0.9067383, -0.1069336, -0.7724609, -17.3780499, -101.8292694, 24.8170738, -0.0218204
0.9082031, -0.0966797, -0.7768555, -17.6829281, -105.0609818, 24.1463413, -0.0077211
0.9130859, -0.1035156, -0.777832, -18.2317085, -107.0731735, 23.9634151, 0.0073854
0.9169922, -0.1352539, -0.7802734, -18.6585369, -111.0365906, 24.3292694, 0.0238346
0.9169922, -0.1538086, -0.7739258, -18.3536587, -112.6219559, 24.4512196, 0.0238346
0.918457, -0.190918, -0.7456055, -16.0975609, -114.2682953, 24.4512196, 0.0151064
0.902832, -0.2011719, -0.7358398, -14.5121956, -113.9024429, 24.0853672, 0.0117494
0.8833008, -0.2026367, -0.7514648, -10.9146347, -113.2926865, 23.4146347, 0.0010071
0.8569336, -0.1831055, -0.8149414, -9.6951218, -113.4146347, 23.2926826, -0.0063783
0.8505859, -0.1621094, -0.8500977, -9.1463413, -114.6341476, 23.2926826, -0.0198062
0.8647461, -0.1293945, -0.8706055, -10, -115.36586, 23.2926826, -0.0231632
0.8823242, -0.1254883, -0.855957, -11.7073174, -116.8292694, 23.4146347, -0.0231632
0.9086914, -0.1274414, -0.8056641, -12.0731707, -117.2561035, 23.7195129, -0.0285344
0.9106445, -0.1274414, -0.7929688, -11.4634151, -117.0121994, 23.7195129, -0.027863
0.8886719, -0.1245117, -0.8046875, -9.3292685, -116.646347, 24.2073174, -0.0298772
0.8754883, -0.1142578, -0.8120117, -8.3536587, -116.4634171, 24.5731716, -0.03122
0.8647461, -0.09375, -0.8129883, -7.6829271, -116.4634171, 25.3658543, -0.0265202
0.8520508, -0.074707, -0.8271484, -7.5, -116.8292694, 25.5487804, -0.0204776
0.840332, -0.0664062, -0.8427734, -8.5365858, -119.2073212, 26.0365868, -0.0151064
0.8383789, -0.0737305, -0.894043, -9.3902445, -121.0975647, 27.2560978, -0.0090639
0.8466797, -0.0810547, -0.9008789, -11.0365858, -124.5731735, 29.6951218, -0.0154421
0.8901367, -0.0927734, -0.8647461, -12.1341467, -125.3048782, 30.8536587, -0.0231632
0.9072266, -0.0981445, -0.8339844, -11.9512196, -124.2073212, 31.8292694, -0.0271916
0.9199219, -0.1069336, -0.7763672, -10.7317076, -121.0975647, 31.6463413, -0.0332341
0.9106445, -0.1074219, -0.7729492, -9.8780489, -120.0609818, 31.280489, -0.0339055
0.8735352, -0.1044922, -0.7993164, -9.2073174, -120.1219559, 31.341465, -0.0271916
0.8510742, -0.1118164, -0.8291016, -9.7560978, -122.0121994, 31.4634151, -0.0449836
0.8496094, -0.1240234, -0.824707, -11.4024391, -127.86586, 31.4634151, -0.070161
0.8608398, -0.1713867, -0.8037109, -12.6219511, -130.3048859, 31.7073174, -0.0795605
0.8588867, -0.1835938, -0.8085938, -12.9268293, -134.3902435, 32.1341476, -0.0762036
0.8530273, -0.1743164, -0.8608398, -12.9268293, -135.1829224, 32.1341476, -0.0637827
0.8564453, -0.1611328, -0.8964844, -11.4634151, -135.2439117, 32.6219521, -0.0513619
0.878418, -0.1337891, -0.9228516, -11.280488, -134.8780518, 32.5609779, -0.0473335
0.8945312, -0.1386719, -0.9111328, -11.8292685, -134.5121918, 31.2195129, -0.0426337
0.9165039, -0.159668, -0.8764648, -13.4146347, -135.3048859, 29.9390259, -0.0466621
0.9086914, -0.1679688, -0.8676758, -13.841464, -135.8536682, 29.8780499, -0.0466621
0.8774414, -0.1499023, -0.8969727, -13.9634151, -136.1585388, 30.6097565, -0.0406195
0.8564453, -0.1049805, -0.9399414, -13.5975609, -136.5243988, 30.6707325, -0.0298772
0.8549805, -0.0883789, -0.9526367, -13.1707315, -136.9512177, 30.9756107, -0.0218204
0.8647461, -0.090332, -0.9462891, -13.9634151, -137.4390259, 30.7926846, -0.011078
0.8676758, -0.1152344, -0.9394531, -16.0365849, -139.5121918, 30.9756107, -0.0003357
0.8686523, -0.1669922, -0.9423828, -17.1341476, -141.1585388, 31.4634151, -0.0057069
0.8691406, -0.1865234, -0.9550781, -16.6463413, -144.5731812, 33.0487823, -0.0285344
0.8774414, -0.1972656, -0.9887695, -15.3658543, -145.7317047, 33.4756088, -0.0406195
0.8857422, -0.1918945, -1, -12.4390249, -145.7317047, 34.0853653, -0.0513619
0.90625, -0.1621094, -1.003418, -10.3658543, -141.0975647, 33.4146347, -0.0560616
0.9057617, -0.1459961, -1.0009766, -9.7560978, -138.4146423, 32.6829262, -0.0547189
0.8798828, -0.1337891, -0.9990234, -9.7560978, -135, 31.1585369, -0.0621042
0.8427734, -0.140625, -1.0068359, -10.2439022, -135.36586, 31.2195129, -0.0681468
0.8300781, -0.1469727, -1.0019531, -11.5853662, -137.9878082, 32.0731697, -0.0741894
0.8222656, -0.1674805, -0.9638672, -12.0731707, -139.3292694, 32.8658562, -0.0825818
0.8266602, -0.1787109, -0.9384766, -11.9512196, -140.6707306, 33.2317085, -0.0889601
0.8081055, -0.1977539, -0.9077148, -11.0975609, -140.6097565, 32.9878044, -0.0973526
0.793457, -0.2001953, -0.9179688, -10.1219511, -140.2439117, 32.6829262, -0.1027237
0.7592773, -0.1782227, -0.9658203, -9.5731707, -140.1829376, 32.9878044, -0.1037308
0.7573242, -0.1601562, -0.9853516, -9.8170738, -140.3048859, 33.6585388, -0.102388
0.7680664, -0.1289062, -0.9936523, -11.6463413, -141.3414612, 33.4756088, -0.1084306
0.7749023, -0.1254883, -0.9736328, -12.7439032, -141.7073212, 33.2317085, -0.1084306
0.7944336, -0.1518555, -0.9287109, -14.1463413, -143.4146423, 32.9268303, -0.1077592
0.7851562, -0.2001953, -0.9243164, -13.841464, -144.2073212, 33.1097565, -0.1218585
0.7705078, -0.2119141, -0.9404297, -13.2317076, -146.8902435, 33.7804871, -0.1349508
0.7548828, -0.1987305, -0.980957, -12.8048782, -147.3170776, 34.3902435, -0.1272297
0.7563477, -0.1879883, -0.9946289, -12.0731707, -146.4634247, 33.7804871, -0.1117876
0.7431641, -0.1640625, -1.0004883, -12.5, -145.1829376, 32.3170738, -0.0889601
0.7329102, -0.1645508, -0.9980469, -14.0243902, -143.4756165, 30.9756107, -0.0715038
0.7182617, -0.1679688, -1.0024414, -14.8780489, -143.5975647, 30.9146347, -0.0597543
0.7216797, -0.1699219, -1, -16.5243912, -145.4878082, 31.5243912, -0.056733
0.7363281, -0.1694336, -0.9946289, -16.6463413, -148.0487823, 31.341465, -0.0520333
0.7431641, -0.1640625, -0.9956055, -16.4024391, -148.1707306, 31.4634151, -0.0392767
