Application:, Trigno Discover (1.6.5)
Date/Time:, 18/02/2025 17:07:46
Collection Length (seconds):, 32.3865
wrist (81457), , , , , , bicep (81139)
sensor mode: 609, , , , , , sensor mode: 40
ACC X (G), ACC Y (G), ACC Z (G), GYRO X (deg/s), GYRO Y (deg/s), GYRO Z (deg/s), EMG 1 (mV)
370.3704 Hz, 370.3704 Hz, 370.3704 Hz, 370.3704 Hz, 370.3704 Hz, 370.3704 Hz, 2148.1481 Hz
-0.6787109, 0.690918, -0.3242188, -13.1097565, -12.6829271, 0.4268293, -0.0636149
-0.6801758, 0.6860352, -0.3344727, -13.7195129, -12.9268293, 0.6707317, -0.051194
-0.6826172, 0.6801758, -0.3378906, -15, -13.2317076, 0.0609756, -0.0297093
-0.6821289, 0.6708984, -0.3227539, -15.8536587, -13.1097565, -0.1829268, -0.0058747
-0.6914062, 0.6782227, -0.3129883, -15.7926836, -12.8048782, -0.6097561, 0.0119173
-0.6943359, 0.6831055, -0.3046875, -15.2439032, -13.5975609, -0.7926829, 0.0186313
-0.6875, 0.6938477, -0.2978516, -14.8780489, -14.2682934, -0.3658537, 0.0166171
-0.6796875, 0.6982422, -0.2978516, -13.9634151, -14.6951227, -0.2439024, 0.0099031
-0.6616211, 0.7036133, -0.3085938, -14.2682934, -14.7560978, -0.1829268, 0.0023499
-0.6621094, 0.7006836, -0.3115234, -14.3902445, -13.6585369, -0.7317073, 0.0008392
-0.6567383, 0.7041016, -0.3198242, -14.8780489, -13.0487804, -0.7317073, 0.0206455
-0.6640625, 0.7036133, -0.3222656, -16.0365849, -11.4634151, -0.7926829, 0.0411231
-0.6694336, 0.7036133, -0.3168945, -16.4024391, -11.341464, -0.9756098, 0.0357519
-0.6733398, 0.7036133, -0.3149414, -16.5243912, -11.5853662, -0.9146342, 0.0102388
-0.6806641, 0.6987305, -0.3100586, -16.280489, -11.9512196, -0.9756098, -0.0196384
-0.6870117, 0.6860352, -0.2983398, -16.0365849, -12.560976, -1.0365853, -0.0330663
-0.6875, 0.6806641, -0.2988281, -15.5487804, -13.3536587, -0.9146342, -0.030045
-0.6855469, 0.6679688, -0.2939453, -15.5487804, -13.2926836, -0.9756098, -0.0317235
-0.6879883, 0.6650391, -0.2954102, -14.8170738, -12.8658543, -0.8536586, -0.0347448
-0.6933594, 0.6679688, -0.2924805, -14.2073174, -13.1097565, -0.3048781, -0.0330663
-0.6914062, 0.6733398, -0.300293, -12.9268293, -13.780488, 0.4268293, -0.0243381
-0.6811523, 0.6875, -0.3105469, -12.6219511, -14.2682934, 0.5487805, -0.0184634
-0.6762695, 0.6923828, -0.3105469, -12.5, -14.4512196, 0.6097561, -0.0135958
-0.6733398, 0.6958008, -0.3105469, -13.4146347, -13.4146347, 0, -0.0078889
-0.6708984, 0.6967773, -0.3100586, -14.0243902, -12.7439032, -0.0609756, -0.0105745
-0.671875, 0.6977539, -0.3051758, -14.5121956, -11.5853662, -0.0609756, -0.0085603
-0.6713867, 0.6928711, -0.3149414, -15, -11.341464, -0.1829268, -0.0072175
-0.6743164, 0.6860352, -0.3261719, -15.6097565, -11.5853662, 0.1829268, -0.0203098
-0.6791992, 0.6782227, -0.3417969, -15.4268293, -11.5243902, 0.1829268, -0.0397803
-0.684082, 0.6801758, -0.3486328, -15.9756098, -12.0731707, 0.2439024, -0.0468299
-0.6933594, 0.6777344, -0.3496094, -16.4024391, -12.3780489, 0.3658537, -0.0377661
-0.6972656, 0.6762695, -0.3413086, -17.2560978, -12.8658543, -0.3048781, -0.0216526
-0.7036133, 0.675293, -0.3237305, -17.7439022, -13.0487804, -0.6707317, -0.01561
-0.7060547, 0.6772461, -0.3125, -17.0121956, -13.780488, -1.097561, -0.012253
-0.699707, 0.6904297, -0.3134766, -15.3658543, -14.6951227, -0.2439024, -0.0065461
-0.6943359, 0.6914062, -0.3212891, -14.7560978, -15.4268293, 0.1829268, -0.0085603
-0.675293, 0.7016602, -0.3232422, -14.8170738, -16.3414631, 0.4268293, -0.0092317
-0.6630859, 0.7011719, -0.3232422, -15.6097565, -16.3414631, 0.3658537, -0.0092317
-0.6606445, 0.7001953, -0.3212891, -17.0731716, -15.5487804, -0.7317073, -0.012253
-0.6708984, 0.684082, -0.3129883, -17.439024, -14.5731707, -0.7317073, -0.0146029
-0.6748047, 0.6816406, -0.309082, -18.2317085, -13.2317076, -0.9756098, -0.0216526
-0.684082, 0.6899414, -0.3017578, -18.2926826, -12.4390249, -1.0365853, -0.023331
-0.6904297, 0.6884766, -0.2993164, -17.9268303, -11.7682934, -0.7926829, -0.012253
-0.6933594, 0.6962891, -0.2988281, -18.1097565, -11.5243902, -0.4878049, 0.0072175
-0.6899414, 0.6943359, -0.2993164, -18.1707325, -12.0121956, -0.3048781, 0.0166171
-0.6826172, 0.6953125, -0.3012695, -18.5365849, -12.0731707, -0.2439024, 0.0169528
-0.6772461, 0.6928711, -0.3027344, -18.6585369, -11.9512196, -0.5487805, 0.0139315
-0.6728516, 0.6879883, -0.3012695, -18.5365849, -11.4024391, -0.7926829, 0.0124208
-0.6743164, 0.6889648, -0.2885742, -18.5975609, -11.280488, -0.7926829, 0.0129244
-0.6777344, 0.6865234, -0.28125, -18.9634151, -11.4024391, -1.2804878, 0.018967
-0.6762695, 0.6845703, -0.2744141, -18.780489, -11.5243902, -1.2804878, 0.0152743
-0.6743164, 0.6811523, -0.2705078, -18.3536587, -11.4024391, -1.1585366, 0.0115816
-0.6708984, 0.6669922, -0.2709961, -18.1707325, -11.341464, -0.9756098, 0.0119173
-0.6738281, 0.6577148, -0.2773438, -18.1097565, -10.9146347, -0.6097561, 0.0132601
-0.6728516, 0.6533203, -0.284668, -18.1097565, -10.7926836, -0.3658537, 0.0063783
-0.6757812, 0.652832, -0.2866211, -17.9268303, -11.1585369, -0.3658537, -0.0068818
-0.6865234, 0.6489258, -0.2861328, -17.6219521, -11.5853662, -0.4268293, -0.0179599
-0.6855469, 0.6508789, -0.2866211, -16.9512196, -12.0121956, -0.4878049, -0.0347448
-0.6870117, 0.6669922, -0.2817383, -15.7317076, -13.2926836, -0.6097561, -0.0703288
-0.6860352, 0.6870117, -0.2841797, -14.8780489, -14.2682934, -0.5487805, -0.096849
-0.6806641, 0.6938477, -0.28125, -14.0853662, -15.2439032, -0.6097561, -0.1062486
-0.6699219, 0.6977539, -0.2919922, -13.7195129, -15.2439032, -0.4878049, -0.1025559
-0.6645508, 0.7011719, -0.2983398, -13.841464, -14.5731707, -0.8536586, -0.0867781
-0.6650391, 0.6943359, -0.3120117, -14.2682934, -14.0243902, -0.9146342, -0.0693217
-0.6733398, 0.6904297, -0.3168945, -14.2682934, -12.1341467, -0.3658537, -0.057908
-0.6943359, 0.6831055, -0.3291016, -14.0853662, -11.280488, -0.1219512, -0.051194
-0.7119141, 0.6865234, -0.3295898, -13.841464, -11.0975609, 0.7317073, -0.0464942
-0.7382812, 0.6914062, -0.3120117, -13.3536587, -14.1463413, 1.2804878, -0.0451514
-0.7368164, 0.6870117, -0.3242188, -12.560976, -15.3658543, 1.402439, -0.0461585
-0.7148438, 0.6953125, -0.3408203, -10.3048782, -15.9146347, 1.8292683, -0.0505226
-0.7148438, 0.690918, -0.3334961, -11.0365858, -15.9756098, 1.2195122, -0.0558938
-0.7119141, 0.6762695, -0.309082, -13.9024391, -15.060976, -0.5487805, -0.061265
-0.6992188, 0.6279297, -0.2578125, -14.8170738, -15.3658543, -0.7926829, -0.0619364
-0.684082, 0.6220703, -0.2416992, -14.2073174, -16.280489, 0.6707317, -0.0580758
-0.6601562, 0.6298828, -0.2602539, -12.9268293, -16.280489, 1.7682927, -0.0605936
-0.6508789, 0.644043, -0.2895508, -10, -14.3902445, 3.7804878, -0.0686503
-0.6547852, 0.6953125, -0.3491211, -9.6341467, -13.2317076, 4.2682929, -0.0654612
-0.6645508, 0.7148438, -0.3569336, -12.3780489, -12.1951218, 3.3536587, -0.0558938
-0.6899414, 0.7241211, -0.3349609, -16.3414631, -13.2317076, 1.2195122, -0.0417945
-0.6982422, 0.7099609, -0.3125, -17.9878044, -14.1463413, 0.3658537, -0.0313878
-0.7021484, 0.6831055, -0.2709961, -17.3170738, -16.5853653, -0.7926829, -0.0236667
-0.6865234, 0.6538086, -0.2519531, -16.3414631, -17.8048782, -0.5487805, -0.0092317
-0.6831055, 0.6513672, -0.2514648, -13.841464, -18.3536587, 0.0609756, 0.0008392
-0.6728516, 0.6518555, -0.2666016, -12.8048782, -18.2926826, 0.5487805, 0.0139315
-0.6694336, 0.6567383, -0.2675781, -12.6219511, -17.5, 0.4878049, 0.0276951
-0.6679688, 0.6591797, -0.2661133, -13.1097565, -16.7682934, 0.6097561, 0.0374304
-0.6738281, 0.6650391, -0.2592773, -14.0243902, -15.4878054, 0.2439024, 0.0428016
-0.6757812, 0.668457, -0.2480469, -13.6585369, -14.9390249, 0.3048781, 0.0495155
-0.6748047, 0.6699219, -0.2451172, -13.0487804, -14.4512196, 0.6097561, 0.0481727
-0.6625977, 0.6762695, -0.2543945, -12.1341467, -14.3902445, 0.8536586, 0.040116
-0.6542969, 0.6855469, -0.2626953, -11.7073174, -14.2073174, 0.7926829, 0.0280308
-0.6494141, 0.7094727, -0.2832031, -11.4634151, -12.8658543, 0.8536586, 0.0179599
-0.6459961, 0.730957, -0.3081055, -11.8902445, -12.0121956, 0.6707317, 0.0119173
-0.652832, 0.737793, -0.3134766, -13.4756098, -10.4268293, 0.1219512, 0.0065461
-0.6679688, 0.7324219, -0.309082, -14.6341467, -10, -0.2439024, 0.0038605
-0.6708984, 0.7207031, -0.3017578, -17.0731716, -9.2073174, -1.097561, 0.0018463
-0.6884766, 0.6879883, -0.2788086, -18.1097565, -8.3536587, -1.6463414, -0.0015106
-0.6972656, 0.6723633, -0.2695312, -18.8414631, -6.6463418, -2.2560976, -0.005539
-0.7163086, 0.6552734, -0.265625, -18.4756107, -5.609756, -2.5, -0.0095674
-0.7202148, 0.6542969, -0.2705078, -17.0731716, -4.8780489, -1.402439, -0.0082246
-0.7211914, 0.6699219, -0.2875977, -15.3658543, -5.609756, -0.1829268, -0.012253
-0.7177734, 0.6806641, -0.2963867, -15.1219511, -5.9146342, 0.1219512, -0.0152743
-0.706543, 0.6928711, -0.3134766, -15.5487804, -6.280488, -0.0609756, -0.0130922
-0.7016602, 0.6992188, -0.3081055, -15.9146347, -6.0975609, -0.3048781, 0.0104067
-0.7016602, 0.6977539, -0.3012695, -16.7682934, -6.7073174, -0.6097561, 0.0209812
-0.7011719, 0.6875, -0.2763672, -17.1951218, -7.0731707, -0.5487805, 0.0129244
-0.7021484, 0.6811523, -0.2670898, -16.8902435, -7.3780489, -1.2195122, 0.0005035
-0.7026367, 0.6674805, -0.2617188, -16.5853653, -7.1341467, -0.9146342, -0.0129244
-0.7026367, 0.6640625, -0.2617188, -16.0975609, -6.9512196, -0.8536586, -0.0209812
-0.7045898, 0.6625977, -0.2592773, -16.0365849, -6.8292685, -0.6707317, -0.0270237
-0.7070312, 0.6616211, -0.2578125, -15.8536587, -6.0365853, -0.3658537, -0.0323949
-0.7128906, 0.6625977, -0.2636719, -15.2439032, -5.8536587, 0.1219512, -0.0354162
-0.7167969, 0.6704102, -0.277832, -14.5121956, -6.280488, 0.7317073, -0.0364233
-0.7133789, 0.6704102, -0.2890625, -13.5365858, -8.0487804, 2.0121951, -0.0203098
-0.7163086, 0.6713867, -0.3032227, -13.5365858, -8.841464, 2.0731707, 0.0276951
-0.7163086, 0.668457, -0.3032227, -12.9878054, -10.1829271, 1.8292683, 0.0454871
-0.7241211, 0.6660156, -0.3041992, -12.9268293, -10.9146347, 1.8292683, 0.0397803
-0.7314453, 0.6621094, -0.3037109, -12.5, -12.560976, 1.2804878, 0.0273594
-0.7373047, 0.6538086, -0.2993164, -11.7682934, -13.6585369, 1.7682927, 0.0102388
-0.7402344, 0.6533203, -0.3027344, -10.4268293, -15.9146347, 2.3170731, -0.0052033
-0.7348633, 0.6601562, -0.3164062, -9.4512196, -16.7682934, 2.5, -0.0085603
-0.7294922, 0.668457, -0.3173828, -8.3536587, -18.0487804, 2.8658538, -0.0018463
-0.7182617, 0.6738281, -0.3066406, -8.3536587, -18.4146347, 2.5609756, 0.0159457
-0.6982422, 0.6782227, -0.2880859, -8.841464, -18.1707325, 2.2560976, 0.0757
-0.690918, 0.6806641, -0.2802734, -9.5731707, -17.6219521, 1.6463414, 0.1092699
-0.6748047, 0.6748047, -0.2836914, -9.3292685, -17.2560978, 1.7073171, 0.0773785
-0.6655273, 0.6870117, -0.2929688, -9.2682924, -16.9512196, 2.5609756, 0.0196384
-0.6552734, 0.6982422, -0.3115234, -9.6951218, -16.7073174, 3.1097562, -0.0384375
-0.6489258, 0.7016602, -0.3173828, -11.5243902, -16.4024391, 2.8658538, -0.0835889
-0.6640625, 0.7084961, -0.3178711, -13.1097565, -15.8536587, 2.0731707, -0.0981918
-0.668457, 0.7080078, -0.3105469, -15.5487804, -14.5731707, 0.5487805, -0.0874495
-0.6894531, 0.706543, -0.2929688, -16.4634151, -13.7195129, -0.4268293, -0.0587472
-0.6977539, 0.7060547, -0.2900391, -16.9512196, -12.0731707, -1.3414634, -0.0283665
-0.706543, 0.706543, -0.3007812, -16.6463413, -11.7073174, -0.7317073, -0.0028534
-0.7070312, 0.7006836, -0.3276367, -16.4024391, -11.8292685, -0.3048781, 0.0025177
-0.7041016, 0.7050781, -0.3383789, -16.4024391, -13.4146347, 0.7317073, -0.002182
-0.7045898, 0.7026367, -0.3427734, -16.5853653, -14.0243902, 0.4878049, -0.0142672
-0.7084961, 0.6982422, -0.3295898, -18.5365849, -15.4878054, -0.2439024, -0.0283665
-0.7172852, 0.6835938, -0.2851562, -19.6341476, -15.9146347, -1.0365853, -0.0428016
-0.7260742, 0.6733398, -0.2607422, -20.3658543, -16.7682934, -1.8292683, -0.0538796
-0.7275391, 0.6508789, -0.21875, -20, -16.6463413, -1.9512196, -0.0632792
-0.7265625, 0.6435547, -0.2133789, -17.6829281, -15.6707325, -2.0121951, -0.0788891
-0.7202148, 0.6499023, -0.2363281, -15.9756098, -15.5487804, -1.3414634, -0.0861067
-0.7197266, 0.6625977, -0.2573242, -13.5975609, -15.3658543, 0.9146342, -0.0874495
-0.7006836, 0.6948242, -0.3051758, -13.1707315, -15.7317076, 2.0121951, -0.0691539
-0.6992188, 0.7177734, -0.3266602, -13.780488, -15.6707325, 2.0731707, -0.0350805
-0.7006836, 0.7207031, -0.3256836, -16.1585369, -15.4268293, 0.9146342, -0.0005035
-0.7041016, 0.71875, -0.3051758, -17.5, -15.1829271, 0.7317073, -0.01561
-0.7109375, 0.7094727, -0.2905273, -18.9024391, -15.3658543, -0.1829268, -0.0532082
-0.71875, 0.6845703, -0.2670898, -18.9024391, -15.8536587, -0.2439024, -0.0891279
-0.7207031, 0.6713867, -0.2597656, -17.1341476, -17.439024, 0.1219512, -0.1176623
-0.71875, 0.6552734, -0.2651367, -16.2195129, -17.9268303, 0.3658537, -0.1351186
-0.7182617, 0.6538086, -0.2719727, -13.9634151, -19.0243912, 1.1585366, -0.1394827
-0.7128906, 0.6645508, -0.2817383, -13.1707315, -19.1463413, 1.2195122, -0.1337758
-0.7133789, 0.6772461, -0.2832031, -12.3170738, -19.8780499, 1.2804878, -0.1304189
-0.7104492, 0.6928711, -0.2783203, -12.3170738, -20.2439022, 0.9146342, -0.1253834
-0.7006836, 0.706543, -0.2705078, -12.3780489, -20.3048782, 0.8536586, -0.1257191
-0.6953125, 0.7094727, -0.2734375, -11.7682934, -20.6097565, 1.2195122, -0.1300832
-0.6806641, 0.7119141, -0.2875977, -11.7073174, -20.9756107, 1.402439, -0.1388113
-0.6777344, 0.7075195, -0.2939453, -11.280488, -21.2195129, 1.6463414, -0.1354543
-0.6821289, 0.7011719, -0.2905273, -11.5243902, -21.3414631, 1.7073171, -0.115816
-0.6855469, 0.6894531, -0.2832031, -13.3536587, -22.0731716, 1.097561, -0.0948348
-0.6948242, 0.6586914, -0.2685547, -14.1463413, -22.1341476, 0.7926829, -0.0775463
-0.7026367, 0.6425781, -0.2617188, -14.6951227, -21.0975609, 0, -0.0569009
-0.7250977, 0.6362305, -0.2612305, -14.3292685, -20.6097565, -0.1219512, -0.0337377
-0.734375, 0.6391602, -0.2661133, -12.7439032, -20.6707325, 0.2439024, -0.018967
-0.7480469, 0.6611328, -0.2783203, -10.9146347, -22.6829281, 0.9146342, -0.0102388
-0.7451172, 0.6884766, -0.2944336, -10, -23.9024391, 1.097561, 0.0199741
-0.7431641, 0.7041016, -0.3051758, -9.0853662, -25.3048782, 0.8536586, 0.0438087
-0.7338867, 0.7236328, -0.3134766, -8.841464, -25.6707325, 0.7926829, 0.0412909
-0.7299805, 0.7280273, -0.3095703, -8.719512, -26.4024391, 0.3658537, 0.027863
-0.7182617, 0.7216797, -0.2988281, -9.1463413, -26.5243912, 0.2439024, 0.0119173
-0.7089844, 0.7099609, -0.2856445, -10.060976, -25.3048782, -0.3048781, -0.0263523
-0.690918, 0.6845703, -0.2685547, -10.5487804, -24.0243912, -0.6097561, -0.0542153
-0.6850586, 0.6723633, -0.262207, -11.7073174, -21.0365868, -1.0365853, -0.0626078
-0.6782227, 0.6591797, -0.262207, -12.1341467, -19.5121956, -1.2195122, -0.0589151
-0.6831055, 0.65625, -0.2700195, -12.3170738, -18.0487804, -0.3048781, -0.0464942
-0.6762695, 0.6513672, -0.2822266, -12.7439032, -19.5121956, 1.7073171, -0.0350805
-0.6635742, 0.6391602, -0.2915039, -13.2317076, -20.1219521, 2.3780489, -0.0303807
-0.65625, 0.6293945, -0.2900391, -15.1829271, -20.6707325, 1.7682927, -0.0253452
-0.6674805, 0.6206055, -0.2797852, -15.8536587, -20.3048782, 0.8536586, -0.0206455
-0.6855469, 0.625, -0.2739258, -16.2195129, -19.2073174, -0.7317073, -0.0169528
-0.7148438, 0.6455078, -0.269043, -15.9146347, -19.3902435, -0.8536586, -0.0166171
-0.7265625, 0.6601562, -0.2714844, -14.0243902, -20.9756107, -0.1219512, -0.0169528
-0.7314453, 0.6860352, -0.2817383, -13.2317076, -22.1951218, 0.5487805, -0.0135958
-0.7329102, 0.6918945, -0.2851562, -12.9268293, -23.4756107, 1.2804878, -0.0139315
-0.7294922, 0.6977539, -0.2841797, -14.2682934, -23.4756107, 1.097561, -0.012253
-0.7304688, 0.6938477, -0.2773438, -15.3048782, -22.9878063, 1.0365853, -0.008896
-0.7338867, 0.6669922, -0.2446289, -16.7682934, -21.4634151, 0.7926829, -0.0105745
-0.7216797, 0.640625, -0.2016602, -17.0121956, -20.6097565, 0.6707317, -0.0099031
-0.7158203, 0.6342773, -0.1879883, -15.9756098, -18.5365849, 0.1219512, -0.0135958
-0.7138672, 0.6333008, -0.1831055, -14.5121956, -18.0487804, 0, -0.014435
-0.7041016, 0.6450195, -0.1962891, -11.5853662, -18.2317085, 1.5853659, -0.012253
-0.6811523, 0.6660156, -0.2436523, -10.4268293, -19.0853672, 2.8658538, -0.005539
-0.668457, 0.6772461, -0.2724609, -10.4878054, -21.4024391, 5.5487804, 0.0068818
-0.6484375, 0.6689453, -0.3222656, -11.5243902, -21.8292694, 5.609756, 0.0166171
-0.6513672, 0.652832, -0.3295898, -15.1219511, -21.0365868, 3.8414636, 0.0184634
-0.6855469, 0.6479492, -0.315918, -18.2317085, -18.5975609, 1.097561, 0.0166171
-0.7089844, 0.6518555, -0.3022461, -18.9634151, -18.1707325, 0.2439024, 0.0132601
-0.7543945, 0.6674805, -0.2739258, -17.3170738, -20.1219521, 0.2439024, 0.0112459
-0.7729492, 0.6953125, -0.2685547, -15.6097565, -21.8292694, 0.6097561, 0.0102388
-0.7714844, 0.703125, -0.2729492, -12.6219511, -25.7926826, 1.8902439, 0.0099031
-0.7475586, 0.7163086, -0.2832031, -12.0731707, -26.8292694, 2.3780489, 0.0231632
-0.7382812, 0.7182617, -0.2817383, -12.3170738, -26.8902454, 2.195122, 0.0424659
-0.722168, 0.7045898, -0.2719727, -13.2317076, -26.1585369, 2.0731707, 0.0585794
-0.7197266, 0.7001953, -0.2587891, -14.5121956, -24.0243912, 1.402439, 0.079057
-0.7172852, 0.6860352, -0.2285156, -14.8170738, -23.2926826, 1.5853659, 0.0897993
-0.7182617, 0.6816406, -0.2124023, -13.9634151, -22.9268303, 1.8902439, 0.0891279
-0.7163086, 0.6796875, -0.1948242, -12.0121956, -22.8048782, 2.195122, 0.0767071
-0.7148438, 0.6821289, -0.1933594, -11.0365858, -22.0121956, 2.1341465, 0.0619364
-0.7080078, 0.6889648, -0.1967773, -9.5731707, -21.280489, 2.3170731, 0.0481727
-0.6977539, 0.6962891, -0.2119141, -9.2682924, -20.8536587, 2.7439024, 0.0276951
-0.6933594, 0.6982422, -0.2177734, -8.780488, -20.1219521, 3.4756098, 0.0119173
-0.6860352, 0.6879883, -0.2353516, -9.4512196, -19.5731716, 3.5975611, -0.0078889
-0.6791992, 0.6801758, -0.2353516, -10.5487804, -17.6829281, 2.9268293, -0.0159457
-0.6826172, 0.6772461, -0.2319336, -10.9146347, -16.6463413, 2.6219513, -0.0256809
-0.6889648, 0.6757812, -0.2285156, -11.0975609, -15.4878054, 2.1341465, -0.0310521
-0.6933594, 0.6811523, -0.2270508, -10.6707315, -14.9390249, 2.195122, -0.0357519
-0.6987305, 0.6835938, -0.2236328, -10.4878054, -14.6951227, 2.1341465, -0.0458228
-0.6958008, 0.6845703, -0.2324219, -9.7560978, -14.0243902, 2.1341465, -0.0508583
-0.6948242, 0.6870117, -0.2363281, -9.6341467, -13.5365858, 2.3170731, -0.0527047
-0.6938477, 0.6889648, -0.2456055, -9.9390249, -12.9268293, 2.5, -0.0552224
-0.6987305, 0.6796875, -0.2612305, -9.8170738, -12.9268293, 3.1707318, -0.0522011
-0.7001953, 0.6762695, -0.2651367, -10.3658543, -13.1097565, 3.4146342, -0.0466621
-0.7084961, 0.6708984, -0.2695312, -10.8536587, -12.9268293, 3.2317073, -0.0471656
-0.7158203, 0.6689453, -0.269043, -11.341464, -11.8902445, 2.4390244, -0.0458228
-0.7373047, 0.6723633, -0.2675781, -11.6463413, -11.7073174, 2.1341465, -0.0448157
-0.7475586, 0.6757812, -0.2651367, -10.8536587, -12.3170738, 2.3170731, -0.0411231
-0.7490234, 0.6826172, -0.2587891, -10.4878054, -13.1097565, 2.6829269, -0.0404517
-0.7460938, 0.6816406, -0.2602539, -9.2073174, -14.4512196, 3.2926829, -0.0384375
-0.737793, 0.6801758, -0.2641602, -8.6585369, -15.1829271, 3.7195122, -0.0394446
-0.7338867, 0.6777344, -0.2661133, -8.9634151, -14.8170738, 3.5975611, -0.0414588
-0.722168, 0.6738281, -0.2670898, -9.4512196, -14.5731707, 3.7195122, -0.0458228
-0.7177734, 0.6674805, -0.2626953, -9.9390249, -14.5121956, 3.9634147, -0.0471656
-0.715332, 0.6723633, -0.2592773, -10.1219511, -14.1463413, 4.5121951, -0.0464942
-0.7128906, 0.6669922, -0.2578125, -10.3048782, -14.2073174, 4.4512196, -0.0448157
-0.7128906, 0.6679688, -0.262207, -9.9390249, -14.2073174, 4.3292685, -0.0377661
-0.7172852, 0.6855469, -0.2744141, -9.8780489, -14.3292685, 4.2073174, -0.0340734
-0.7226562, 0.6953125, -0.2817383, -9.5731707, -14.9390249, 4.1463413, -0.0290379
-0.7285156, 0.7016602, -0.2958984, -10, -15.5487804, 4.390244, -0.0162814
-0.7290039, 0.6982422, -0.2993164, -10.7317076, -16.3414631, 4.2682929, -0.0041962
-0.7265625, 0.6884766, -0.2993164, -11.4634151, -15.9756098, 3.6585367, 0.0065461
-0.7241211, 0.6865234, -0.3027344, -11.5853662, -15.7317076, 2.9878049, 0.0112459
-0.7348633, 0.6899414, -0.3007812, -10.4878054, -16.4634151, 2.9878049, 0.0112459
-0.7294922, 0.7011719, -0.2958984, -10.1219511, -17.560976, 3.3536587, 0.0078889
-0.7265625, 0.7050781, -0.2885742, -9.7560978, -20.1219521, 3.4146342, 0.0025177
-0.7114258, 0.6987305, -0.2822266, -10, -20.9756107, 3.4146342, 0.0008392
-0.7036133, 0.6884766, -0.2739258, -10.8536587, -20.5487804, 2.8658538, 0.0031891
-0.6987305, 0.6723633, -0.2519531, -11.4024391, -19.3292694, 2.1341465, 0.0112459
-0.7011719, 0.6699219, -0.2446289, -11.5243902, -17.1951218, 1.7682927, 0.0152743
-0.7119141, 0.6733398, -0.2456055, -11.219512, -16.7073174, 1.5853659, 0.0172885
-0.7148438, 0.6850586, -0.2495117, -9.6341467, -16.9512196, 2.5, 0.0139315
-0.7163086, 0.7011719, -0.2646484, -8.6585369, -18.4146347, 3.5365853, 0.0125887
-0.7104492, 0.7021484, -0.2680664, -8.780488, -19.0243912, 3.6585367, 0.0085603
-0.7070312, 0.6982422, -0.2680664, -10, -18.5365849, 3.3536587, 0.0078889
-0.7070312, 0.6708984, -0.2568359, -10.3048782, -17.560976, 2.804878, 0.0008392
-0.7172852, 0.6650391, -0.2504883, -10.3048782, -15.9756098, 2.0121951, -0.0057069
-0.7260742, 0.6665039, -0.2480469, -9.5121956, -15.2439032, 1.8902439, -0.0146029
-0.7270508, 0.6708984, -0.2539062, -7.2560978, -16.280489, 2.5, -0.0250095
-0.7216797, 0.6977539, -0.2749023, -6.1585369, -16.9512196, 3.0487804, -0.0337377
-0.7143555, 0.7080078, -0.2851562, -4.8780489, -18.7195129, 3.4756098, -0.0412909
-0.7006836, 0.7119141, -0.2983398, -5.3048782, -18.9024391, 3.5975611, -0.0417945
-0.7001953, 0.7167969, -0.2944336, -6.5243902, -18.4146347, 2.9878049, -0.0411231
-0.7021484, 0.6987305, -0.2895508, -8.2926826, -16.9512196, 2.2560976, -0.0377661
-0.7094727, 0.6850586, -0.284668, -8.6585369, -16.5853653, 2.195122, -0.0303807
-0.7294922, 0.6606445, -0.2768555, -8.780488, -17.3170738, 2.9268293, -0.0223239
-0.7416992, 0.6416016, -0.2734375, -8.4756098, -17.6829281, 3.4756098, -0.0313878
-0.7480469, 0.628418, -0.2709961, -7.6219516, -18.3536587, 3.7804878, -0.0357519
-0.7568359, 0.6289062, -0.2675781, -7.1341467, -18.4756107, 3.9634147, -0.0265202
-0.7636719, 0.6352539, -0.2680664, -5.4268293, -18.9634151, 3.9634147, -0.0041962
-0.7685547, 0.6616211, -0.2729492, -4.1463413, -19.2073174, 4.0853658, 0.0196384
-0.7695312, 0.6708984, -0.2729492, -2.0731707, -20.9756107, 5.1219511, 0.0330663
-0.746582, 0.690918, -0.2797852, -1.2804878, -21.7682934, 6.0975609, 0.0428016
-0.7382812, 0.6889648, -0.2783203, -0.6097561, -22.1951218, 6.4634147, 0.0528725
-0.7211914, 0.6767578, -0.2753906, -0.7926829, -21.8292694, 6.0975609, 0.0515297
-0.7236328, 0.6611328, -0.2617188, -1.097561, -21.2195129, 5.9756098, 0.0481727
-0.7172852, 0.6523438, -0.25, -0.6707317, -21.1585369, 6.2195125, 0.0391089
-0.7231445, 0.6411133, -0.2373047, 0.0609756, -20.5487804, 6.3414636, 0.0223239
-0.7260742, 0.6459961, -0.2314453, 2.804878, -20.5487804, 6.5243902, 0.0095674
-0.7299805, 0.6689453, -0.2319336, 4.3292685, -20.4878044, 6.9512196, 0.0075532
-0.7260742, 0.6791992, -0.234375, 6.4634147, -20.7926826, 7.8658538, 0.0078889
-0.7138672, 0.7026367, -0.2475586, 7.3170733, -21.0365868, 8.5365858, 0.0377661
-0.7036133, 0.7075195, -0.2504883, 9.0853662, -20.1219521, 8.0487804, 0.0441444
-0.6870117, 0.7167969, -0.2597656, 9.4512196, -19.6341476, 8.5975609, 0.0240024
-0.6801758, 0.71875, -0.2612305, 9.8170738, -18.4146347, 8.2926826, -0.0048676
-0.6772461, 0.7158203, -0.2631836, 10.1219511, -17.439024, 8.1097565, -0.0364233
-0.671875, 0.6987305, -0.265625, 10.3658543, -17.3170738, 8.2317076, -0.0605936
-0.6757812, 0.6918945, -0.2675781, 10.5487804, -16.4024391, 7.9878049, -0.0787213
-0.6894531, 0.6723633, -0.2719727, 10.7926836, -15.9756098, 7.6829271, -0.0894636
-0.7036133, 0.6669922, -0.2695312, 11.4634151, -15.1829271, 7.5, -0.0943313
-0.7246094, 0.6669922, -0.2744141, 12.1341467, -15.060976, 7.4390244, -0.0736858
-0.7319336, 0.6699219, -0.2734375, 13.9024391, -15.4268293, 8.1097565, -0.0572366
-0.7294922, 0.684082, -0.293457, 14.9390249, -15.8536587, 8.4756098, -0.0740215
-0.7270508, 0.6855469, -0.3032227, 16.7682934, -17.0121956, 9.0243902, -0.100206
-0.722168, 0.6967773, -0.3183594, 17.3780499, -17.560976, 8.9634151, -0.1279011
-0.722168, 0.6933594, -0.3261719, 17.5, -18.8414631, 9.0853662, -0.149218
-0.7138672, 0.6865234, -0.3330078, 16.5243912, -19.1463413, 8.719512, -0.1552605
-0.7128906, 0.6689453, -0.3198242, 16.0365849, -19.0243912, 8.5365858, -0.1408255
-0.7084961, 0.6591797, -0.3139648, 15.060976, -17.6219521, 7.9878049, -0.1253834
-0.7114258, 0.6513672, -0.293457, 14.8170738, -17.3780499, 7.6219516, -0.110277
-0.7094727, 0.6542969, -0.2827148, 15.4268293, -16.7682934, 7.9878049, -0.0978561
-0.7084961, 0.6640625, -0.2827148, 15.9146347, -17.0121956, 8.5365858, -0.0891279
-0.7075195, 0.6738281, -0.2885742, 16.8292694, -16.8292694, 9.3902445, -0.0877852
-0.6923828, 0.6870117, -0.3154297, 16.7682934, -16.7073174, 9.9390249, -0.085771
-0.6879883, 0.6845703, -0.3276367, 15.5487804, -15.3658543, 10.6097565, -0.0767071
-0.684082, 0.6831055, -0.3369141, 14.2682934, -14.5731707, 10.6097565, -0.0686503
-0.684082, 0.6782227, -0.3349609, 12.1341467, -12.2560978, 10.5487804, -0.0552224
-0.6967773, 0.6728516, -0.3354492, 10.4878054, -10.7317076, 10.060976, -0.0458228
-0.7133789, 0.668457, -0.3286133, 9.8780489, -10.3658543, 10.3048782, -0.0404517
-0.7124023, 0.6674805, -0.3291016, 9.7560978, -11.0365858, 10.4268293, -0.0370947
-0.7197266, 0.6630859, -0.3300781, 9.8170738, -11.7682934, 10.3658543, -0.0364233
-0.7197266, 0.6572266, -0.3232422, 9.4512196, -11.9512196, 10.5487804, -0.0283665
-0.71875, 0.6464844, -0.3061523, 9.2073174, -11.9512196, 10.3658543, -0.0166171
-0.7265625, 0.6430664, -0.296875, 8.9634151, -11.1585369, 10.1829271, -0.005539
-0.7231445, 0.6450195, -0.2880859, 9.2073174, -10.6707315, 10.1219511, 0.0016785
-0.7236328, 0.6499023, -0.2890625, 10.1219511, -10.3658543, 10.5487804, 0.0072175
-0.7163086, 0.6713867, -0.315918, 11.0365858, -10.1829271, 10.9756098, 0.0058747
-0.7075195, 0.6772461, -0.331543, 11.8292685, -10.060976, 11.7073174, -0.0001678
-0.6933594, 0.6962891, -0.359375, 11.280488, -9.6951218, 11.9512196, 0.0035248
-0.6801758, 0.7094727, -0.3574219, 10.8536587, -9.2682924, 11.341464, 0.0025177
-0.671875, 0.7114258, -0.3496094, 8.2926826, -8.6585369, 10.4268293, 0.0005035
-0.6665039, 0.7006836, -0.3286133, 7.7439027, -8.2926826, 10.2439022, -0.0015106
-0.6645508, 0.6918945, -0.3222656, 7.1341467, -7.0121951, 9.8780489, -0.0041962
-0.6679688, 0.6713867, -0.3325195, 7.2560978, -6.5853658, 9.8170738, -0.0015106
-0.6689453, 0.6669922, -0.3466797, 7.7439027, -6.6463418, 10.1219511, -0.0003357
-0.6889648, 0.6547852, -0.3657227, 7.8048782, -6.9512196, 10.1219511, -0.0001678
-0.6987305, 0.6577148, -0.3706055, 8.2317076, -7.1951222, 10.3658543, 0.0052033
-0.7148438, 0.6728516, -0.3652344, 8.2926826, -7.7439027, 9.6341467, 0.0072175
-0.7207031, 0.684082, -0.3579102, 9.1463413, -8.9024391, 8.780488, 0.0105745
-0.7226562, 0.7084961, -0.3388672, 10.8536587, -10.7926836, 8.5365858, 0.0142672
-0.7109375, 0.722168, -0.328125, 12.3170738, -11.8292685, 8.2926826, 0.0193027
-0.7006836, 0.7207031, -0.3310547, 13.5975609, -13.7195129, 8.9024391, 0.026688
-0.6713867, 0.7036133, -0.3447266, 13.4756098, -13.9024391, 9.3902445, 0.0298772
-0.6601562, 0.6845703, -0.3505859, 12.3780489, -12.4390249, 9.6341467, 0.033402
-0.6577148, 0.6582031, -0.3530273, 11.219512, -11.4024391, 9.6951218, 0.0350805
-0.6616211, 0.652832, -0.3535156, 9.6341467, -9.5121956, 8.9024391, 0.0381018
-0.6845703, 0.6572266, -0.3461914, 9.3902445, -9.1463413, 8.5975609, 0.0364233
-0.6933594, 0.668457, -0.3388672, 10.3048782, -9.3902445, 8.0487804, 0.0387732
-0.7001953, 0.6967773, -0.3388672, 10.8536587, -10, 7.9268293, 0.0406195
-0.6987305, 0.7109375, -0.3408203, 12.4390249, -11.280488, 7.5609756, 0.0411231
-0.6938477, 0.7255859, -0.3408203, 12.9268293, -11.5243902, 7.6219516, 0.0407874
-0.6816406, 0.7167969, -0.3481445, 12.560976, -10.8536587, 7.4390244, 0.0360876
-0.6748047, 0.7001953, -0.3466797, 11.9512196, -9.0853662, 7.3170733, 0.0320592
-0.6699219, 0.6889648, -0.359375, 11.5243902, -7.9878049, 7.3170733, 0.024506
-0.6772461, 0.6918945, -0.3686523, 11.219512, -6.280488, 7.6829271, 0.0219883
-0.7016602, 0.6835938, -0.3881836, 11.5853662, -6.0365853, 7.6829271, 0.0209812
-0.7128906, 0.6831055, -0.3964844, 12.3780489, -6.9512196, 7.9268293, 0.0132601
-0.7329102, 0.6767578, -0.3798828, 12.4390249, -8.2926826, 7.6829271, 0.0125887
-0.7426758, 0.6679688, -0.3642578, 13.6585369, -9.4512196, 7.2560978, 0.024506
-0.7504883, 0.6479492, -0.3237305, 15.3658543, -9.9390249, 6.890244, 0.0179599
-0.7539062, 0.6430664, -0.3032227, 17.0731716, -9.4512196, 7.1951222, -0.005539
-0.7382812, 0.6577148, -0.2651367, 20.9146347, -9.8170738, 7.9878049, -0.0320592
-0.7036133, 0.6884766, -0.277832, 22.8658543, -9.5731707, 8.3536587, -0.0619364
-0.6860352, 0.7045898, -0.3012695, 26.280489, -8.4756098, 9.7560978, -0.0820783
-0.6713867, 0.7304688, -0.3554688, 26.5243912, -7.2560978, 10.060976, -0.0908064
-0.6655273, 0.7387695, -0.3740234, 25.6097565, -4.6341462, 10.6097565, -0.0963455
-0.6806641, 0.730957, -0.3916016, 24.3292694, -3.5365853, 10.5487804, -0.0983597
-0.6855469, 0.7167969, -0.3833008, 21.5853672, -1.0365853, 9.8170738, -0.0887922
-0.715332, 0.6879883, -0.359375, 21.280489, -0.0609756, 9.2073174, -0.0820783
-0.7265625, 0.6767578, -0.3505859, 22.2560978, 0.3658537, 8.5365858, -0.0733501
-0.7407227, 0.6625977, -0.3413086, 25.4878063, -1.2804878, 9.0853662, -0.0696574
-0.7407227, 0.6679688, -0.3369141, 27.5, -2.3780489, 9.1463413, -0.0726787
-0.7211914, 0.6811523, -0.3251953, 29.7560978, -3.3536587, 9.5731707, -0.0767071
-0.6972656, 0.690918, -0.3125, 30.3048782, -3.0487804, 9.5121956, -0.0743572
-0.6831055, 0.6943359, -0.3085938, 31.0365868, 0, 8.9634151, -0.0780499
-0.6645508, 0.7001953, -0.3198242, 31.341465, 1.5853659, 9.0853662, -0.079057
-0.6582031, 0.699707, -0.3354492, 31.7682934, 4.2682929, 9.7560978, -0.0757
-0.6435547, 0.7016602, -0.3569336, 31.5853672, 5.3658538, 10.3658543, -0.0681468
-0.6420898, 0.6982422, -0.3618164, 30.4878063, 7.8658538, 10.6097565, -0.0555581
-0.6425781, 0.6938477, -0.3681641, 29.4512196, 9.0853662, 10.1829271, -0.0372625
-0.6542969, 0.6899414, -0.3730469, 28.1707325, 11.7073174, 9.1463413, -0.0377661
-0.6777344, 0.6801758, -0.3847656, 29.0243912, 13.2926836, 9.0853662, -0.0495155
-0.6875, 0.6845703, -0.3911133, 29.6951218, 13.2926836, 9.3292685, -0.0552224
-0.7006836, 0.6782227, -0.4140625, 31.1585369, 12.0121956, 10, -0.0562295
-0.7114258, 0.6894531, -0.4365234, 32.0731697, 11.6463413, 9.8780489, -0.0599222
-0.7143555, 0.6938477, -0.4418945, 33.4146347, 10.7317076, 10.060976, -0.0565652
-0.722168, 0.7084961, -0.4482422, 33.841465, 10.3658543, 10.2439022, -0.0498512
-0.7265625, 0.7133789, -0.4477539, 34.1463432, 9.7560978, 10.3048782, -0.0451514
-0.7172852, 0.715332, -0.4331055, 34.0853653, 9.5121956, 10.3658543, -0.0424659
-0.7143555, 0.7128906, -0.4213867, 34.5731697, 9.2073174, 10.3048782, -0.0466621
-0.7041016, 0.6958008, -0.4008789, 34.5731697, 9.4512196, 10.5487804, -0.0522011
-0.6987305, 0.684082, -0.394043, 35.8536606, 10.3658543, 11.341464, -0.0528725
-0.6918945, 0.6748047, -0.4018555, 37.4390259, 11.8292685, 12.3170738, -0.0412909
-0.6894531, 0.675293, -0.4091797, 38.0487823, 12.1341467, 13.0487804, -0.0050355
-0.6855469, 0.6816406, -0.4350586, 38.9634171, 12.9268293, 13.9634151, 0.0397803
-0.6855469, 0.6914062, -0.4516602, 39.1463432, 13.4146347, 14.1463413, 0.0518654
-0.6918945, 0.6953125, -0.4614258, 39.3292694, 14.3292685, 14.0853662, 0.0454871
-0.7075195, 0.6962891, -0.4506836, 39.4512215, 14.5731707, 13.7195129, 0.0280308
-0.706543, 0.6953125, -0.4404297, 40.3048782, 14.5121956, 13.7195129, 0.0005035
-0.7036133, 0.6914062, -0.4228516, 40.6097565, 14.2682934, 13.9024391, -0.0223239
-0.6953125, 0.6826172, -0.4179688, 42.1951218, 14.2682934, 14.3902445, -0.0377661
-0.671875, 0.6665039, -0.4125977, 43.1707344, 14.5731707, 14.9390249, -0.0365911
-0.6567383, 0.6601562, -0.4174805, 44.8170738, 15.4878054, 15.7317076, -0.0119173
-0.6420898, 0.6582031, -0.4262695, 46.5243912, 17.0121956, 16.1585369, 0.0119173
-0.6391602, 0.6621094, -0.4321289, 46.7682953, 17.6829281, 16.280489, 0.0142672
-0.6308594, 0.6860352, -0.4418945, 47.5609779, 18.6585369, 16.3414631, 0.0125887
-0.6318359, 0.7109375, -0.4624023, 47.7439041, 19.5121956, 16.3414631, 0.0139315
-0.6347656, 0.722168, -0.4726562, 47.4390259, 21.5243912, 16.2195129, 0.008896
-0.640625, 0.7211914, -0.4868164, 47.1951218, 22.2560978, 16.4634151, 0.0052033
-0.6411133, 0.7236328, -0.4873047, 46.7682953, 23.9024391, 17.1341476, -0.01561
-0.6430664, 0.7216797, -0.480957, 46.5243912, 24.3292694, 17.3780499, -0.0404517
-0.6489258, 0.7216797, -0.4794922, 46.341465, 25.7317085, 17.1341476, -0.0528725
-0.6557617, 0.7216797, -0.4677734, 47.3780518, 26.280489, 16.9512196, -0.057908
-0.6606445, 0.7231445, -0.4658203, 49.1463432, 27.560976, 16.7073174, -0.0538796
-0.6591797, 0.7319336, -0.4755859, 50.4878044, 28.2926826, 17.3170738, -0.0414588
-0.6606445, 0.7299805, -0.4833984, 51.341465, 28.841465, 17.439024, -0.0209812
-0.6533203, 0.7226562, -0.503418, 51.8292694, 30.3658543, 18.2317085, -0.0005035
-0.6547852, 0.7192383, -0.5195312, 51.7682953, 31.2195129, 18.2317085, 0.0132601
-0.659668, 0.7250977, -0.5224609, 51.4634171, 33.4146347, 18.4146347, 0.0213169
-0.6674805, 0.7368164, -0.53125, 51.8902435, 33.9024391, 18.8414631, 0.0240024
-0.6689453, 0.7412109, -0.5400391, 53.1097565, 34.5121956, 19.4512196, 0.0260166
-0.6630859, 0.7504883, -0.5556641, 53.4146347, 34.5731697, 19.7560978, 0.0193027
-0.6552734, 0.7514648, -0.5654297, 53.3536606, 35.6097565, 19.8780499, 0.0137636
-0.652832, 0.7304688, -0.581543, 53.1097565, 36.2195129, 19.2682934, 0.0115816
-0.6489258, 0.7250977, -0.5825195, 52.5, 37.4390259, 19.0853672, 0.011078
-0.6577148, 0.7016602, -0.574707, 52.4390259, 38.1097565, 18.9634151, 0.0072175
-0.6606445, 0.6943359, -0.5688477, 53.1097565, 37.9878044, 18.6585369, 0.0038605
-0.671875, 0.6879883, -0.5454102, 55.2439041, 37.5609779, 18.6585369, -0.002182
-0.6796875, 0.7138672, -0.5288086, 56.0975609, 37.2560997, 18.5975609, -0.0115816
-0.6723633, 0.7270508, -0.527832, 58.7804909, 37.6219521, 19.0243912, -0.0191348
-0.6538086, 0.7553711, -0.546875, 59.5121956, 38.0487823, 19.5121956, -0.0199741
-0.6416016, 0.7680664, -0.5595703, 60.2439041, 39.8170738, 20.3048782, -0.0117494
-0.6132812, 0.7792969, -0.5878906, 60, 41.4024391, 20.3048782, -0.0095674
-0.6098633, 0.7788086, -0.597168, 57.7439041, 45.1829262, 19.8780499, -0.0083925
-0.609375, 0.7724609, -0.5869141, 56.9512215, 46.7682953, 19.939024, -0.0102388
-0.6088867, 0.765625, -0.578125, 55.1219521, 49.5121956, 19.2073174, -0.0102388
-0.6132812, 0.7480469, -0.5566406, 54.5731735, 51.8902435, 17.9878044, -0.0062104
-0.6123047, 0.7348633, -0.5463867, 54.6341476, 53.1097565, 17.3170738, -0.0078889
-0.6162109, 0.7197266, -0.5268555, 56.1585388, 55.9756126, 17.1951218, -0.0095674
-0.6132812, 0.7177734, -0.53125, 57.2560997, 57.3780518, 17.2560978, -0.0135958
-0.6015625, 0.7216797, -0.5385742, 58.841465, 60, 18.1097565, -0.01561
-0.5874023, 0.730957, -0.5649414, 59.3902435, 61.5243912, 18.1707325, -0.0105745
-0.5742188, 0.7363281, -0.581543, 59.2682953, 64.8780518, 19.0853672, 0.0018463
-0.5634766, 0.737793, -0.6176758, 58.4146347, 66.3414612, 19.6341476, 0.0223239
-0.5605469, 0.7294922, -0.6337891, 56.4634171, 69.5121994, 19.4512196, 0.0354162
-0.5649414, 0.7197266, -0.6542969, 55.3658562, 71.1585388, 19.5731716, 0.0501869
-0.5751953, 0.7148438, -0.6611328, 53.7195129, 73.5365906, 18.2926826, 0.0572366
-0.6010742, 0.71875, -0.6787109, 53.5365868, 74.1463394, 18.3536587, 0.0666361
-0.6210938, 0.7270508, -0.699707, 53.7804909, 74.0243912, 18.6585369, 0.0720073
-0.6191406, 0.730957, -0.7128906, 52.9878044, 73.2317123, 19.0243912, 0.0988632
-0.6210938, 0.7304688, -0.7236328, 52.8658562, 72.8658524, 18.9634151, 0.1216907
-0.6230469, 0.7275391, -0.7299805, 51.8902435, 72.6219559, 18.6585369, 0.1220264
-0.6293945, 0.7109375, -0.7397461, 51.8292694, 72.2560959, 18.780489, 0.1331044
-0.6342773, 0.7011719, -0.7470703, 51.7073174, 70.8536606, 19.0853672, 0.0978561
-0.6391602, 0.6733398, -0.7636719, 51.6463432, 69.9390259, 19.6951218, 0.0246738
-0.6455078, 0.6538086, -0.7607422, 51.1585388, 68.7804871, 19.8780499, -0.0439765
-0.6582031, 0.6337891, -0.7456055, 50.9146347, 67.68293, 20, -0.0970169
-0.6669922, 0.6298828, -0.7250977, 51.341465, 65.18293, 20.4268303, -0.1290761
-0.6757812, 0.6298828, -0.6967773, 53.3536606, 62.5609779, 21.8902435, -0.1512322
-0.6635742, 0.6357422, -0.6870117, 55, 62.0121956, 22.8048782, -0.1589532
-0.652832, 0.6445312, -0.6972656, 57.9268303, 61.5853691, 24.5121956, -0.1613031
-0.6376953, 0.6557617, -0.7128906, 59.2073174, 61.8902435, 25.4878063, -0.1572747
-0.6298828, 0.6640625, -0.7158203, 59.6341476, 62.1341476, 26.0365868, -0.160296
-0.6220703, 0.6811523, -0.7148438, 59.7560997, 62.0121956, 25.6097565, -0.1654994
-0.6230469, 0.6933594, -0.7197266, 61.0975609, 62.4390259, 25.3658543, -0.1727169
-0.6088867, 0.7231445, -0.7402344, 62.0731735, 62.68293, 25.8536587, -0.1733883
-0.5952148, 0.7441406, -0.7539062, 63.5365868, 62.2560997, 26.9512196, -0.1740597
-0.5698242, 0.7797852, -0.777832, 63.4146347, 62.6219521, 27.1341476, -0.1700313
-0.5605469, 0.7866211, -0.7783203, 61.1585388, 64.2682953, 25.3658543, -0.1599603
-0.546875, 0.7822266, -0.7724609, 57.9268303, 66.5243912, 22.5, -0.1532464
-0.546875, 0.7792969, -0.7578125, 57.0121956, 67.3780518, 21.5853672, -0.1465324
-0.5405273, 0.7666016, -0.7519531, 56.4024391, 69.7560959, 20.5487804, -0.1331044
-0.5375977, 0.7548828, -0.7480469, 56.1585388, 70.4268341, 19.6951218, -0.1223621
-0.5356445, 0.7412109, -0.7387695, 55.6707344, 72.8658524, 17.439024, -0.10692
-0.5405273, 0.7084961, -0.7060547, 55.5487823, 73.7804871, 16.4634151, -0.0850996
-0.5405273, 0.6933594, -0.690918, 55.8536606, 75.4878082, 15.7317076, -0.0706645
-0.5395508, 0.6591797, -0.684082, 56.341465, 76.5243912, 15.7926836, -0.0582437
-0.53125, 0.6499023, -0.6977539, 57.9878044, 79.4512177, 17.8658543, -0.0500191
-0.5249023, 0.6303711, -0.762207, 58.6585388, 81.4634171, 18.4756107, -0.0436408
-0.534668, 0.625, -0.7949219, 59.3292694, 85.5487823, 19.3292694, -0.0414588
-0.5742188, 0.6425781, -0.8408203, 59.0243912, 86.646347, 19.2073174, -0.0330663
-0.6240234, 0.6777344, -0.8354492, 58.9024391, 85.8536606, 19.3902435, -0.0179599
-0.6376953, 0.6953125, -0.8222656, 59.8170738, 82.9878082, 19.7560978, -0.0062104
-0.625, 0.7084961, -0.7832031, 60.4878044, 80.6097565, 19.8170738, 0.005539
-0.6040039, 0.7060547, -0.7685547, 61.5853691, 78.7195129, 20.3048782, 0.0186313
-0.5498047, 0.6704102, -0.7709961, 61.8902435, 79.3292694, 20.060976, 0.0246738
-0.5234375, 0.6430664, -0.7895508, 61.8292694, 82.4390259, 20.060976, 0.0303807
-0.4941406, 0.6147461, -0.8339844, 61.341465, 84.2682953, 20.4268303, 0.0313878
-0.4902344, 0.6113281, -0.8505859, 60.0609779, 87.0121994, 21.4634151, 0.0288701
-0.503418, 0.6347656, -0.8618164, 59.0853691, 87.5609741, 22.0121956, 0.0287022
-0.515625, 0.6557617, -0.8515625, 57.3170738, 86.4024429, 22.560976, 0.0250095
-0.5356445, 0.6845703, -0.8173828, 56.1585388, 85, 21.9512196, 0.0226596
-0.5317383, 0.6806641, -0.7939453, 56.0365868, 84.5731735, 21.2195129, 0.0219883
-0.5180664, 0.6591797, -0.7915039, 56.341465, 85.5487823, 21.1585369, 0.0179599
-0.4916992, 0.6025391, -0.8037109, 56.341465, 86.8902435, 20.9756107, 0.0166171
-0.487793, 0.5820312, -0.8144531, 56.4634171, 89.4512253, 20.4268303, 0.0149386
-0.4921875, 0.5615234, -0.8408203, 56.6463432, 90.4878082, 20.7926826, 0.0129244
-0.4946289, 0.5610352, -0.8530273, 56.5243912, 89.8170776, 23.1097565, 0.0072175
-0.4921875, 0.5751953, -0.8603516, 56.7682953, 89.0853653, 24.2073174, 0.0038605
-0.4960938, 0.5825195, -0.8588867, 56.0975609, 88.5975647, 24.6341476, 0.0010071
-0.5146484, 0.5991211, -0.8588867, 56.341465, 89.0853653, 24.5731716, -0.0001678
-0.5292969, 0.6049805, -0.8618164, 58.1097565, 88.7804871, 24.8170738, -0.0045319
-0.5307617, 0.605957, -0.8754883, 59.4512215, 88.2926865, 25.7926826, -0.008896
-0.5253906, 0.5942383, -0.8793945, 59.6341476, 87.6219559, 25.9756107, -0.0142672
-0.5146484, 0.5957031, -0.875, 59.7560997, 86.8902435, 25.9146347, -0.0142672
-0.4995117, 0.5927734, -0.8564453, 59.8170738, 87.0121994, 26.0365868, -0.0139315
-0.487793, 0.59375, -0.8554688, 60.6097565, 86.7073212, 26.8902454, -0.018967
-0.4619141, 0.578125, -0.8696289, 61.2195129, 87.0731735, 27.5, -0.0203098
-0.4492188, 0.5639648, -0.8808594, 62.3780518, 88.4146347, 27.6829281, -0.0229953
-0.4624023, 0.5327148, -0.8911133, 62.8048782, 89.5731735, 26.8292694, -0.0216526
-0.4785156, 0.53125, -0.8764648, 62.8048782, 90.3658524, 25.1219521, -0.03122
-0.5239258, 0.543457, -0.840332, 63.3536606, 89.5121994, 25.060976, -0.0391089
-0.5258789, 0.5566406, -0.8344727, 66.2195129, 86.7073212, 28.1707325, -0.0386053
-0.4765625, 0.5639648, -0.8686523, 68.9634171, 86.8292694, 31.8902454, -0.0323949
-0.4243164, 0.5615234, -0.9272461, 69.5731735, 88.3536606, 32.3170738, -0.0181277
-0.418457, 0.5639648, -0.9501953, 68.7195129, 92.5, 31.5243912, -0.0075532
-0.449707, 0.5864258, -0.9580078, 67.68293, 94.146347, 31.0975609, 0.0036927
-0.4648438, 0.6010742, -0.9536133, 66.8292694, 94.6341476, 31.5243912, 0.0092317
-0.4672852, 0.6298828, -0.9511719, 66.5853653, 93.8414688, 32.0121956, 0.0139315
-0.4589844, 0.6318359, -0.9487305, 66.1585388, 93.0487823, 32.1951218, 0.0112459
-0.434082, 0.6225586, -0.9458008, 65.7926865, 92.9878082, 31.7682934, 0.0092317
-0.4248047, 0.6123047, -0.9477539, 64.9390259, 94.7561035, 30.8536587, 0.0065461
-0.4072266, 0.5810547, -0.9633789, 63.7804909, 96.9512253, 30.7926846, -0.0085603
-0.4057617, 0.5664062, -0.9755859, 63.4756126, 98.4146347, 31.0365868, -0.0256809
-0.409668, 0.5478516, -0.9956055, 62.7439041, 100, 31.2195129, -0.0357519
-0.453125, 0.5297852, -0.987793, 63.0487823, 100, 30.5487804, -0.0337377
-0.4814453, 0.5283203, -0.9750977, 63.7195129, 98.4146347, 29.9390259, -0.0251774
-0.5180664, 0.5253906, -0.9379883, 64.8780518, 97.1341476, 29.8170738, -0.0157778
-0.5249023, 0.5249023, -0.9155273, 68.5975647, 93.5365906, 31.8292694, -0.0065461
-0.4804688, 0.5268555, -0.9204102, 70.7926865, 92.5, 33.7804871, -0.005539
-0.4458008, 0.5234375, -0.9345703, 73.9024429, 92.9878082, 36.9512215, -0.0058747
-0.3798828, 0.5141602, -0.9580078, 74.4512177, 94.6341476, 37.8048782, 0.0036927
-0.3632812, 0.5141602, -0.965332, 73.7195129, 98.3536606, 37.8048782, 0.012253
-0.3588867, 0.5244141, -0.9702148, 73.2317123, 100.6707306, 38.2317085, 0.033402
-0.3613281, 0.5297852, -0.9785156, 73.5975647, 101.0975647, 38.5975609, 0.0681468
-0.3505859, 0.5375977, -0.9980469, 74.3292694, 100.9756088, 38.9634171, 0.1149767
-0.355957, 0.5307617, -1.0200195, 74.3902435, 101.0975647, 38.5975609, 0.1453574
-0.3583984, 0.5351562, -1.0249023, 72.9268341, 101.646347, 37.5, 0.1837949
-0.3574219, 0.5532227, -1.0307617, 72.2560959, 101.3414688, 37.5, 0.2368353
-0.3457031, 0.5576172, -1.034668, 70.7317123, 101.8292694, 38.9024391, 0.2299535
-0.3115234, 0.5625, -1.0415039, 69.5121994, 102.1341476, 39.4512215, 0.1978943
-0.2973633, 0.5605469, -1.0444336, 67.4390259, 103.5975647, 39.4512215, 0.1572747
-0.2792969, 0.5400391, -1.0415039, 65.9756088, 105, 38.841465, 0.0988632
-0.2763672, 0.5224609, -1.027832, 63.2926826, 107.4390259, 36.8902435, 0.0488441
-0.2871094, 0.4863281, -0.9951172, 62.1951218, 108.1097565, 35.7317085, 0.0078889
-0.2958984, 0.4697266, -0.9931641, 62.3780518, 108.1097565, 35.9756088, -0.0231632
-0.2929688, 0.4477539, -1.0039062, 64.1463394, 107.8048782, 37.0121956, -0.054551
-0.2939453, 0.4462891, -1.0244141, 65.3048782, 107.5, 37.6829262, -0.0743572
-0.300293, 0.4399414, -1.0302734, 67.9878082, 106.5853653, 37.3780479, -0.090135
-0.3291016, 0.4165039, -1.0327148, 69.0853653, 105.3048782, 36.8292694, -0.1055772
-0.3383789, 0.4067383, -1.0253906, 71.4024429, 102.4390259, 36.1585388, -0.1196765
-0.3564453, 0.4125977, -1.0288086, 72.9268341, 101.2195129, 36.5853653, -0.1263905
-0.3554688, 0.4306641, -1.0415039, 76.7682953, 98.2317123, 39.9390259, -0.1309224
-0.3168945, 0.4726562, -1.0888672, 78.2926865, 97.1341476, 42.1951218, -0.1337758
-0.2885742, 0.4946289, -1.109375, 79.0243912, 96.5243912, 44.6341476, -0.1371328
-0.2539062, 0.5141602, -1.112793, 76.2804871, 96.3414688, 42.9268303, -0.1472038
-0.2421875, 0.5053711, -1.0986328, 75.4268341, 96.0975647, 41.9512215, -0.1559319
-0.2382812, 0.4702148, -1.0854492, 74.9390259, 94.8780518, 40.9146347, -0.1545892
-0.2207031, 0.434082, -1.0791016, 75.4268341, 93.7195129, 40.5487823, -0.1426719
-0.2192383, 0.4257812, -1.0786133, 76.2804871, 91.5853653, 38.9634171, -0.1305867
-0.2236328, 0.4414062, -1.0693359, 76.5243912, 90.8536606, 38.3536606, -0.1203479
-0.2211914, 0.4648438, -1.0634766, 76.7682953, 89.5121994, 37.9268303, -0.1129625
-0.1918945, 0.5166016, -1.0527344, 76.9512177, 89.3292694, 38.1707344, -0.1028916
-0.1679688, 0.5361328, -1.0541992, 75.9756088, 90, 38.7195129, -0.0916457
-0.1157227, 0.5341797, -1.09375, 75.2439041, 90.8536606, 38.4756088, -0.090135
-0.0893555, 0.5078125, -1.1181641, 71.5853653, 94.9390259, 37.0731697, -0.0861067
-0.09375, 0.4619141, -1.1337891, 67.8048782, 98.9634171, 33.2926826, -0.0847639
-0.1318359, 0.4477539, -1.1147461, 66.9512177, 99.5731735, 30.9146347, -0.0807355
-0.2148438, 0.4331055, -1.074707, 67.7439041, 96.2804871, 29.0853672, -0.0773785
-0.2436523, 0.4404297, -1.0839844, 69.5121994, 93.6585388, 29.4512196, -0.0720073
-0.2363281, 0.4448242, -1.0991211, 72.0121994, 90, 30.1829281, -0.0673075
-0.2236328, 0.4570312, -1.1259766, 72.8658524, 89.6341476, 30.3048782, -0.0636149
-0.2182617, 0.4716797, -1.1230469, 72.4390259, 89.5121994, 30.3048782, -0.0565652
-0.1982422, 0.4907227, -1.0888672, 71.6463394, 89.0243912, 30.7317085, -0.0528725
-0.1728516, 0.4863281, -1.0751953, 70, 89.0243912, 32.0731697, -0.0518654
-0.1152344, 0.4433594, -1.0566406, 69.4512177, 90.0609741, 32.3780479, -0.0592508
-0.0947266, 0.4140625, -1.0498047, 68.4756088, 93.9634171, 30.9756107, -0.0589151
-0.0878906, 0.3706055, -1.0263672, 68.2926865, 97.3780518, 29.0243912, -0.0370947
-0.0942383, 0.362793, -1.0097656, 68.4756088, 97.68293, 28.5975609, -0.0048676
-0.1088867, 0.3637695, -1.0004883, 70.2439041, 97.9878082, 29.1463413, 0.0132601
-0.0991211, 0.3530273, -1.0351562, 71.0975647, 98.2317123, 29.9390259, 0.0119173
-0.09375, 0.3359375, -1.0556641, 72.8048782, 100.6097565, 30.4878063, 0.0052033
-0.1313477, 0.3051758, -1.0634766, 72.9268341, 101.7073212, 29.7560978, -0.0001678
-0.1591797, 0.2954102, -1.0458984, 73.1707306, 101.8292694, 28.3536587, -0.0041962
-0.2055664, 0.2963867, -1.0063477, 74.6341476, 100.6097565, 28.6585369, 0.0075532
-0.2001953, 0.3154297, -1.0009766, 78.6585388, 96.5243912, 32.3170738, 0.026688
-0.1264648, 0.3398438, -1.0361328, 80.4878082, 95.6097565, 34.4512215, 0.0285344
-0.0805664, 0.3393555, -1.0620117, 81.2195129, 97.3170776, 36.5243912, 0.0184634
-0.0307617, 0.3208008, -1.090332, 78.8414688, 101.7682953, 35.6097565, 0.0065461
-0.0302734, 0.3037109, -1.0859375, 77.2560959, 103.7195129, 34.5121956, -0.0038605
-0.0595703, 0.2705078, -1.0498047, 76.1585388, 103.7195129, 33.7195129, -0.0119173
-0.078125, 0.2578125, -1.0239258, 76.8902435, 102.8048782, 33.5365868, -0.0193027
-0.0839844, 0.2553711, -1.0180664, 80, 100.3658524, 33.2926826, -0.0238346
-0.0678711, 0.2695312, -1.0361328, 81.2804871, 99.5121994, 33.4146347, -0.0270237
-0.0576172, 0.277832, -1.0644531, 82.4390259, 99.4512253, 34.6951218, -0.0330663
-0.0317383, 0.3056641, -1.1333008, 81.7073212, 100.1219559, 35.7926826, -0.0352483
-0.0214844, 0.3266602, -1.1611328, 78.7804871, 102.4390259, 37.3170738, -0.033402
-0.012207, 0.3525391, -1.1689453, 77.0121994, 103.2317123, 37.1951218, -0.0337377
-0.0170898, 0.3476562, -1.15625, 72.68293, 102.9878082, 35.0609779, -0.0354162
-0.0415039, 0.3115234, -1.0864258, 71.0975647, 99.7561035, 32.0121956, -0.0391089
-0.0488281, 0.2958984, -1.0322266, 71.9512177, 97.9268341, 30.9146347, -0.0374304
-0.0283203, 0.2460938, -0.9584961, 75.3658524, 94.3292694, 30.4878063, -0.0260166
0.034668, 0.1914062, -0.9663086, 77.1341476, 93.8414688, 31.0975609, -0.0095674
0.0664062, 0.1733398, -0.9833984, 80, 96.0975647, 32.9878044, 0.0052033
0.0991211, 0.1660156, -1.0170898, 80.3658524, 98.8414688, 33.4756088, 0.0048676
0.0839844, 0.168457, -1.0351562, 81.0365906, 103.5975647, 32.8048782, 0.0063783
0.0126953, 0.21875, -1.0556641, 81.2804871, 104.2682953, 32.3170738, 0.0280308
-0.0185547, 0.2470703, -1.0727539, 83.6585388, 103.2926865, 33.1097565, 0.0508583
-0.0507812, 0.2929688, -1.1210938, 84.7560959, 102.0121994, 33.7804871, 0.0441444
-0.0424805, 0.3105469, -1.1425781, 84.5731735, 98.9024429, 34.2682953, 0.0260166
-0.0195312, 0.3066406, -1.1396484, 82.3170776, 96.8902435, 33.841465, 0.0025177
0.0019531, 0.2661133, -1.0649414, 81.3414688, 95.9146347, 32.7439041, -0.018967
0.0146484, 0.2441406, -1.0224609, 80.9146347, 94.5731735, 31.7073174, -0.0357519
0.0517578, 0.1948242, -0.980957, 81.8902435, 94.6951218, 32.1951218, -0.0464942
0.0761719, 0.1860352, -0.9858398, 84.0853653, 96.5243912, 33.5975609, -0.0481727
0.1166992, 0.1884766, -1.0307617, 84.9390259, 98.2926865, 34.1463432, -0.0491798
0.1274414, 0.1914062, -1.0517578, 84.7560959, 102.0731735, 34.5121956, -0.0569009
0.1113281, 0.1992188, -1.0751953, 84.146347, 103.5365906, 34.0853653, -0.0595865
0.0839844, 0.2026367, -1.0844727, 83.8414688, 104.7561035, 32.5, -0.0652934
0.0180664, 0.2133789, -1.125, 84.5731735, 104.2682953, 31.9512196, -0.0651255
-0.0097656, 0.2270508, -1.1474609, 86.2195129, 102.0121994, 32.5609779, -0.0599222
-0.0341797, 0.2714844, -1.1660156, 85.6707306, 99.0243912, 33.4756088, -0.0538796
-0.0185547, 0.293457, -1.1362305, 84.3292694, 97.3170776, 34.1463432, -0.0505226
0.0083008, 0.2768555, -1.1157227, 82.0121994, 93.5975647, 34.9390259, -0.0439765
0.0708008, 0.2075195, -1.0976562, 81.0975647, 93.3536606, 34.8170738, -0.0417945
0.0932617, 0.1743164, -1.1044922, 80.7317123, 94.6951218, 34.7560997, -0.036759
0.1054688, 0.1655273, -1.105957, 81.0975647, 95.4878082, 35.1219521, -0.0364233
0.1035156, 0.1713867, -1.0893555, 81.5853653, 95.4878082, 34.4512215, -0.0337377
0.0771484, 0.175293, -1.0532227, 81.4634171, 94.6951218, 33.2317085, -0.03122
0.0629883, 0.1835938, -1.0307617, 82.0731735, 92.1951218, 32.1341476, -0.0290379
0.0805664, 0.2075195, -1.0009766, 82.3780518, 91.7682953, 32.8658562, -0.0263523
0.1074219, 0.2143555, -1.0024414, 82.5, 91.5243912, 35.1829262, -0.0221561
0.1879883, 0.1865234, -1.0205078, 80.3048782, 94.4512253, 35.3048782, -0.0184634
0.222168, 0.1225586, -1.0415039, 78.9024429, 96.5853653, 34.4512215, -0.0129244
0.2084961, 0.0957031, -1.0449219, 78.4146347, 99.4512253, 32.1951218, -0.005539
0.1328125, 0.0961914, -1.0375977, 79.3902435, 99.9390259, 31.1585369, 0.0045319
0.1005859, 0.1157227, -1.034668, 82.8048782, 97.2561035, 30.1219521, 0.0142672
0.050293, 0.1352539, -1.0307617, 84.4512253, 94.8170776, 29.2682934, 0.0226596
0.043457, 0.1308594, -1.034668, 87.1341476, 88.7804871, 29.0243912, 0.0293736
0.0639648, 0.0991211, -1.0209961, 87.8658524, 85.9146347, 29.0853672, 0.0317235
0.0874023, 0.090332, -1.0058594, 89.2073212, 83.3536606, 29.8170738, 0.0320592
0.1367188, 0.0795898, -0.9638672, 90.2439041, 82.4390259, 30.2439022, 0.0394446
0.1591797, 0.0786133, -0.9643555, 91.646347, 82.5, 30.6707325, 0.0488441
0.1967773, 0.0756836, -1.0234375, 92.2561035, 84.6341476, 31.8292694, 0.0666361
0.1992188, 0.0913086, -1.0996094, 92.0121994, 86.5243912, 32.1951218, 0.0944991
0.1860352, 0.1035156, -1.1210938, 89.5731735, 89.0243912, 31.5243912, 0.0985275
0.1347656, 0.1269531, -1.0722656, 88.1707306, 88.0487823, 30.1829281, 0.0991989
0.1064453, 0.1289062, -1.0224609, 85.8536606, 82.3780518, 27.7439022, 0.0943313
0.1098633, 0.1108398, -0.9443359, 86.5853653, 79.0243912, 27.4390259, 0.0753643
0.1411133, 0.0986328, -0.9428711, 89.5121994, 75.18293, 28.3536587, 0.0602579
0.2211914, 0.0878906, -1.027832, 90.3048782, 75.7926865, 29.2073174, 0.0381018
0.253418, 0.0996094, -1.0839844, 87.9878082, 80.9146347, 31.4634151, 0.012253
0.2700195, 0.1464844, -1.1572266, 85.0609741, 84.7560959, 31.8292694, -0.0135958
0.2451172, 0.1611328, -1.152832, 77.5609741, 90.0609741, 28.841465, -0.0404517
0.1669922, 0.1669922, -1.0932617, 72.3170776, 88.1707306, 26.3414631, -0.0619364
0.1328125, 0.1479492, -1.0532227, 72.0121994, 85.0609741, 25.9756107, -0.0763714
0.1455078, 0.1196289, -1.0668945, 73.4146347, 79.146347, 26.0975609, -0.093492
0.1723633, 0.0668945, -1.1137695, 74.0243912, 77.9268341, 25.3048782, -0.1065843
0.1601562, 0.0541992, -1.1176758, 74.0243912, 78.0487823, 23.2926826, -0.1109483
0.1025391, 0.0712891, -1.0517578, 73.4756088, 77.68293, 22.2560978, -0.1065843
0.0795898, 0.0869141, -0.9970703, 74.5121994, 73.6585388, 21.7073174, -0.0975204
0.0922852, 0.0917969, -0.9438477, 75.4268341, 70.3048782, 22.0121956, -0.093492
0.1381836, 0.0722656, -0.9584961, 78.5975647, 65.8536606, 25.3048782, -0.093492
0.2543945, 0.0200195, -0.9868164, 79.4512177, 65.6097565, 26.7682934, -0.0914778
0.2895508, -0.0014648, -0.9755859, 78.1097565, 69.1463394, 25.9146347, -0.0783856
0.2729492, -0.0356445, -0.8823242, 78.1707306, 70.9756088, 22.6219521, -0.0699931
0.2294922, -0.0454102, -0.7983398, 79.6951218, 70.7317123, 22.6829281, -0.0703288
0.2299805, -0.0463867, -0.7880859, 85.2439041, 69.8780518, 24.2682934, -0.0659648
0.2758789, -0.0390625, -0.8173828, 87.6219559, 70.3048782, 25.060976, -0.061265
0.3041992, -0.0439453, -0.8413086, 89.146347, 72.68293, 26.280489, -0.033402
0.3359375, -0.0698242, -0.8823242, 88.8414688, 74.6951218, 26.4634151, -0.0196384
0.3291016, -0.0776367, -0.8911133, 88.1097565, 79.3292694, 25.9146347, 0.0035248
0.2885742, -0.0800781, -0.9272461, 88.3536606, 80.6097565, 25.8536587, 0.0632792
0.2661133, -0.0732422, -0.9501953, 89.4512253, 81.9512177, 26.6463413, 0.0777142
0.2163086, -0.0380859, -1.0009766, 89.8170776, 81.7073212, 26.4024391, 0.0911421
0.1953125, -0.0170898, -1.0161133, 89.2682953, 79.5121994, 26.3414631, 0.0911421
0.1660156, 0.015625, -0.9990234, 87.1951218, 75.18293, 25.7926826, 0.0582437
0.1982422, 0.0253906, -0.956543, 85.9756088, 72.6219559, 25.8536587, 0.01561
0.2373047, 0.0087891, -0.9482422, 82.3780518, 68.9024429, 27.5, -0.0246738
0.3364258, -0.0317383, -0.9887695, 81.0975647, 69.1463394, 28.3536587, -0.0558938
0.3691406, -0.0419922, -1.0087891, 77.1951218, 74.8170776, 28.4146347, -0.0800641
0.3754883, -0.0395508, -0.9804688, 74.7560959, 78.3536606, 27.0731716, -0.090135
0.3447266, -0.0336914, -0.9365234, 71.6463394, 81.7682953, 23.6585369, -0.1025559
0.284668, -0.043457, -0.8676758, 71.7073212, 81.2195129, 22.0731716, -0.1085985
0.2705078, -0.0585938, -0.8666992, 73.9024429, 77.8658524, 21.8292694, -0.1132982
0.2915039, -0.09375, -0.9125977, 75.3048782, 76.9512177, 22.2560978, -0.1156481
0.296875, -0.109375, -0.9301758, 75.6097565, 76.7682953, 21.280489, -0.1149767
0.2739258, -0.1308594, -0.9140625, 74.6341476, 75.9756088, 19.5731716, -0.1129625
0.2426758, -0.1245117, -0.8588867, 74.8780518, 74.0853653, 19.7560978, -0.110277
0.2421875, -0.1142578, -0.8378906, 77.5, 68.8414688, 21.4634151, -0.103563
0.2890625, -0.1206055, -0.8251953, 78.9634171, 67.2560959, 22.1341476, -0.1018845
0.3139648, -0.1367188, -0.8212891, 81.0975647, 65.6707306, 22.2560978, -0.0941634
0.3447266, -0.199707, -0.7905273, 81.7682953, 65.6097565, 21.3414631, -0.0847639
0.3398438, -0.2163086, -0.7700195, 83.9634171, 65.3658524, 20.060976, -0.0730144
0.3237305, -0.1870117, -0.7646484, 86.0975647, 64.5731735, 21.0975609, -0.0639506
0.3393555, -0.1542969, -0.777832, 90.5487823, 63.1707344, 25.060976, -0.0558938
0.3896484, -0.1147461, -0.8076172, 90.3658524, 64.8170776, 25.6097565, -0.0451514
0.3999023, -0.1196289, -0.8100586, 89.2073212, 66.0365906, 24.2073174, -0.0377661
0.3828125, -0.1396484, -0.8071289, 87.3780518, 67.5609741, 23.3536587, -0.0381018
0.3764648, -0.1533203, -0.8666992, 87.6219559, 67.5, 24.0243912, -0.0345769
0.3808594, -0.1323242, -0.9165039, 86.8292694, 68.2926865, 25, -0.0305486
0.378418, -0.0585938, -0.96875, 85.3658524, 68.9024429, 25.1219521, -0.0243381
0.3671875, -0.03125, -0.9526367, 80.4268341, 68.1097565, 23.780489, -0.0169528
0.3491211, -0.0668945, -0.8823242, 77.0731735, 66.0365906, 22.5, -0.0115816
0.3486328, -0.1162109, -0.8457031, 73.7804871, 61.2195129, 19.8170738, -0.0097353
0.3525391, -0.2075195, -0.7998047, 73.9634171, 59.6341476, 19.1463413, -0.0048676
0.3579102, -0.2202148, -0.7939453, 77.3170776, 58.9634171, 19.5121956, -0.0062104
0.3637695, -0.1821289, -0.8432617, 79.8170776, 59.2682953, 20.3048782, -0.0031891
0.3706055, -0.144043, -0.8881836, 79.7560959, 59.8170738, 20.9756107, -0.0023499
0.3691406, -0.074707, -0.953125, 77.0121994, 60.4878044, 20.8536587, -0.0036927
0.355957, -0.0639648, -0.9467773, 74.1463394, 60, 20.1219521, -0.0068818
0.3432617, -0.0927734, -0.9248047, 70.18293, 56.2804909, 17.0731716, -0.0045319
0.3134766, -0.1538086, -0.8789062, 69.2073212, 53.2317085, 15.9756098, -0.0003357
0.3120117, -0.1708984, -0.8701172, 70.18293, 48.2926826, 15.7926836, -0.0008392
0.3222656, -0.1694336, -0.8813477, 71.3414688, 46.5853653, 16.5853653, -0.0015106
0.3305664, -0.1538086, -0.8833008, 71.6463394, 45.9146347, 17.1951218, 0.0001678
0.3364258, -0.1455078, -0.8457031, 70.6707306, 45.1829262, 17.1341476, 0.0003357
0.340332, -0.1552734, -0.815918, 69.0243912, 41.8902435, 16.5853653, 0.0025177
0.3642578, -0.2172852, -0.7739258, 69.3292694, 37.8658562, 15.4268293, -0.0001678
0.375, -0.2460938, -0.7646484, 70.7317123, 36.6463432, 15.1219511, -0.0041962
0.3891602, -0.2382812, -0.7558594, 73.9024429, 36.0365868, 15, -0.002182
0.4106445, -0.1923828, -0.7480469, 74.7560959, 35.8536606, 15.6097565, -0.0035248
0.4150391, -0.1860352, -0.7504883, 74.5731735, 35.7926826, 15.4878054, -0.0028534
0.4399414, -0.2045898, -0.7734375, 73.8414688, 35.9146347, 15.4878054, -0.0008392
0.4433594, -0.2207031, -0.7705078, 72.5, 36.7682953, 15.1219511, 0.0031891
0.4350586, -0.2397461, -0.7436523, 72.3780518, 37.1951218, 14.6341467, 0.0152743
0.425293, -0.2456055, -0.7294922, 72.8048782, 36.2804871, 12.6219511, 0.0196384
0.4091797, -0.2509766, -0.7006836, 73.7195129, 35.2439041, 12.2560978, 0.0172885
0.4042969, -0.2524414, -0.7021484, 74.6341476, 33.7195129, 11.7073174, 0.0193027
0.4233398, -0.2524414, -0.7299805, 74.8170776, 34.2682953, 11.7073174, 0.0198062
0.4296875, -0.2460938, -0.7524414, 74.0853653, 35.3658562, 12.1341467, 0.0142672
0.4418945, -0.2124023, -0.7924805, 71.1585388, 37.9268303, 13.6585369, 0.0125887
0.4487305, -0.1875, -0.7900391, 68.2317123, 38.7195129, 13.780488, 0.0099031
0.4521484, -0.2021484, -0.7753906, 64.2682953, 38.7195129, 12.0121956, 0.0062104
0.4311523, -0.2607422, -0.7338867, 62.9268303, 38.1097565, 10.3048782, 0.0036927
0.4189453, -0.2895508, -0.7158203, 63.1097565, 36.2195129, 7.3170733, 0.0050355
0.3867188, -0.3056641, -0.7011719, 64.5121994, 35.0609779, 6.9512196, 0.0065461
0.3798828, -0.2929688, -0.7036133, 67.4390259, 33.2317085, 6.890244, 0.0139315
0.3842773, -0.2749023, -0.7041016, 67.6219559, 32.1341476, 7.1951222, 0.026688
0.3901367, -0.2675781, -0.7094727, 66.3414612, 31.280489, 7.2560978, 0.0466621
0.4091797, -0.2788086, -0.7197266, 65.18293, 31.8902454, 8.2926826, 0.0642863
0.4204102, -0.2822266, -0.7250977, 64.3292694, 32.2560997, 8.6585369, 0.0740215
0.434082, -0.2900391, -0.734375, 63.4756126, 32.8048782, 8.5975609, 0.0869459
0.4321289, -0.2924805, -0.7431641, 62.5609779, 32.3170738, 8.0487804, 0.1072557
0.4199219, -0.2915039, -0.7402344, 61.6463432, 29.9390259, 6.3414636, 0.1045701
0.3989258, -0.2880859, -0.7353516, 61.6463432, 28.4146347, 5.8536587, 0.1049058
0.3925781, -0.2866211, -0.7314453, 61.4634171, 24.8170738, 5.0609756, 0.0985275
0.3950195, -0.2768555, -0.7133789, 61.2804909, 23.2317085, 4.5731707, 0.0710002
0.3989258, -0.2758789, -0.7050781, 60.7317085, 20.1829281, 4.1463413, 0.0441444
0.4189453, -0.2788086, -0.7148438, 60.2439041, 18.6585369, 4.390244, 0.01561
0.4331055, -0.2802734, -0.71875, 59.6341476, 16.8292694, 4.1463413, -0.0243381
0.4589844, -0.2739258, -0.7070312, 58.1097565, 14.0853662, 3.1097562, -0.0538796
0.465332, -0.269043, -0.6806641, 56.7073174, 12.1951218, 2.0731707, -0.0663005
0.4775391, -0.2587891, -0.6201172, 54.8780518, 8.3536587, 1.0365853, -0.0673075
0.5083008, -0.2734375, -0.5683594, 53.7195129, 7.5, 1.1585366, -0.061265
0.5322266, -0.2924805, -0.5556641, 52.3170738, 8.6585369, 1.1585366, -0.0605936
0.5541992, -0.3452148, -0.5483398, 51.5853653, 10.3048782, 1.2195122, -0.0639506
0.5541992, -0.3657227, -0.5507812, 50.9146347, 13.4146347, 0.6097561, -0.0699931
0.5395508, -0.3764648, -0.5634766, 50.9146347, 14.3902445, 0.1219512, -0.0793927
0.5263672, -0.3618164, -0.5742188, 50.6707344, 14.0853662, 0.1829268, -0.0882887
0.5063477, -0.3203125, -0.6118164, 50.2439041, 13.780488, 0.2439024, -0.096849
0.5, -0.2978516, -0.6289062, 47.8658562, 13.6585369, 0.1829268, -0.1169909
0.4946289, -0.2797852, -0.6347656, 43.7195129, 13.4756098, -0.6707317, -0.1297475
0.4902344, -0.28125, -0.6337891, 41.7682953, 13.0487804, -1.0365853, -0.1324331
0.4799805, -0.3076172, -0.6279297, 38.7195129, 11.5853662, -1.8902439, -0.1237049
0.4760742, -0.3344727, -0.6210938, 37.5, 10.7317076, -1.9512196, -0.1044022
0.4711914, -0.347168, -0.6171875, 35.9756088, 8.719512, -2.6829269, -0.0985275
0.4619141, -0.3745117, -0.6171875, 35.4878044, 7.8658538, -2.3170731, -0.0948348
0.4604492, -0.371582, -0.6157227, 35.1829262, 6.280488, -2.2560976, -0.0914778
0.453125, -0.3515625, -0.6049805, 34.5731697, 5.609756, -1.8902439, -0.0877852
0.453125, -0.3305664, -0.5957031, 33.0487823, 4.2073174, -0.8536586, -0.0840925
0.4814453, -0.3041992, -0.5756836, 31.6463413, 3.4756098, -0.2439024, -0.0815747
0.4970703, -0.3095703, -0.5595703, 29.4512196, 3.2317073, 0.2439024, -0.0797284
0.5146484, -0.3569336, -0.543457, 27.4390259, 3.9634147, -0.4878049, -0.0743572
0.512207, -0.3852539, -0.5415039, 28.0487804, 4.3292685, -0.4878049, -0.0659648
0.5, -0.4140625, -0.5444336, 28.9634151, 4.5731707, 0.1829268, -0.0560616
0.4824219, -0.4033203, -0.5478516, 29.0853672, 4.5121951, 0.3658537, -0.0481727
0.4692383, -0.4057617, -0.5527344, 28.841465, 3.4756098, 0.5487805, -0.0414588
0.4536133, -0.4169922, -0.5791016, 29.2073174, 2.4390244, 0.7317073, -0.0332341
0.4477539, -0.4135742, -0.5942383, 30.7926846, 0.6097561, 1.402439, -0.0293736
0.4370117, -0.3945312, -0.5791016, 31.0975609, -0.8536586, 1.2804878, -0.0263523
0.4345703, -0.3803711, -0.5605469, 30.8536587, -4.6951222, 1.3414634, -0.018967
0.4467773, -0.3745117, -0.5341797, 30.9146347, -6.5853658, 1.2804878, -0.0109102
0.4643555, -0.3813477, -0.5351562, 31.0365868, -8.841464, 1.0365853, -0.0099031
0.5063477, -0.3759766, -0.5219727, 31.5243912, -8.5365858, 0.9146342, -0.0028534
0.5458984, -0.3666992, -0.5053711, 30.8536587, -8.1707315, 0.7317073, 0.0062104
0.5605469, -0.3701172, -0.515625, 28.6585369, -6.3414636, 1.3414634, 0.0085603
0.5771484, -0.4008789, -0.5600586, 27.3780499, -4.9390244, 1.6463414, 0.0105745
0.5717773, -0.4140625, -0.5791016, 25.3048782, -0.9756098, 1.4634147, 0.0213169
0.5185547, -0.4057617, -0.5639648, 24.2073174, 0.1829268, 0.8536586, 0.0407874
0.4892578, -0.3876953, -0.5429688, 21.7682934, -1.4634147, -0.4878049, 0.0532082
0.46875, -0.3632812, -0.5224609, 20.9146347, -3.4756098, -0.6097561, 0.0480049
0.4833984, -0.3549805, -0.5356445, 19.8170738, -5.7317076, -0.1219512, 0.033402
0.5175781, -0.362793, -0.597168, 18.9634151, -5.3658538, 0.3048781, 0.0139315
0.5244141, -0.3725586, -0.6259766, 15.4878054, -2.7439024, 0.3048781, -0.0115816
0.5097656, -0.3935547, -0.6396484, 11.219512, -1.7073171, 0.1829268, -0.0196384
0.4711914, -0.4082031, -0.6386719, 9.6341467, -2.6219513, -0.1829268, -0.0250095
0.453125, -0.4052734, -0.640625, 8.841464, -6.4634147, 0.3048781, -0.030045
0.4345703, -0.3720703, -0.6577148, 8.5975609, -7.9268293, 0.7926829, -0.0357519
0.4335938, -0.3598633, -0.6538086, 7.1341467, -9.8780489, 1.7073171, -0.0411231
0.4316406, -0.3696289, -0.6137695, 5.3658538, -10.5487804, 1.7073171, -0.0438087
0.4331055, -0.3959961, -0.5917969, 2.4390244, -13.5975609, 1.6463414, -0.0448157
0.4501953, -0.449707, -0.5571289, 2.3780489, -15.2439032, 2.0121951, -0.0407874
0.4619141, -0.4526367, -0.5415039, 3.7195122, -17.1951218, 3.2317073, -0.0357519
0.5063477, -0.4296875, -0.5073242, 4.390244, -17.6829281, 3.9024391, -0.0340734
0.5332031, -0.425293, -0.5083008, 4.8170733, -17.7439022, 4.8170733, -0.0384375
0.5488281, -0.4487305, -0.5429688, 5.3658538, -16.3414631, 5, -0.0364233
0.5429688, -0.4614258, -0.5751953, 5.5487804, -15.1829271, 5.1829271, -0.0350805
0.5258789, -0.4506836, -0.5708008, 5.7317076, -14.4512196, 4.6951222, -0.0303807
0.4853516, -0.4101562, -0.5507812, 5.5487804, -15.6097565, 4.3292685, -0.0193027
0.4755859, -0.3945312, -0.5395508, 5.4878049, -19.0243912, 3.7804878, -0.0068818
0.4951172, -0.3837891, -0.5322266, 5.3048782, -20.7317085, 3.5975611, 0.0011749
0.5141602, -0.3823242, -0.53125, 4.5121951, -21.6463413, 3.1097562, 0.0112459
0.5600586, -0.3823242, -0.5390625, 3.5975611, -21.0365868, 2.9268293, 0.0139315
0.5810547, -0.3774414, -0.5541992, 0.4268293, -18.2926826, 2.9878049, 0.0166171
0.6054688, -0.362793, -0.5678711, -1.402439, -16.2195129, 2.6219513, 0.0231632
0.6088867, -0.3535156, -0.5825195, -5.7317076, -13.1707315, 1.9512196, 0.0293736
0.5991211, -0.3457031, -0.6137695, -10.4268293, -11.5853662, 1.7073171, 0.0263523
0.5703125, -0.3876953, -0.6308594, -12.6219511, -11.0975609, 0.7317073, 0.018967
0.5385742, -0.4248047, -0.6235352, -17.3780499, -12.3170738, -2.4390244, 0.0105745
0.4570312, -0.4643555, -0.5849609, -17.9878044, -14.4512196, -3.8414636, 0.0090639
0.434082, -0.4570312, -0.5722656, -18.0487804, -19.5731716, -3.4756098, 0.0052033
0.4243164, -0.4072266, -0.5834961, -17.2560978, -21.9512196, -2.6829269, 0.0025177
0.4331055, -0.3769531, -0.5976562, -17.7439022, -23.3536587, 0.2439024, 0.0092317
0.4770508, -0.3466797, -0.6289062, -19.1463413, -22.6219521, 1.7682927, 0.0142672
0.496582, -0.359375, -0.6347656, -24.7560978, -20.9756107, 3.5975611, 0.0083925
0.5209961, -0.4106445, -0.6206055, -27.6829281, -20.3048782, 3.7804878, 0.0025177
0.5234375, -0.4370117, -0.6079102, -30.1219521, -21.6463413, 2.6829269, -0.005539
0.5087891, -0.456543, -0.5756836, -29.3902454, -25.2439022, 1.7073171, -0.0087282
0.4892578, -0.4326172, -0.5605469, -29.0243912, -27.1341476, 1.402439, -0.0142672
0.4863281, -0.409668, -0.5566406, -28.7195129, -28.9024391, 1.3414634, -0.0204776
0.4970703, -0.3901367, -0.5751953, -29.3902454, -29.2073174, 1.5243902, -0.0303807
0.5039062, -0.3999023, -0.5913086, -30.6097565, -29.5121956, 1.4634147, -0.0424659
0.5117188, -0.421875, -0.5996094, -31.0975609, -29.6951218, 1.6463414, -0.0438087
0.5112305, -0.4238281, -0.5859375, -33.2317085, -31.4024391, 1.402439, -0.0391089
0.5043945, -0.4086914, -0.5366211, -33.6585388, -32.5609779, 1.2195122, -0.0364233
0.503418, -0.4067383, -0.5200195, -33.9634171, -35.1219521, 0.5487805, -0.0344091
0.5234375, -0.4121094, -0.5297852, -34.0243912, -35.6707344, 0.7317073, -0.0344091
0.5395508, -0.4121094, -0.5488281, -34.0243912, -34.9390259, 0.9146342, -0.0327306
0.5541992, -0.3999023, -0.5761719, -35.7317085, -33.5365868, 0.3658537, -0.0283665
0.5454102, -0.378418, -0.5722656, -37.2560997, -33.1707306, -0.1829268, -0.0265202
0.5410156, -0.371582, -0.565918, -39.8780479, -33.1097565, -0.9146342, -0.0280308
0.5419922, -0.3793945, -0.5722656, -41.0365868, -33.6585388, -1.2804878, -0.0270237
0.5380859, -0.3876953, -0.5761719, -42.3170738, -34.2073174, -2.8658538, -0.0263523
0.527832, -0.3925781, -0.5771484, -43.5365868, -33.9634171, -3.7804878, -0.0206455
0.5131836, -0.3886719, -0.5839844, -45.6097565, -34.3292694, -3.8414636, -0.0114137
0.4868164, -0.3603516, -0.6220703, -46.0975609, -34.8780479, -2.9878049, 0.0005035
0.4848633, -0.3476562, -0.6538086, -48.4146347, -34.6951218, -0.1829268, 0.0172885
0.4853516, -0.3598633, -0.6889648, -50.1219521, -34.5731697, -0.1829268, 0.0381018
0.4736328, -0.3691406, -0.684082, -55.4878044, -35.9146347, -1.4634147, 0.0572366
0.4458008, -0.3608398, -0.625, -59.2682953, -40.4268303, -1.8292683, 0.0777142
0.4624023, -0.3383789, -0.5791016, -60.2439041, -42.6829262, -1.5243902, 0.0817426
0.4804688, -0.3378906, -0.5761719, -60.9146347, -44.9390259, -1.1585366, 0.0605936
0.5141602, -0.359375, -0.6064453, -61.5853691, -44.6341476, -0.7317073, 0.0307164
0.5209961, -0.3828125, -0.6298828, -63.3536606, -42.6829262, -1.0365853, 0.0052033
0.4970703, -0.4140625, -0.6650391, -64.5121994, -41.6463432, -0.9756098, -0.0263523
0.4707031, -0.4179688, -0.6640625, -65.7317123, -41.8902435, -1.6463414, -0.0522011
0.4125977, -0.3974609, -0.6318359, -66.2195129, -43.841465, -1.5243902, -0.0652934
0.3994141, -0.3862305, -0.6264648, -66.3414612, -48.9634171, -1.097561, -0.0788891
0.3891602, -0.3803711, -0.6616211, -65.4268341, -54.0853653, -0.3658537, -0.0847639
0.3994141, -0.3818359, -0.6879883, -65.2439041, -55.7317085, 0.1219512, -0.0887922
0.4135742, -0.3710938, -0.7026367, -65.9756088, -57.68293, -0.1219512, -0.0950027
0.4033203, -0.3481445, -0.65625, -66.8292694, -59.0243912, -0.5487805, -0.1015488
0.4067383, -0.3339844, -0.6333008, -68.5365906, -63.5975609, -0.5487805, -0.1065843
0.456543, -0.3188477, -0.6020508, -68.7195129, -65.5487823, -0.0609756, -0.111284
0.4912109, -0.3188477, -0.6005859, -68.3536606, -67.3780518, 0.2439024, -0.114641
0.5449219, -0.3320312, -0.6083984, -68.5975647, -66.7682953, -0.4268293, -0.1166552
0.5541992, -0.3344727, -0.6044922, -70.7926865, -63.9024391, -2.3170731, -0.1132982
0.5561523, -0.3481445, -0.5991211, -71.5243912, -63.0487823, -3.1097562, -0.1173266
0.5493164, -0.3500977, -0.5942383, -73.2926865, -61.6463432, -4.4512196, -0.1149767
0.5317383, -0.3413086, -0.6025391, -73.6585388, -60.6097565, -6.1585369, -0.1082628
0.5263672, -0.3388672, -0.6137695, -73.8414688, -60.5487823, -7.0121951, -0.1015488
0.5146484, -0.3164062, -0.6484375, -75.4268341, -59.6951218, -8.780488, -0.090135
0.4931641, -0.2944336, -0.6503906, -76.646347, -58.6585388, -9.6341467, -0.0793927
0.4804688, -0.2783203, -0.637207, -80.3658524, -57.3170738, -11.7682934, -0.0762036
0.4780273, -0.2578125, -0.612793, -81.7073212, -57.2560997, -12.5, -0.0733501
0.4873047, -0.2592773, -0.6132812, -84.6951218, -56.5853653, -12.6829271, -0.0661326
0.5083008, -0.2768555, -0.6459961, -85.7926865, -55.6097565, -13.0487804, -0.0575723
0.5073242, -0.2910156, -0.6782227, -87.2560959, -53.1707344, -13.7195129, -0.0446479
0.4760742, -0.3183594, -0.7524414, -88.2317123, -51.8292694, -13.9024391, -0.0323949
0.4521484, -0.3271484, -0.7773438, -89.6951218, -50.7317085, -13.5365858, -0.0263523
0.3945312, -0.340332, -0.7880859, -93.2926865, -52.5, -13.9634151, -0.0162814
0.3671875, -0.3491211, -0.7685547, -95.3048782, -55, -14.5731707, -0.008896
0.3105469, -0.3730469, -0.7104492, -97.2561035, -62.4390259, -14.6951227, -0.0003357
0.293457, -0.3808594, -0.6850586, -96.3414688, -66.0975647, -14.0853662, -0.0052033
0.3081055, -0.3769531, -0.7016602, -91.646347, -72.1341476, -11.0365858, -0.0135958
0.3325195, -0.3696289, -0.784668, -89.2073212, -73.5975647, -9.5731707, -0.0196384
0.3383789, -0.3603516, -0.8208008, -85.7926865, -74.2073212, -8.1707315, -0.0250095
0.324707, -0.3393555, -0.8447266, -86.0365906, -75.0609741, -8.0487804, -0.0243381
0.3085938, -0.3369141, -0.8256836, -87.9878082, -78.6585388, -9.1463413, -0.018967
0.2817383, -0.3510742, -0.7485352, -88.0487823, -81.5853653, -9.8170738, -0.0166171
0.2788086, -0.3574219, -0.7026367, -86.646347, -88.9634171, -9.8780489, -0.008896
0.300293, -0.3349609, -0.6381836, -82.0731735, -94.7561035, -6.4634147, -0.012253
0.3325195, -0.3129883, -0.6357422, -79.3902435, -96.0975647, -4.4512196, -0.0132601
0.4208984, -0.2749023, -0.675293, -76.5853653, -94.3292694, -0.9146342, -0.0124208
0.4921875, -0.2553711, -0.7412109, -77.0731735, -91.7073212, -0.2439024, -0.0030213
0.5126953, -0.2539062, -0.7573242, -81.2804871, -85.0609741, -0.6707317, 0.0052033
0.5258789, -0.2563477, -0.7558594, -84.2682953, -81.4024429, -1.8902439, 0.0166171
0.5161133, -0.2646484, -0.7480469, -89.8170776, -76.8292694, -4.9390244, 0.0258488
0.4833984, -0.265625, -0.7231445, -91.8292694, -75.3048782, -6.2195125, 0.0276951
0.465332, -0.2597656, -0.7211914, -93.4146347, -73.8414688, -7.9878049, 0.0229953
0.4458008, -0.2382812, -0.7294922, -93.4146347, -72.8658524, -8.5975609, 0.023331
0.4379883, -0.2236328, -0.7446289, -94.0853653, -69.7560959, -9.0853662, 0.0213169
0.4355469, -0.1918945, -0.7470703, -97.6219559, -66.0365906, -9.8780489, 0.0213169
0.4360352, -0.1821289, -0.7294922, -99.5121994, -64.0243912, -10.1829271, 0.0209812
0.4472656, -0.1796875, -0.6806641, -104.4512253, -59.7560997, -10.7317076, 0.0115816
0.465332, -0.2294922, -0.6962891, -106.7073212, -57.68293, -10.4878054, -0.0090639
0.4741211, -0.2763672, -0.7470703, -107.8048782, -54.0243912, -9.2682924, -0.0179599
0.4765625, -0.3798828, -0.9160156, -107.1341476, -51.7073174, -8.841464, -0.0142672
0.4501953, -0.4165039, -0.9941406, -106.0975647, -46.7073174, -10.4268293, -0.0083925
0.3208008, -0.4042969, -1.043457, -106.0365906, -45.4268303, -13.2317076, -0.0041962
0.21875, -0.3535156, -1.0141602, -107.3780518, -49.6341476, -18.9634151, 0.0052033
0.0400391, -0.2314453, -0.8974609, -106.8902435, -55.7926826, -19.5121956, 0.0092317
0, -0.1923828, -0.8447266, -102.5609818, -71.9512177, -14.9390249, 0.0115816
0.0595703, -0.1801758, -0.7919922, -95.18293, -85.2439041, -7.3170733, 0.0186313
0.1298828, -0.1972656, -0.7875977, -91.7073212, -88.4756088, -4.6341462, 0.0310521
0.2861328, -0.2304688, -0.800293, -87.8048782, -88.1097565, -0.8536586, 0.0374304
0.4057617, -0.2387695, -0.831543, -86.8292694, -86.1585388, 0.7317073, 0.0347448
0.4511719, -0.2324219, -0.8544922, -86.5243912, -81.3414688, 3.8414636, 0.0320592
0.5195312, -0.2290039, -0.8671875, -87.6219559, -78.4146347, 4.7560978, 0.0290379
0.5336914, -0.234375, -0.8476562, -91.5853653, -73.1097565, 0.9756098, 0.0172885
0.5053711, -0.2382812, -0.7705078, -94.146347, -70.6707306, -2.8658538, 0.0075532
0.4648438, -0.2519531, -0.7397461, -96.0975647, -67.9268341, -8.3536587, 0.0035248
0.3847656, -0.2783203, -0.7626953, -94.4512253, -67.4390259, -8.4146347, -0.0015106
0.3613281, -0.2900391, -0.8173828, -87.7439041, -67.5609741, -5.609756, -0.0072175
0.3193359, -0.2670898, -0.9594727, -82.9268341, -66.4024429, -4.0853658, -0.0082246
0.2841797, -0.2241211, -1.0161133, -83.1707306, -65.0609741, -4.6951222, -0.0099031
0.1845703, -0.109375, -1.0576172, -87.1951218, -65.18293, -5.1219511, -0.0125887
0.1206055, -0.0024414, -1.0268555, -90.2439041, -66.9512177, -4.0243902, -0.0209812
0.1381836, 0.0185547, -1, -95.6707306, -73.8414688, 0, -0.0246738
0.246582, -0.0268555, -0.9541016, -98.0487823, -77.8048782, 1.6463414, -0.0303807
0.3129883, -0.0874023, -0.949707, -101.0975647, -81.7073212, 1.5243902, -0.0344091
0.4140625, -0.2363281, -0.9521484, -102.0121994, -81.5853653, -0.4268293, -0.036759
0.4321289, -0.2919922, -0.9472656, -102.0731735, -77.0121994, -6.8292685, -0.0344091
0.3847656, -0.3330078, -0.9086914, -101.4024429, -74.9390259, -9.9390249, -0.0285344
0.3334961, -0.3061523, -0.8730469, -97.8658524, -73.3536606, -13.9024391, -0.0172885
0.2363281, -0.2016602, -0.8037109, -92.4390259, -76.7682953, -13.0487804, 0.0008392
0.2158203, -0.1479492, -0.7905273, -89.5731735, -79.5121994, -11.1585369, 0.012253
0.2363281, -0.0859375, -0.8408203, -85.1219559, -83.1097565, -6.2195125, 0.0411231
0.3085938, -0.0981445, -0.9746094, -84.5731735, -83.1097565, -3.5975611, 0.085771
0.3378906, -0.1166992, -1.0385742, -86.4634171, -79.0243912, -1.7682927, 0.1226978
0.3398438, -0.1225586, -1.1123047, -88.5365906, -76.2195129, -2.7439024, 0.1287404
0.3105469, -0.1137695, -1.1186523, -92.9268341, -72.4390259, -6.4024391, 0.1032273
0.2167969, -0.0966797, -1.0673828, -94.146347, -73.1097565, -8.4756098, 0.0589151
0.1694336, -0.0966797, -1.0258789, -94.3902435, -78.6585388, -11.0365858, 0.0194705
0.1254883, -0.1220703, -0.940918, -93.1707306, -83.2926865, -11.219512, -0.0015106
0.1264648, -0.1435547, -0.9125977, -87.9878082, -92.0731735, -10.6097565, -0.0015106
0.1616211, -0.1801758, -0.8950195, -80.6097565, -97.8048782, -7.9878049, -0.0028534
0.2270508, -0.1875, -0.9086914, -77.3170776, -98.9024429, -6.4634147, -0.0075532
0.2583008, -0.175293, -0.9194336, -73.5365906, -98.8414688, -4.5121951, -0.0209812
0.2827148, -0.1196289, -0.9604492, -72.9878082, -97.4390259, -3.7195122, -0.0323949
0.2856445, -0.0859375, -0.9941406, -74.0243912, -93.9634171, -0.9756098, -0.0439765
0.3071289, -0.0170898, -1.0620117, -75.4268341, -91.9512253, 0.3048781, -0.0538796
0.3188477, 0.0185547, -1.081543, -80.3658524, -87.5, 1.2195122, -0.0639506
0.3203125, 0.0727539, -1.0810547, -84.146347, -85.3658524, 0.2439024, -0.0793927
0.3154297, 0.0869141, -1.0644531, -93.0487823, -82.5609741, -2.9878049, -0.0864424
0.3115234, 0.0825195, -1.0249023, -96.9512253, -81.5243912, -4.6341462, -0.0948348
0.3227539, 0.0654297, -1.0136719, -101.7073212, -79.7560959, -6.2195125, -0.096849
0.3457031, -0.0141602, -1.0263672, -103.7195129, -77.8048782, -9.2073174, -0.0928206
0.3374023, -0.1201172, -1.0634766, -104.0243912, -76.0975647, -12.0731707, -0.0867781
0.300293, -0.1557617, -1.0712891, -104.0243912, -73.5365906, -18.8414631, -0.0773785
0.1708984, -0.1708984, -1.0454102, -103.2317123, -73.1707306, -21.4024391, -0.0760357
0.1000977, -0.1499023, -1.015625, -98.9024429, -77.0121994, -23.2926826, -0.0820783
0.0058594, -0.0786133, -0.9536133, -95.6707306, -80.7926865, -21.4024391, -0.0948348
-0.0092773, -0.0454102, -0.9301758, -89.4512253, -89.0853653, -16.1585369, -0.1022202
0.046875, -0.0244141, -0.9199219, -86.646347, -92.4390259, -13.1097565, -0.1126268
0.1000977, -0.0336914, -0.9321289, -83.6585388, -95.2439041, -7.2560978, -0.1190051
0.2109375, -0.0888672, -0.9643555, -83.1097565, -94.3292694, -5.5487804, -0.1190051
0.2612305, -0.112793, -0.9882812, -83.1707306, -90.4878082, -3.9634147, -0.1169909
0.2998047, -0.1289062, -0.9980469, -84.3902435, -84.146347, -5.2439027, -0.110277
0.2641602, -0.0859375, -0.9516602, -84.8170776, -81.646347, -6.7073174, -0.1045701
0.2338867, -0.0493164, -0.9262695, -83.9634171, -79.8170776, -8.719512, -0.1022202
0.1791992, -0.0078125, -0.9243164, -82.7439041, -80.7317123, -8.6585369, -0.0936599
0.1806641, -0.0136719, -0.9541016, -79.7560959, -82.68293, -6.1585369, -0.0538796
0.2001953, -0.0424805, -1.0356445, -78.3536606, -82.8658524, -5.3658538, -0.0182956
0.1958008, -0.0493164, -1.0683594, -77.6219559, -81.1585388, -7.0731707, 0.0008392
0.1289062, -0.0239258, -1.1245117, -78.3536606, -80.4268341, -8.4146347, -0.0196384
0.0883789, 0.0083008, -1.1391602, -80.3658524, -80.7317123, -8.2926826, -0.054551
0.0415039, 0.0756836, -1.1416016, -80.9756088, -82.9878082, -7.1341467, -0.090135
0.0400391, 0.0961914, -1.1264648, -83.0487823, -87.9268341, -5.3048782, -0.1129625
0.0566406, 0.0932617, -1.0927734, -85, -93.1097565, -5.9756098, -0.1186694
0.09375, 0.0288086, -1.0805664, -85.7317123, -95, -6.9512196, -0.1116197
0.1074219, -0.0151367, -1.0717773, -85.6707306, -96.5243912, -8.780488, -0.0951705
0.1313477, -0.0620117, -1.0532227, -85.18293, -96.4024429, -9.5731707, -0.0713359
0.1279297, -0.0585938, -1.0332031, -84.0243912, -95.4268341, -10.1829271, -0.0525368
0.1108398, -0.0043945, -0.9887695, -83.5975647, -95.3658524, -10.4268293, -0.0357519
0.1123047, 0.0327148, -0.9755859, -83.4756088, -95.4268341, -8.5975609, -0.0258488
0.1245117, 0.0927734, -1.0063477, -83.2926865, -95, -7.0731707, -0.0176242
0.1474609, 0.1157227, -1.0429688, -83.8414688, -92.9878082, -3.7804878, -0.0169528
0.1958008, 0.1494141, -1.1269531, -84.5731735, -91.1585388, -2.7439024, -0.018967
0.2080078, 0.15625, -1.1518555, -89.3292694, -85.9146347, -5.0609756, -0.0229953
0.1782227, 0.1572266, -1.1416016, -96.2804871, -81.8292694, -10.6707315, -0.026688
0.0996094, 0.1308594, -1.0708008, -99.3292694, -81.5853653, -13.1097565, -0.03122
0.0727539, 0.1098633, -1.0273438, -101.7073212, -84.146347, -15.1829271, -0.0297093
0.0458984, 0.0522461, -0.9873047, -100.6097565, -85.6097565, -14.9390249, -0.0270237
0.0395508, 0.0263672, -0.9921875, -95.8536606, -88.4756088, -13.3536587, -0.0276951
0.034668, 0.0009766, -1.0258789, -93.2317123, -89.2682953, -12.7439032, -0.0250095
0.0268555, 0.0039062, -1.0390625, -88.4146347, -89.2073212, -12.3170738, -0.0213169
-0.0117188, 0.0253906, -1.0483398, -87.1341476, -89.146347, -12.2560978, -0.0182956
-0.0322266, 0.0341797, -1.0366211, -85.6707306, -91.2804871, -11.1585369, -0.0068818
-0.0415039, 0.043457, -0.9975586, -84.8780518, -93.3536606, -9.8780489, -0.0008392
-0.0307617, 0.0390625, -0.9736328, -82.2560959, -97.68293, -7.1341467, 0.0129244
0.0117188, 0.0131836, -0.9423828, -78.1707306, -99.4512253, -6.0365853, 0.0276951
0.034668, 0.0092773, -0.9589844, -75.9756088, -99.3292694, -5.3658538, 0.0374304
0.0356445, 0.0268555, -0.9873047, -71.2195129, -98.4756088, -3.2317073, 0.0428016
0.0424805, 0.0942383, -1.0698242, -68.9634171, -97.2561035, -2.0121951, 0.0491798
0.0454102, 0.1362305, -1.1147461, -66.4024429, -95.6097565, -0.1829268, 0.0548867
0.0429688, 0.2202148, -1.1835938, -67.1341476, -95.18293, -0.3658537, 0.0553902
0.0371094, 0.2485352, -1.2050781, -72.2560959, -95.3048782, -2.7439024, 0.051194
0.0024414, 0.2509766, -1.2255859, -75.4268341, -95.5487823, -4.9390244, 0.0451514
-0.0180664, 0.2373047, -1.2246094, -81.3414688, -96.646347, -7.2560978, 0.0397803
-0.0332031, 0.2192383, -1.1972656, -82.9878082, -97.68293, -7.6829271, 0.0313878
-0.03125, 0.215332, -1.1767578, -84.6951218, -100.7926865, -9.0853662, 0.0152743
-0.0263672, 0.2216797, -1.1191406, -86.2195129, -104.2682953, -10.8536587, 0.0065461
0.0004883, 0.2216797, -1.0786133, -86.5243912, -105.6707306, -11.219512, 0.0018463
0.0219727, 0.2231445, -1.0712891, -86.8902435, -105.7926865, -11.219512, -0.002182
0.0683594, 0.2304688, -1.0810547, -87.1951218, -104.3902435, -10.8536587, -0.0038605
0.0805664, 0.2280273, -1.1000977, -89.2682953, -100, -11.0975609, 0.0179599
0.09375, 0.1987305, -1.1450195, -90.9146347, -97.0121994, -12.0731707, 0.0251774
0.0771484, 0.1826172, -1.1616211, -96.7682953, -90.8536606, -15.4268293, 0.0226596
0.0073242, 0.1801758, -1.1362305, -99.3902435, -88.4146347, -17.0731716, 0.0119173
-0.0341797, 0.1958008, -1.1025391, -103.1707306, -86.8902435, -17.9878044, 0.0011749
-0.0830078, 0.2285156, -1.0258789, -104.0853653, -89.6951218, -16.3414631, -0.012253
-0.0878906, 0.230957, -1.0117188, -103.2317123, -91.4634171, -14.8780489, -0.018967
-0.0458984, 0.1967773, -1.0390625, -100.9756088, -92.68293, -11.8902445, -0.0196384
-0.0019531, 0.1347656, -1.109375, -100.0609818, -91.8292694, -11.4634151, -0.0219883
0.0014648, 0.1044922, -1.1313477, -99.3902435, -88.1097565, -13.4146347, -0.023331
-0.0561523, 0.0820312, -1.1088867, -99.6341476, -86.5853653, -15.9756098, -0.0223239
-0.1103516, 0.0917969, -1.065918, -99.146347, -88.2317123, -19.6341476, -0.0253452
-0.2075195, 0.1098633, -1.0004883, -97.1951218, -91.4024429, -19.939024, -0.0234989
-0.2280273, 0.1103516, -1.0043945, -89.8780518, -99.9390259, -15.9756098, -0.0196384
-0.2163086, 0.1025391, -1.0654297, -84.7560959, -103.3536606, -13.0487804, -0.0169528
-0.190918, 0.112793, -1.1074219, -75.9146347, -105.7317123, -9.5121956, -0.0115816
-0.1738281, 0.1645508, -1.1357422, -72.0731735, -106.8902435, -10.5487804, -0.0075532
-0.1845703, 0.2036133, -1.1171875, -71.8292694, -108.2926865, -11.219512, -0.0028534
-0.1850586, 0.28125, -1.0322266, -72.0121994, -112.1341476, -10.9146347, -0.0031891
-0.121582, 0.2880859, -0.9477539, -71.4024429, -113.7195129, -9.5731707, 0.0015106
-0.0620117, 0.2700195, -0.9135742, -69.8170776, -113.5975647, -6.0975609, 0.0099031
0.0688477, 0.215332, -0.887207, -69.6341476, -111.5243912, -5.3658538, 0.0196384
0.1235352, 0.1831055, -0.8959961, -70.4878082, -102.8658524, -5.7926831, 0.0226596
0.1674805, 0.1425781, -0.9628906, -72.0121994, -96.9512253, -6.7682929, 0.0246738
0.1533203, 0.140625, -1.0126953, -76.4024429, -85.6097565, -9.1463413, 0.0270237
0.078125, 0.1879883, -1.1142578, -78.6585388, -81.0365906, -10, 0.0186313
0.0263672, 0.2280273, -1.1508789, -83.2317123, -75.9756088, -10.8536587, 0.0176242
-0.090332, 0.3237305, -1.2041016, -87.9268341, -75.6707306, -12.0121956, 0.0263523
-0.1513672, 0.355957, -1.2246094, -89.8780518, -76.7682953, -12.7439032, 0.0320592
-0.2495117, 0.4003906, -1.2646484, -93.8414688, -80.6707306, -12.560976, 0.0359197
-0.2836914, 0.4038086, -1.2597656, -95.4268341, -83.2926865, -11.8292685, 0.0391089
-0.2719727, 0.3916016, -1.237793, -99.6951218, -88.9024429, -11.1585369, 0.0374304
-0.2246094, 0.3432617, -1.1674805, -101.9512253, -91.5853653, -11.8902445, 0.033402
-0.1987305, 0.3100586, -1.1264648, -106.5853653, -95.8536606, -13.5975609, 0.0236667
-0.128418, 0.2407227, -1.1064453, -107.6219559, -96.8902435, -13.9024391, 0.0092317
-0.0966797, 0.2084961, -1.1220703, -106.9512253, -96.7073212, -13.5975609, -0.0102388
-0.0639648, 0.168457, -1.1787109, -105.6097565, -95.9146347, -13.841464, -0.0216526
-0.0869141, 0.1650391, -1.2075195, -103.2926865, -93.7804871, -17.2560978, -0.0283665
-0.1948242, 0.1674805, -1.2290039, -102.3170776, -95.3048782, -21.6463413, -0.0290379
-0.2661133, 0.1782227, -1.2192383, -102.0121994, -98.4146347, -22.7439022, -0.0229953
-0.394043, 0.2080078, -1.1591797, -98.7195129, -106.9512253, -20.7926826, -0.0176242
-0.4404297, 0.2290039, -1.0488281, -95.2439041, -112.0731735, -18.6585369, -0.0085603
-0.4257812, 0.2446289, -0.9819336, -87.1951218, -121.5853653, -13.4756098, 0.0031891
-0.3369141, 0.2685547, -0.8588867, -82.9268341, -125.3048782, -11.4634151, -0.0028534
-0.2714844, 0.2670898, -0.8286133, -75.8536606, -128.6585388, -7.8048782, -0.0112459
-0.1069336, 0.2426758, -0.8369141, -72.4390259, -127.6219559, -5, -0.0243381
-0.0258789, 0.2294922, -0.871582, -68.1097565, -120.9146347, -0.6707317, -0.0352483
0.0966797, 0.21875, -0.9331055, -67.4390259, -115.36586, -0.4268293, -0.0461585
0.1132812, 0.2236328, -0.9404297, -70.18293, -102.4390259, -4.8780489, -0.0552224
0.0444336, 0.2460938, -0.9174805, -73.7195129, -91.9512253, -11.5243902, -0.0515297
-0.0249023, 0.2651367, -0.9042969, -74.8780518, -88.9024429, -13.1097565, -0.0518654
-0.152832, 0.2949219, -0.925293, -72.9878082, -86.7682953, -11.4634151, -0.0595865
-0.2280273, 0.3500977, -1.012207, -70.5487823, -86.2804871, -9.2682924, -0.064622
-0.2529297, 0.3828125, -1.0625, -66.3414612, -85.2439041, -6.7073174, -0.0666361
-0.2905273, 0.4501953, -1.1499023, -65.9146347, -85.0609741, -6.3414636, -0.0538796
-0.3027344, 0.4760742, -1.1635742, -69.4512177, -86.1585388, -6.8292685, -0.0370947
-0.2910156, 0.4741211, -1.1523438, -73.4146347, -87.4390259, -7.3780489, -0.0360876
-0.2709961, 0.4477539, -1.1259766, -82.0731735, -89.3292694, -7.7439027, -0.0451514
-0.2124023, 0.3701172, -1.0932617, -85.4878082, -89.5731735, -7.5609756, -0.0592508
-0.1796875, 0.3305664, -1.0913086, -88.9634171, -87.0121994, -6.8292685, -0.0753643
-0.1357422, 0.296875, -1.1103516, -89.8780518, -83.5975647, -7.5609756, -0.0673075
-0.1303711, 0.2978516, -1.1191406, -90.5487823, -82.5609741, -9.1463413, -0.0488441
-0.1821289, 0.3227539, -1.105957, -92.8658524, -82.1951218, -13.7195129, -0.0471656
-0.2646484, 0.3369141, -1.0439453, -93.9024429, -83.2926865, -15.7926836, -0.06009
-0.3017578, 0.3271484, -1.0185547, -94.6341476, -86.1585388, -16.5243912, -0.0830854
-0.3398438, 0.2880859, -0.9848633, -93.7195129, -87.5, -15.060976, -0.1008774
-0.3369141, 0.2744141, -0.9853516, -89.9390259, -89.0853653, -10.2439022, -0.1089342
-0.3037109, 0.2827148, -0.9833984, -87.68293, -89.2682953, -8.3536587, -0.1117876
-0.2885742, 0.2939453, -0.9780273, -84.5731735, -90.4878082, -6.2195125, -0.0981918
-0.2680664, 0.3120117, -0.9882812, -83.7195129, -91.4634171, -6.0365853, -0.0840925
-0.2573242, 0.3071289, -1.0087891, -82.5609741, -91.4634171, -5.2439027, -0.0760357
-0.2460938, 0.3017578, -1.0703125, -80.9146347, -89.9390259, -3.9634147, -0.0683146
-0.2524414, 0.3051758, -1.0996094, -80.2439041, -89.2073212, -4.0853658, -0.0629435
-0.3061523, 0.3374023, -1.1220703, -79.2073212, -90.5487823, -6.4634147, -0.0616007
-0.3745117, 0.3779297, -1.0839844, -79.0243912, -92.8048782, -7.8048782, -0.0485084
-0.3959961, 0.3925781, -1.0576172, -78.4146347, -99.8170776, -8.6585369, -0.0397803
-0.4003906, 0.4140625, -1.03125, -76.9512177, -103.3536606, -7.9268293, -0.0391089
-0.3828125, 0.4331055, -1.0249023, -73.4146347, -107.8048782, -4.7560978, -0.0397803
-0.3120117, 0.4897461, -1.0551758, -71.7073212, -108.3536606, -3.1097562, -0.0424659
-0.2705078, 0.5161133, -1.0649414, -71.4634171, -107.3170776, -2.1341465, -0.0446479
-0.2075195, 0.5463867, -1.0561523, -73.2317123, -105.7317123, -3.5365853, -0.0438087
-0.1977539, 0.5385742, -1.0371094, -79.9390259, -100.9146347, -8.4146347, -0.0337377
-0.199707, 0.4775391, -1.0068359, -86.7073212, -95.6707306, -11.7682934, -0.0167849
-0.2080078, 0.4360352, -0.996582, -88.0487823, -93.1707306, -12.4390249, -0.0104067
-0.2490234, 0.3730469, -0.9907227, -87.9878082, -89.2682953, -13.2317076, -0.0048676
-0.3046875, 0.3549805, -0.9750977, -86.8902435, -88.4146347, -13.6585369, -0.0068818
-0.3422852, 0.3569336, -0.9609375, -85, -88.7195129, -14.8170738, -0.0090639
-0.4082031, 0.3701172, -0.9389648, -83.7804871, -90, -14.8170738, -0.0095674
-0.4282227, 0.378418, -0.940918, -81.4634171, -91.9512253, -12.2560978, -0.01561
-0.4311523, 0.3891602, -0.9750977, -79.5121994, -92.0121994, -9.8170738, -0.0218204
-0.4101562, 0.4057617, -1.003418, -75.2439041, -90.7317123, -4.3292685, -0.0250095
-0.3754883, 0.453125, -1.0522461, -73.7804871, -90, -3.2317073, -0.0293736
-0.3671875, 0.4775391, -1.0566406, -73.8414688, -89.0853653, -4.390244, -0.0307164
-0.3842773, 0.5024414, -1.0146484, -76.8292694, -89.8170776, -7.8658538, -0.0293736
-0.3896484, 0.4975586, -0.9213867, -77.5, -90.3658524, -8.719512, -0.0310521
-0.3793945, 0.4775391, -0.8823242, -78.6585388, -90.9146347, -8.6585369, -0.0307164
-0.331543, 0.4282227, -0.8330078, -78.1097565, -89.4512253, -7.9268293, -0.0250095
-0.3076172, 0.4067383, -0.8291016, -77.1951218, -85.4878082, -7.0121951, -0.0075532
-0.284668, 0.3779297, -0.8754883, -76.8902435, -82.7439041, -6.7073174, 0.0105745
-0.2866211, 0.3793945, -0.9277344, -75.9146347, -77.1341476, -5.1829271, 0.010071
-0.3149414, 0.40625, -1.0356445, -74.7560959, -74.5731735, -4.2073174, 0.0072175
-0.34375, 0.4335938, -1.0761719, -73.8414688, -70.8536606, -4.7560978, 0.0003357
-0.4345703, 0.5048828, -1.0927734, -74.2682953, -70.8536606, -6.3414636, 0.0052033
-0.4824219, 0.5385742, -1.0664062, -75.8536606, -74.1463394, -9.8780489, 0.0099031
-0.5527344, 0.5605469, -0.9912109, -77.0121994, -80.4268341, -10.5487804, 0.0186313
-0.5380859, 0.5253906, -0.9589844, -76.4634171, -82.9268341, -9.6341467, 0.0293736
-0.5024414, 0.4995117, -0.9726562, -73.8414688, -85, -5.609756, 0.014435
-0.4121094, 0.472168, -1.0205078, -72.7439041, -84.4512253, -4.1463413, 0.0011749
-0.3769531, 0.4765625, -1.0366211, -73.3536606, -81.8902435, -3.7195122, -0.0135958
-0.3374023, 0.5058594, -1.0463867, -74.7560959, -81.1585388, -4.8780489, -0.0149386
-0.3393555, 0.5214844, -1.0405273, -80, -78.9634171, -7.5609756, -0.0068818
-0.3579102, 0.5170898, -1.0322266, -82.4390259, -77.6219559, -8.841464, -0.0018463
-0.3706055, 0.4980469, -1.034668, -86.4634171, -76.4024429, -10.3658543, 0.0038605
-0.4194336, 0.4506836, -1.03125, -87.7439041, -75.6707306, -11.1585369, 0.0182956
-0.4462891, 0.4321289, -1.0229492, -87.2560959, -76.1585388, -13.4146347, 0.0248417
-0.5102539, 0.4272461, -0.9741211, -85.0609741, -80, -14.3902445, 0.0273594
-0.5415039, 0.453125, -0.9243164, -83.2317123, -83.3536606, -14.0853662, 0.0317235
-0.5380859, 0.4624023, -0.9106445, -79.3292694, -89.2682953, -10.5487804, 0.0330663
-0.487793, 0.4638672, -0.9355469, -76.8292694, -90.8536606, -8.780488, 0.0290379
-0.4584961, 0.4604492, -0.9677734, -73.1707306, -90.2439041, -6.2195125, 0.0273594
-0.4267578, 0.4770508, -1.0195312, -72.5609741, -88.6585388, -5.7926831, 0.0209812
-0.4321289, 0.4956055, -1.0214844, -72.5, -85.7317123, -7.4390244, 0.0152743
-0.4599609, 0.5317383, -0.9658203, -73.7195129, -86.2195129, -8.5975609, 0.0046998
-0.4736328, 0.5371094, -0.9160156, -75.9756088, -87.6219559, -10.8536587, -0.012253
-0.480957, 0.515625, -0.8222656, -75.9756088, -88.4146347, -11.4024391, -0.0169528
-0.4707031, 0.4985352, -0.7910156, -73.6585388, -87.8048782, -10.9756098, -0.0176242
-0.4326172, 0.4736328, -0.7670898, -69.6341476, -85.0609741, -8.719512, -0.0226596
-0.3808594, 0.4624023, -0.7832031, -68.4146347, -83.0487823, -7.5609756, -0.0330663
-0.3657227, 0.4628906, -0.7998047, -66.7682953, -77.3170776, -6.7682929, -0.0330663
-0.3618164, 0.465332, -0.828125, -67.0121994, -73.8414688, -6.8292685, -0.0166171
-0.3710938, 0.4677734, -0.8388672, -67.6219559, -67.3170776, -7.0731707, -0.023331
-0.4057617, 0.4785156, -0.8500977, -68.2926865, -64.9390259, -6.890244, -0.047837
-0.4257812, 0.4858398, -0.8505859, -68.7195129, -61.7073174, -6.9512196, -0.0748608
-0.4584961, 0.4873047, -0.8398438, -68.9634171, -60.9146347, -6.890244, -0.0976883
-0.46875, 0.4868164, -0.8369141, -68.3536606, -60.8536606, -6.9512196, -0.110277
-0.4824219, 0.487793, -0.8325195, -68.2317123, -60.8536606, -6.7682929, -0.1028916
-0.4780273, 0.4897461, -0.8408203, -67.0731735, -60.9756126, -5.9756098, -0.0928206
-0.4755859, 0.4956055, -0.878418, -65.7926865, -60.3658562, -3.9024391, -0.0871138
-0.453125, 0.5058594, -0.9458008, -65.4878082, -59.6951218, -3.2926829, -0.0767071
-0.4438477, 0.5224609, -0.980957, -65.9756088, -59.5731735, -2.6219513, -0.0694896
-0.4477539, 0.5512695, -1.050293, -66.7073212, -59.7560997, -3.4146342, -0.0686503
-0.4628906, 0.5708008, -1.0668945, -68.9024429, -60.7317085, -5.4878049, -0.0721752
-0.5014648, 0.6030273, -1.0654297, -70.5487823, -61.8902435, -6.9512196, -0.0767071
-0.5249023, 0.609375, -1.0439453, -73.6585388, -66.5853653, -9.8780489, -0.0777142
-0.5463867, 0.5859375, -0.9707031, -75.3048782, -69.7560959, -10.9146347, -0.0820783
-0.5463867, 0.5571289, -0.9287109, -78.1707306, -75.2439041, -12.6829271, -0.0780499
-0.5268555, 0.4926758, -0.8452148, -78.9634171, -76.7073212, -13.1707315, -0.0647898
-0.5097656, 0.4663086, -0.8017578, -78.7195129, -77.9878082, -12.1951218, -0.0381018
-0.4648438, 0.4545898, -0.7524414, -76.1585388, -77.9878082, -9.9390249, -0.0276951
-0.4194336, 0.4667969, -0.7895508, -74.6341476, -77.8048782, -8.2926826, -0.0337377
-0.3994141, 0.4765625, -0.8300781, -71.2804871, -75.9756088, -5.0609756, -0.0404517
-0.3823242, 0.512207, -0.9223633, -70.3048782, -74.0243912, -4.4512196, -0.0458228
-0.3959961, 0.5234375, -0.9516602, -70.18293, -70.3658524, -6.7073174, -0.043473
-0.4731445, 0.5566406, -0.9511719, -71.7682953, -69.6951218, -9.0853662, -0.0364233
-0.5205078, 0.5683594, -0.918457, -74.6341476, -70.9756088, -13.9024391, -0.0283665
-0.5913086, 0.5776367, -0.8208008, -75.2439041, -72.9268341, -15.1219511, -0.0199741
-0.6049805, 0.578125, -0.7817383, -74.2073212, -79.0243912, -13.4756098, -0.0139315
-0.5634766, 0.550293, -0.7568359, -72.5609741, -82.0121994, -11.4634151, -0.0129244
-0.5209961, 0.5297852, -0.762207, -68.4146347, -83.8414688, -8.0487804, -0.0135958
-0.4589844, 0.5097656, -0.8076172, -66.2804871, -80.6097565, -8.3536587, -0.0149386
-0.4550781, 0.527832, -0.855957, -66.2804871, -77.9878082, -9.2073174, 0.0092317
-0.4667969, 0.5507812, -0.8613281, -66.6463394, -74.0243912, -9.8780489, 0.0216526
-0.5053711, 0.5888672, -0.8461914, -67.3780518, -72.8658524, -10.3048782, 0.0011749
-0.5249023, 0.5986328, -0.828125, -69.0853653, -72.6219559, -11.280488, -0.0213169
-0.5561523, 0.5991211, -0.7866211, -69.0853653, -72.2560959, -12.1951218, -0.0394446
-0.5727539, 0.5927734, -0.7685547, -68.4756088, -71.8292694, -12.3170738, -0.0552224
-0.5771484, 0.5766602, -0.7412109, -67.68293, -72.1341476, -11.7682934, -0.0626078
-0.5732422, 0.5698242, -0.7368164, -65.9146347, -72.3170776, -9.8170738, -0.0599222
-0.5473633, 0.5512695, -0.7451172, -65.2439041, -71.5243912, -9.0243902, -0.0520333
-0.5366211, 0.5375977, -0.7470703, -64.3902435, -68.7195129, -7.8048782, -0.0438087
-0.5361328, 0.527832, -0.7543945, -64.2682953, -64.6951218, -8.1097565, -0.0360876
-0.5644531, 0.543457, -0.7456055, -63.9634171, -62.6219521, -8.2926826, -0.0263523
-0.5776367, 0.5546875, -0.7416992, -62.8658562, -60.5487823, -7.1951222, -0.012253
-0.5913086, 0.5825195, -0.7314453, -62.2560997, -60.7926826, -6.6463418, 0.0058747
-0.5898438, 0.597168, -0.7250977, -61.1585388, -61.2195129, -5.1219511, 0.0179599
-0.5805664, 0.6030273, -0.7299805, -60.6707344, -61.1585388, -4.6951222, 0.0240024
-0.5673828, 0.6015625, -0.7402344, -60.3048782, -60.2439041, -4.390244, 0.030045
-0.5541992, 0.5800781, -0.7661133, -60.5487823, -59.2073174, -4.5121951, 0.026688
-0.5527344, 0.5712891, -0.7783203, -60.8536606, -56.9512215, -5.0609756, 0.0218204
-0.565918, 0.5678711, -0.7836914, -60.8536606, -55.6097565, -5.3658538, 0.0209812
-0.5698242, 0.574707, -0.7797852, -60.7317085, -55.6097565, -5.609756, 0.0318914
-0.5800781, 0.5952148, -0.7646484, -61.2195129, -56.5243912, -5.4268293, 0.0574044
-0.5756836, 0.6010742, -0.7700195, -61.341465, -57.3780518, -5.3048782, 0.1072557
-0.5693359, 0.5893555, -0.7915039, -62.0121956, -59.0853691, -4.9390244, 0.1388113
-0.5683594, 0.5449219, -0.862793, -62.0121956, -59.7560997, -4.7560978, 0.1237049
-0.5737305, 0.5219727, -0.8989258, -62.8658562, -60.3658562, -5.2439027, 0.0663005
-0.6220703, 0.503418, -0.9321289, -62.7439041, -60.9146347, -6.1585369, 0.014435
-0.6523438, 0.5102539, -0.9277344, -62.68293, -64.0853653, -8.4756098, -0.0297093
-0.7167969, 0.5395508, -0.8779297, -62.0731735, -67.1341476, -9.5121956, -0.0475013
-0.737793, 0.5639648, -0.8310547, -59.5731735, -75.18293, -9.3902445, -0.0488441
-0.7236328, 0.6152344, -0.7373047, -55.7926826, -83.5975647, -7.8658538, -0.0532082
-0.6870117, 0.6347656, -0.6914062, -54.2682953, -86.8902435, -7.1341467, -0.0572366
-0.5834961, 0.6469727, -0.6303711, -52.3780518, -88.5975647, -5.9146342, -0.0595865
-0.4853516, 0.6245117, -0.621582, -52.1341476, -86.5853653, -5.609756, -0.061265
-0.4462891, 0.6147461, -0.6264648, -53.6585388, -79.3902435, -5.1219511, -0.0659648
-0.4086914, 0.5908203, -0.6606445, -55.0609779, -74.5731735, -5.1829271, -0.0669718
-0.4086914, 0.581543, -0.6777344, -58.1707344, -64.6951218, -6.0975609, -0.0679789
-0.4638672, 0.5698242, -0.6875, -60, -60, -6.890244, -0.0706645
-0.5004883, 0.5644531, -0.6816406, -63.1097565, -53.5975609, -8.4146347, -0.0713359
-0.5874023, 0.550293, -0.6499023, -63.9634171, -52.0121956, -9.1463413, -0.0713359
-0.6254883, 0.5439453, -0.6303711, -62.9268303, -51.7682953, -9.5121956, -0.0636149
-0.6855469, 0.5351562, -0.6015625, -58.841465, -53.7804909, -8.5975609, -0.0485084
-0.6967773, 0.5380859, -0.6040039, -56.1585388, -54.9390259, -7.3780489, -0.033402
-0.6904297, 0.5517578, -0.6401367, -50.5487823, -56.8902435, -4.5731707, -0.0206455
-0.6616211, 0.5595703, -0.690918, -48.6585388, -57.4390259, -3.2317073, -0.008896
-0.6420898, 0.5654297, -0.7177734, -47.3170738, -56.4634171, -1.5243902, 0.0139315
-0.625, 0.5766602, -0.7387695, -47.5, -55.7317085, -1.5853659, 0.0191348
-0.6240234, 0.5898438, -0.7290039, -48.841465, -53.5365868, -2.7439024, 0.0152743
-0.6235352, 0.6098633, -0.6967773, -49.6951218, -52.8048782, -2.7439024, 0.0157778
-0.6240234, 0.6171875, -0.6772461, -50.5487823, -52.9268303, -2.9878049, 0.0193027
-0.6152344, 0.6342773, -0.6464844, -50.6097565, -53.2317085, -2.7439024, 0.0132601
-0.6005859, 0.6328125, -0.6357422, -50.3048782, -53.4756126, -1.8292683, 0.0052033
-0.5703125, 0.6186523, -0.6425781, -50.7926826, -52.0731735, -1.4634147, -0.0028534
-0.565918, 0.6025391, -0.6499023, -51.4024391, -50.1829262, -1.7073171, -0.0041962
-0.5727539, 0.5844727, -0.6704102, -52.1341476, -46.4024391, -2.2560976, -0.0045319
-0.5957031, 0.5830078, -0.6733398, -52.4390259, -44.5731735, -2.3780489, -0.0011749
-0.6083984, 0.5913086, -0.6708984, -52.6219521, -43.1707344, -2.3780489, -0.0041962
-0.6274414, 0.6098633, -0.6567383, -52.3780518, -43.7804871, -2.195122, -0.0078889
-0.6264648, 0.6176758, -0.6489258, -52.0731735, -45.1219521, -1.7073171, -0.0162814
-0.6118164, 0.6416016, -0.6357422, -51.7682953, -45.7926826, -1.8902439, -0.0270237
-0.6025391, 0.6489258, -0.6328125, -51.5243912, -46.2195129, -1.7073171, -0.0419623
-0.574707, 0.6503906, -0.6416016, -51.4634171, -45.9756126, -1.5853659, -0.0522011
-0.5615234, 0.6513672, -0.6499023, -52.9878044, -44.3902435, -1.5853659, -0.0552224
-0.5410156, 0.6464844, -0.6645508, -55.4878044, -42.1951218, -1.9512196, -0.0595865
-0.5463867, 0.6445312, -0.6689453, -57.0731735, -40.6707344, -2.6219513, -0.0602579
-0.5551758, 0.6303711, -0.6704102, -60.2439041, -38.7195129, -4.1463413, -0.0619364
-0.5908203, 0.6235352, -0.6699219, -61.4634171, -37.8658562, -4.7560978, -0.0636149
-0.6088867, 0.6118164, -0.6811523, -62.5, -37.7439041, -5.1219511, -0.0592508
-0.6376953, 0.5976562, -0.7114258, -62.1951218, -38.4756088, -5, -0.0654612
-0.652832, 0.5864258, -0.7290039, -61.2804909, -40.7317085, -4.3292685, -0.0652934
-0.6772461, 0.5786133, -0.7602539, -60.4878044, -42.4390259, -4.2073174, -0.0699931
-0.6914062, 0.5761719, -0.7719727, -59.6341476, -46.1585388, -5.1219511, -0.0750286
-0.7133789, 0.5805664, -0.765625, -59.5121956, -48.2317085, -5.609756, -0.0753643
-0.7197266, 0.5869141, -0.746582, -58.3536606, -52.6219521, -6.1585369, -0.0787213
-0.7216797, 0.6098633, -0.6865234, -56.341465, -57.7439041, -6.4634147, -0.0760357
-0.7133789, 0.6186523, -0.6552734, -55.8536606, -59.8780518, -6.0975609, -0.0679789
-0.6791992, 0.6293945, -0.5952148, -54.0853653, -62.7439041, -5.5487804, -0.0616007
-0.6323242, 0.625, -0.5761719, -53.4756126, -62.8658562, -4.8780489, -0.0585794
-0.6157227, 0.6269531, -0.5839844, -52.0121956, -61.0365868, -3.4756098, -0.0505226
-0.5883789, 0.6206055, -0.6035156, -51.2804909, -59.0853691, -2.8658538, -0.0387732
-0.5830078, 0.6171875, -0.6083984, -50.9756126, -54.6951218, -2.7439024, -0.0297093
-0.6074219, 0.6240234, -0.6044922, -51.341465, -52.5609779, -3.1707318, -0.0193027
-0.6293945, 0.6318359, -0.590332, -51.9512215, -49.2073174, -4.5121951, -0.0162814
-0.6625977, 0.6425781, -0.5493164, -52.1951218, -48.3536606, -4.7560978, -0.0139315
-0.6762695, 0.6430664, -0.5292969, -50.9756126, -47.9878044, -4.0853658, -0.0169528
-0.6782227, 0.6342773, -0.5073242, -49.0853653, -48.1707344, -3.1707318, -0.0263523
-0.6704102, 0.6196289, -0.4980469, -48.1097565, -47.8658562, -2.6829269, -0.0283665
-0.6567383, 0.5991211, -0.5, -45.7317085, -46.1585388, -2.0121951, -0.0240024
-0.6557617, 0.6015625, -0.5205078, -44.3902435, -45.1219521, -1.2195122, -0.0058747
-0.6499023, 0.6176758, -0.5322266, -41.5853653, -43.1707344, 0.5487805, 0.0253452
-0.6289062, 0.6513672, -0.5585938, -41.0365868, -42.1951218, 1.4634147, 0.0424659
-0.6210938, 0.6601562, -0.5639648, -40.8536606, -41.2195129, 2.0121951, 0.0481727
-0.6030273, 0.6577148, -0.5664062, -42.1341476, -40.3658562, 1.5243902, 0.0520333
-0.6083984, 0.6494141, -0.5527344, -44.3902435, -37.8658562, -0.1829268, 0.0542153
-0.628418, 0.625, -0.5371094, -45.4268303, -35.9146347, -1.2804878, 0.0491798
-0.6430664, 0.6181641, -0.5371094, -45.6707344, -33.2926826, -1.4634147, 0.0424659
-0.6782227, 0.6166992, -0.5581055, -44.0853653, -31.7682934, -0.0609756, 0.0370947
-0.6918945, 0.6181641, -0.5810547, -42.9878044, -31.5853672, 0.7926829, 0.03122
-0.7138672, 0.6103516, -0.6186523, -41.5853653, -32.5609779, 0.9146342, 0.0253452
-0.7446289, 0.6069336, -0.628418, -41.2195129, -33.2926826, 0.3048781, 0.0250095
-0.7553711, 0.6074219, -0.6274414, -40.3658562, -35.1219521, -0.3048781, 0.0223239
-0.7700195, 0.6191406, -0.6152344, -39.9390259, -36.7682953, -0.2439024, 0.0199741
-0.7597656, 0.6220703, -0.6083984, -37.5609779, -40.3048782, 1.2804878, 0.0172885
-0.7163086, 0.6381836, -0.6083984, -36.0975609, -42.2560997, 2.1341465, 0.0226596
-0.6904297, 0.6430664, -0.6118164, -34.6341476, -44.4512215, 2.804878, 0.0260166
-0.6523438, 0.65625, -0.6147461, -34.7560997, -44.7560997, 2.0731707, 0.0186313
-0.6430664, 0.6523438, -0.6206055, -35.7926826, -43.4146347, 1.2195122, 0.0092317
-0.6489258, 0.644043, -0.625, -37.6219521, -40.9146347, 0.3658537, 0.0068818
-0.6723633, 0.640625, -0.6098633, -38.1707344, -40.1219521, 0.0609756, 0.005539
-0.684082, 0.6323242, -0.5976562, -38.9024391, -39.3292694, -1.097561, 0.0099031
-0.703125, 0.6430664, -0.5600586, -38.6585388, -39.6341476, -1.5853659, 0.0159457
-0.703125, 0.6469727, -0.5454102, -37.0731697, -41.5853653, -1.6463414, 0.0213169
-0.6762695, 0.6591797, -0.5166016, -36.2195129, -42.9268303, -1.2804878, 0.0209812
-0.6523438, 0.6660156, -0.5004883, -34.5731697, -44.6951218, -0.9756098, 0.0246738
-0.5888672, 0.6767578, -0.4755859, -34.2682953, -45.1219521, -0.7926829, 0.0226596
-0.5576172, 0.6801758, -0.4716797, -34.9390259, -43.4756126, -1.3414634, 0.0125887
-0.5146484, 0.6674805, -0.4755859, -36.1585388, -41.4634171, -1.4634147, 0.0035248
-0.5053711, 0.6586914, -0.4794922, -38.9024391, -35.6097565, -1.8902439, -0.0082246
-0.5058594, 0.640625, -0.4951172, -42.1341476, -28.841465, -3.2926829, -0.0206455
-0.5517578, 0.6479492, -0.515625, -42.8658562, -25.6097565, -3.6585367, -0.0350805
-0.5805664, 0.6484375, -0.5224609, -44.8170738, -21.3414631, -4.390244, -0.0461585
-0.6362305, 0.640625, -0.5356445, -45.3658562, -20.3658543, -4.6341462, -0.0587472
-0.6655273, 0.6337891, -0.5400391, -45.8536606, -20.1219521, -5.5487804, -0.0693217
-0.7158203, 0.6201172, -0.5307617, -45.8536606, -20.1829281, -6.3414636, -0.0753643
-0.7348633, 0.6176758, -0.5283203, -44.4512215, -21.3414631, -6.4024391, -0.0726787
-0.7548828, 0.6152344, -0.5244141, -43.4146347, -22.3780499, -5.7926831, -0.073518
-0.7524414, 0.6171875, -0.5302734, -40.4878044, -24.4512196, -3.5975611, -0.0733501
-0.7426758, 0.6220703, -0.5629883, -39.2682953, -24.5731716, -2.5609756, -0.0595865
-0.737793, 0.6240234, -0.5834961, -37.3170738, -24.8780499, -1.2195122, -0.0352483
-0.7250977, 0.6289062, -0.6098633, -36.4634171, -24.9390259, -1.0365853, -0.0256809
-0.7236328, 0.6367188, -0.6142578, -36.2804871, -24.8780499, -1.4634147, -0.0146029
-0.7246094, 0.6342773, -0.6025391, -36.6463432, -25.4268303, -1.8292683, 0.0011749
-0.7373047, 0.6347656, -0.5664062, -36.5243912, -25.9146347, -2.1341465, 0.0184634
-0.7304688, 0.6318359, -0.5463867, -36.1585388, -26.6463413, -2.195122, 0.0347448
-0.7167969, 0.6323242, -0.5078125, -35.4878044, -27.4390259, -1.7682927, 0.0387732
-0.7114258, 0.6293945, -0.496582, -33.841465, -27.4390259, -0.7317073, 0.0273594
-0.6923828, 0.6269531, -0.4882812, -33.0487823, -27.2560978, -0.4878049, 0.0146029
-0.6884766, 0.6308594, -0.4853516, -30.7926846, -25.9146347, 0.4268293, 0.0015106
-0.6777344, 0.6381836, -0.4951172, -29.8780499, -25.3658543, 0.7317073, -0.0082246
-0.6748047, 0.6396484, -0.5014648, -28.5365868, -24.2682934, 1.8292683, -0.0203098
-0.6616211, 0.6425781, -0.5136719, -28.0487804, -23.4146347, 1.9512196, -0.0424659
-0.6606445, 0.6474609, -0.5175781, -27.6829281, -23.1707325, 1.7073171, -0.0552224
-0.6586914, 0.6479492, -0.5185547, -27.0731716, -22.6219521, 1.0365853, -0.0666361
-0.6621094, 0.652832, -0.519043, -26.5243912, -22.6829281, 1.0365853, -0.0760357
-0.6591797, 0.6572266, -0.5180664, -26.1585369, -22.9878063, 1.2804878, -0.0849317
-0.6518555, 0.659668, -0.5097656, -25.9146347, -22.9878063, 1.4634147, -0.0844282
-0.6459961, 0.6601562, -0.5087891, -26.0365868, -22.9268303, 0.9756098, -0.0887922
-0.6337891, 0.6669922, -0.4956055, -26.4634151, -22.6219521, 0.9756098, -0.0914778
-0.6308594, 0.6630859, -0.4902344, -26.5243912, -22.2560978, 0.4268293, -0.0921492
-0.6206055, 0.6572266, -0.4775391, -26.9512196, -21.7682934, 0.6707317, -0.0938277
-0.6166992, 0.6586914, -0.4760742, -27.0121956, -20.3658543, 0.4878049, -0.093492
-0.6069336, 0.6762695, -0.4824219, -27.2560978, -18.5975609, 0.4878049, -0.0921492
-0.6108398, 0.6899414, -0.4931641, -27.1951218, -17.2560978, 0.4878049, -0.0921492
-0.6137695, 0.6923828, -0.5039062, -27.8048782, -15.1829271, 0.4878049, -0.0877852
-0.6303711, 0.6811523, -0.512207, -28.4756107, -13.780488, 0.1829268, -0.0827497
-0.6376953, 0.6743164, -0.5141602, -30.2439022, -11.9512196, -0.6707317, -0.072343
-0.6567383, 0.6542969, -0.5083008, -30.7926846, -11.0365858, -1.0365853, -0.0302129
-0.6704102, 0.6494141, -0.5068359, -31.1585369, -10.3048782, -1.5243902, 0.0011749
-0.6826172, 0.6411133, -0.5068359, -30.9146347, -10.7317076, -1.0365853, -0.0001678
-0.6850586, 0.6328125, -0.5141602, -30.6097565, -11.0365858, -0.2439024, -0.0208133
-0.6953125, 0.6196289, -0.53125, -30.1829281, -11.219512, 0.1219512, -0.0485084
-0.6982422, 0.6176758, -0.5385742, -29.3292694, -11.219512, 0.4268293, -0.0609293
-0.703125, 0.6264648, -0.5375977, -28.4756107, -11.7682934, 0.5487805, -0.0431373
-0.7055664, 0.6279297, -0.5317383, -28.1707325, -12.6219511, 0.7317073, -0.0246738
-0.7021484, 0.628418, -0.5288086, -27.0121956, -14.6341467, 0.8536586, -0.023331
-0.6884766, 0.628418, -0.5239258, -26.9512196, -15.3048782, 0.9756098, -0.0310521
-0.6860352, 0.6254883, -0.5253906, -25.7317085, -15.8536587, 0.9756098, -0.033402
-0.6708984, 0.6401367, -0.5292969, -25.6707325, -16.1585369, 1.2195122, -0.0236667
-0.6660156, 0.640625, -0.5341797, -25.2439022, -15.9756098, 2.195122, -0.012253
-0.6538086, 0.6430664, -0.5361328, -25.060976, -15.8536587, 2.3170731, -0.0011749
-0.6533203, 0.6391602, -0.5366211, -25.6707325, -15.9146347, 2.195122, 0.0099031
-0.6621094, 0.6220703, -0.519043, -26.280489, -15.7926836, 1.7682927, 0.0112459
-0.6669922, 0.6142578, -0.5024414, -26.8902454, -16.0365849, 0.9146342, 0.0137636
-0.6801758, 0.6176758, -0.4638672, -26.4024391, -16.4024391, 0.4268293, 0.0099031
-0.6767578, 0.6318359, -0.4306641, -25.6707325, -16.7682934, 0.4268293, 0.0045319
-0.6674805, 0.6391602, -0.4262695, -23.4146347, -17.8048782, 1.5853659, -0.0028534
-0.6303711, 0.6611328, -0.4316406, -22.1951218, -17.8658543, 2.3170731, -0.0129244
-0.6025391, 0.671875, -0.4414062, -21.4634151, -17.6829281, 3.7804878, -0.018967
-0.5664062, 0.6748047, -0.4584961, -22.0121956, -16.0975609, 3.5975611, -0.0219883
-0.5571289, 0.6650391, -0.4648438, -24.8170738, -12.3780489, 2.3780489, -0.0219883
-0.5708008, 0.6572266, -0.4633789, -26.280489, -10.1219511, 1.402439, -0.0193027
-0.5878906, 0.6552734, -0.4609375, -28.9634151, -6.0975609, -0.1219512, -0.0176242
-0.6323242, 0.6611328, -0.4438477, -30, -4.0243902, -0.7926829, -0.0095674
-0.6499023, 0.6567383, -0.4448242, -30.2439022, -3.7804878, -0.7317073, -0.0008392
-0.6772461, 0.6459961, -0.4487305, -29.5731716, -4.0243902, -0.4268293, 0.0035248
-0.6958008, 0.6362305, -0.4658203, -28.9024391, -4.1463413, -0.2439024, 0.0139315
-0.7006836, 0.6391602, -0.4731445, -27.6829281, -4.8170733, 0.4878049, 0.0307164
-0.6982422, 0.6342773, -0.4916992, -27.2560978, -4.7560978, 0.9146342, 0.0451514
-0.6977539, 0.6333008, -0.5, -26.5853672, -5.2439027, 1.097561, 0.0229953
-0.6938477, 0.6274414, -0.519043, -26.4634151, -5.1829271, 1.2195122, 0.0038605
-0.6943359, 0.6303711, -0.5229492, -26.4024391, -4.8780489, 0.7926829, -0.0005035
-0.7026367, 0.6445312, -0.5332031, -26.4634151, -5.1219511, 0.8536586, -0.0015106
-0.7036133, 0.6508789, -0.5361328, -26.0975609, -6.0365853, 1.2804878, 0.0028534
-0.7084961, 0.6567383, -0.5449219, -25.8536587, -7.3780489, 0.9756098, 0.008896
-0.7089844, 0.65625, -0.5454102, -25.6097565, -8.1097565, 1.0365853, 0.0293736
-0.7050781, 0.6416016, -0.5458984, -26.0975609, -9.2682924, 0.3048781, 0.0642863
-0.7094727, 0.628418, -0.5244141, -26.0975609, -9.8170738, 0.1829268, 0.0874495
-0.7089844, 0.6259766, -0.5112305, -25.7926826, -10.8536587, 0.1829268, 0.0602579
-0.7089844, 0.6220703, -0.480957, -25.3658543, -11.1585369, 0.4878049, 0.0146029
-0.7001953, 0.6245117, -0.4702148, -24.2073174, -12.3780489, 1.2804878, -0.0297093
-0.6845703, 0.6274414, -0.4516602, -23.5365868, -12.560976, 1.3414634, -0.0639506
-0.6796875, 0.637207, -0.4438477, -22.3170738, -12.6219511, 1.2804878, -0.0921492
-0.6650391, 0.6464844, -0.4345703, -21.7073174, -11.8902445, 1.6463414, -0.110277
-0.6577148, 0.6499023, -0.4326172, -21.1585369, -10.3048782, 1.9512196, -0.1106126
-0.65625, 0.6479492, -0.4375, -21.0975609, -7.9268293, 2.0731707, -0.1028916
-0.6582031, 0.644043, -0.4487305, -21.4024391, -6.7682929, 2.3780489, -0.1012131
-0.6669922, 0.644043, -0.4638672, -21.0975609, -5.1829271, 3.0487804, -0.1075914
-0.6791992, 0.6459961, -0.4765625, -20.9756107, -4.6341462, 3.1097562, -0.1022202
-0.6791992, 0.6411133, -0.4814453, -21.1585369, -4.1463413, 2.6219513, -0.0820783
-0.6928711, 0.6391602, -0.4775391, -21.1585369, -4.1463413, 2.4390244, -0.0323949
-0.6933594, 0.6391602, -0.4711914, -20.6707325, -4.5121951, 2.195122, 0.0246738
-0.6918945, 0.637207, -0.4672852, -20.1219521, -4.8780489, 2.1341465, 0.072343
-0.6875, 0.6416016, -0.4619141, -19.1463413, -5.3048782, 2.4390244, 0.0965133
-0.6733398, 0.6416016, -0.4575195, -18.780489, -5.1829271, 2.5609756, 0.0877852
-0.6708984, 0.6450195, -0.4580078, -17.5, -4.3292685, 2.6219513, 0.0783856
-0.6616211, 0.6508789, -0.472168, -17.1951218, -3.1707318, 3.4756098, 0.0639506
-0.6616211, 0.6489258, -0.4780273, -17.1951218, -2.1341465, 3.6585367, 0.0414588
-0.6621094, 0.6489258, -0.4716797, -17.1341476, -0.4268293, 3.5975611, 0.0199741
-0.6704102, 0.6313477, -0.4614258, -17.2560978, 0.3658537, 3.2926829, 0.0045319
-0.6845703, 0.6333008, -0.4545898, -17.2560978, 1.8902439, 2.7439024, -0.0109102
-0.7099609, 0.6254883, -0.4545898, -16.6463413, 2.4390244, 2.804878, -0.0253452
-0.71875, 0.6240234, -0.4609375, -14.8170738, 2.3170731, 4.6341462, -0.0360876
-0.7158203, 0.6245117, -0.4824219, -13.4756098, 2.0121951, 5.2439027, -0.04448
-0.7143555, 0.628418, -0.4941406, -11.219512, 1.9512196, 5.8536587, -0.0548867
-0.7148438, 0.6450195, -0.5043945, -10.7317076, 1.8902439, 6.1585369, -0.064622
-0.7124023, 0.6499023, -0.5092773, -9.3292685, 2.0121951, 6.0975609, -0.0800641
-0.7124023, 0.6621094, -0.5229492, -8.4756098, 2.3170731, 6.3414636, -0.0909743
-0.7089844, 0.6645508, -0.5214844, -7.9878049, 2.195122, 6.5853658, -0.1089342
-0.703125, 0.6669922, -0.5244141, -7.5609756, 2.0731707, 6.4024391, -0.1468681
-0.6987305, 0.6689453, -0.519043, -7.4390244, 2.0121951, 6.280488, -0.1686885
-0.7016602, 0.6708984, -0.5131836, -7.7439027, 2.7439024, 6.0365853, -0.173724
-0.7114258, 0.659668, -0.5019531, -7.3780489, 2.804878, 6.0975609, -0.1653315
-0.7133789, 0.6499023, -0.4975586, -6.9512196, 2.5609756, 6.6463418, -0.1478752
-0.7089844, 0.6240234, -0.4897461, -6.4634147, 2.4390244, 6.7682929, -0.1263905
-0.7075195, 0.6166992, -0.4916992, -4.2682929, 2.5, 6.9512196, -0.103563
-0.7001953, 0.6166992, -0.5004883, -3.2926829, 2.1341465, 7.5609756, -0.0834211
-0.6923828, 0.6225586, -0.4980469, -0.7317073, 1.097561, 8.3536587, -0.0679789
-0.6640625, 0.6362305, -0.496582, 0.6707317, -0.2439024, 8.841464, -0.064622
-0.6557617, 0.6396484, -0.4951172, 1.4634147, -0.4268293, 8.5975609, -0.0713359
-0.6376953, 0.6479492, -0.5092773, 2.9878049, -0.6097561, 8.2926826, -0.0757
-0.6210938, 0.6489258, -0.5395508, 3.5365853, -0.4878049, 8.719512, -0.0802319
-0.6147461, 0.6459961, -0.559082, 4.2073174, 0.3048781, 9.9390249, -0.0802319
-0.6176758, 0.6411133, -0.5844727, 4.1463413, 0.7926829, 9.7560978, -0.0726787
-0.6303711, 0.6376953, -0.5844727, 3.2926829, 1.8902439, 7.8048782, -0.0592508
-0.671875, 0.6303711, -0.5541992, 2.6219513, 2.4390244, 6.7073174, -0.04448
-0.6967773, 0.6289062, -0.5273438, 3.0487804, 2.1341465, 5.4878049, -0.0283665
-0.722168, 0.6176758, -0.4511719, 3.7195122, 1.7682927, 5.609756, -0.012253
-0.722168, 0.6191406, -0.4179688, 7.0731707, 1.2804878, 6.5243902, 0.0005035
-0.7060547, 0.6196289, -0.3759766, 10.6707315, 1.6463414, 8.780488, 0.0068818
-0.6894531, 0.625, -0.371582, 12.9878054, 2.3170731, 10.2439022, 0.0035248
-0.6333008, 0.6411133, -0.3901367, 16.4024391, 5.4268293, 13.4146347, -0.0075532
-0.5766602, 0.6484375, -0.4316406, 16.8292694, 8.0487804, 14.4512196, -0.0142672
-0.5581055, 0.6459961, -0.4550781, 16.4634151, 14.2073174, 14.5121956, -0.0196384
-0.5561523, 0.6455078, -0.4951172, 15.6707325, 17.5, 13.9024391, -0.0169528
-0.5629883, 0.644043, -0.5170898, 14.4512196, 22.5, 13.2317076, -0.0099031
-0.5913086, 0.640625, -0.5595703, 13.9024391, 23.9024391, 13.0487804, 0.0011749
-0.6137695, 0.6337891, -0.5732422, 13.6585369, 25.060976, 13.1707315, 0.0117494
-0.6591797, 0.6313477, -0.5927734, 13.4756098, 25.060976, 12.9268293, 0.0203098
-0.6796875, 0.6264648, -0.5942383, 13.4146347, 24.8170738, 11.4024391, 0.021149
-0.7314453, 0.6220703, -0.5893555, 14.6341467, 23.5975609, 11.280488, 0.0364233
-0.7480469, 0.6225586, -0.5922852, 16.0365849, 22.6829281, 11.6463413, 0.0621042
-0.7573242, 0.6362305, -0.5913086, 19.8170738, 20.2439022, 13.6585369, 0.0887922
-0.7363281, 0.6533203, -0.6025391, 21.7073174, 19.2073174, 14.4512196, 0.1178302
-0.7231445, 0.6601562, -0.6069336, 25.1219521, 17.8048782, 15.9146347, 0.1196765
-0.6953125, 0.6650391, -0.6220703, 26.1585369, 17.9268303, 16.0365849, 0.0944991
-0.6816406, 0.6665039, -0.625, 27.4390259, 18.3536587, 16.7682934, 0.0569009
-0.6645508, 0.6616211, -0.628418, 27.7439022, 19.0243912, 17.0731716, 0.0238346
-0.6542969, 0.652832, -0.6181641, 27.8658543, 19.8780499, 16.5853653, 0.0008392
-0.652832, 0.644043, -0.5898438, 27.3780499, 20.1829281, 15.9756098, -0.0226596
-0.6591797, 0.6352539, -0.5717773, 27.6219521, 21.2195129, 14.4512196, -0.0558938
-0.6635742, 0.6210938, -0.5400391, 29.6951218, 21.4634151, 14.3902445, -0.0652934
-0.659668, 0.6240234, -0.5258789, 31.0365868, 21.1585369, 15.2439032, -0.0614328
-0.6450195, 0.6289062, -0.5336914, 34.6341476, 21.6463413, 17.2560978, -0.0441444
-0.5996094, 0.6362305, -0.559082, 36.0975609, 22.3170738, 18.2926826, -0.0297093
-0.5742188, 0.640625, -0.5761719, 37.9268303, 24.2682934, 19.5121956, -0.0135958
-0.5415039, 0.652832, -0.5917969, 38.1707344, 26.0975609, 19.2682934, -0.0001678
-0.534668, 0.6513672, -0.5927734, 37.3780479, 30.2439022, 18.2317085, 0.0075532
-0.5498047, 0.6416016, -0.5820312, 36.341465, 32.3780479, 17.1951218, 0.0082246
-0.5664062, 0.6298828, -0.5737305, 35.9146347, 36.2804871, 15.060976, 0.005539
-0.5942383, 0.6254883, -0.543457, 36.341465, 37.6219521, 14.0853662, -0.0035248
-0.6132812, 0.628418, -0.5317383, 38.841465, 39.8780479, 13.4756098, -0.0102388
-0.6230469, 0.6420898, -0.5146484, 42.1951218, 41.0365868, 15, -0.0135958
-0.609375, 0.6557617, -0.5229492, 43.7804871, 41.4634171, 16.3414631, -0.0203098
-0.5864258, 0.6542969, -0.5380859, 46.0365868, 45.0609779, 18.2926826, -0.0270237
-0.5522461, 0.6416016, -0.5742188, 46.5853653, 47.6829262, 19.2073174, -0.0283665
-0.546875, 0.6347656, -0.590332, 46.8902435, 54.3902435, 19.0243912, -0.0229953
