Application:, Trigno Discover (1.6.5)
Date/Time:, 05/02/2025 17:19:14
Collection Length (seconds):, 45.225
wrist (81457), , , , , , bicep (81139)
sensor mode: 609, , , , , , sensor mode: 40
ACC X (G), ACC Y (G), ACC Z (G), GYRO X (deg/s), GYRO Y (deg/s), GYRO Z (deg/s), EMG 1 (mV)
370.3704 Hz, 370.3704 Hz, 370.3704 Hz, 370.3704 Hz, 370.3704 Hz, 370.3704 Hz, 2148.1481 Hz
0.9545898, -0.203125, -0.2744141, -16.8902435, -7.5609756, 3.7804878, -0.0018463
0.9550781, -0.1987305, -0.2763672, -17.439024, -7.9268293, 3.2317073, -0.0263523
0.953125, -0.1977539, -0.2817383, -17.5, -8.780488, 2.7439024, -0.0417945
0.9511719, -0.199707, -0.2836914, -18.1097565, -9.2073174, 2.804878, -0.0595865
0.9458008, -0.2006836, -0.2861328, -18.7195129, -9.5121956, 2.5609756, -0.0746929
0.9423828, -0.2026367, -0.2924805, -19.0243912, -9.6341467, 2.4390244, -0.0757
0.9375, -0.2041016, -0.2890625, -19.1463413, -9.5731707, 2.4390244, -0.0505226
0.9467773, -0.2011719, -0.2900391, -19.2682934, -9.5731707, 2.3780489, -0.0115816
0.9458008, -0.1992188, -0.2866211, -19.2682934, -10.060976, 2.4390244, 0.0240024
0.9550781, -0.203125, -0.2817383, -18.8414631, -10.3658543, 2.0731707, 0.0522011
0.9550781, -0.1972656, -0.2797852, -18.6585369, -10.3658543, 2.1341465, 0.0602579
0.9560547, -0.1933594, -0.2783203, -18.4756107, -10.060976, 1.8902439, 0.0441444
0.9526367, -0.1972656, -0.2802734, -18.0487804, -9.2682924, 1.4634147, 0.0226596
0.9536133, -0.1972656, -0.2880859, -18.2926826, -9.0243902, 1.5853659, -0.0001678
0.9536133, -0.199707, -0.2919922, -18.6585369, -9.1463413, 1.8902439, -0.0162814
0.9521484, -0.1972656, -0.2944336, -19.3902435, -9.3292685, 1.7073171, -0.0337377
0.9516602, -0.1958008, -0.2939453, -19.0853672, -9.4512196, 2.2560976, -0.0552224
0.9594727, -0.1923828, -0.2871094, -18.3536587, -9.1463413, 2.5, -0.0659648
0.965332, -0.1845703, -0.2763672, -17.9878044, -9.0243902, 2.195122, -0.0710002
0.96875, -0.1884766, -0.2788086, -16.8902435, -8.1097565, 2.1341465, -0.0703288
0.9697266, -0.1914062, -0.2802734, -16.4634151, -7.9268293, 1.8292683, -0.0763714
0.9658203, -0.190918, -0.2807617, -16.5853653, -7.5609756, 2.0731707, -0.0726787
0.953125, -0.1894531, -0.2753906, -16.9512196, -7.7439027, 2.2560976, -0.0632792
0.9575195, -0.1860352, -0.2695312, -17.439024, -7.5, 2.6219513, -0.0569009
0.9526367, -0.1835938, -0.2709961, -17.0121956, -8.2317076, 2.3780489, -0.0560616
0.9550781, -0.1787109, -0.2739258, -17.2560978, -8.3536587, 2.3170731, -0.0538796
0.9594727, -0.1816406, -0.2768555, -17.5, -8.9634151, 2.1341465, -0.0404517
0.9624023, -0.1865234, -0.2768555, -17.5, -9.0853662, 2.1341465, -0.0370947
0.965332, -0.1933594, -0.265625, -17.439024, -9.0853662, 2.4390244, -0.0317235
0.9667969, -0.2021484, -0.2641602, -17.3780499, -9.2682924, 2.5609756, -0.026688
0.9682617, -0.1982422, -0.262207, -16.5243912, -8.9024391, 2.8658538, -0.0250095
0.9628906, -0.1933594, -0.2607422, -15.7317076, -8.780488, 2.6829269, -0.0216526
0.9628906, -0.1904297, -0.2612305, -14.6951227, -8.5975609, 2.4390244, -0.0243381
0.9609375, -0.1894531, -0.2675781, -14.4512196, -8.4756098, 2.2560976, -0.0260166
0.9614258, -0.1884766, -0.2724609, -14.6951227, -8.780488, 1.7682927, -0.0258488
0.9658203, -0.1918945, -0.2773438, -15, -9.4512196, 1.7682927, -0.0231632
0.96875, -0.1962891, -0.2807617, -14.9390249, -9.6951218, 1.8902439, -0.0204776
0.96875, -0.1982422, -0.2753906, -14.9390249, -9.8780489, 1.6463414, -0.0216526
0.9707031, -0.203125, -0.2749023, -14.7560978, -9.7560978, 1.4634147, -0.0223239
0.9760742, -0.2094727, -0.2734375, -13.5975609, -9.1463413, 1.5853659, -0.0171206
0.9760742, -0.2041016, -0.2753906, -13.1097565, -9.0853662, 1.4634147, -0.0203098
0.9755859, -0.2011719, -0.277832, -12.3170738, -8.719512, 1.1585366, -0.0236667
0.9707031, -0.1967773, -0.2792969, -12.1951218, -8.4146347, 1.5243902, -0.0203098
0.9697266, -0.1953125, -0.2802734, -12.1341467, -8.4756098, 1.097561, -0.0182956
0.9702148, -0.1884766, -0.2817383, -11.8902445, -8.1707315, 0.9146342, -0.0182956
0.9726562, -0.1879883, -0.2817383, -12.1951218, -8.719512, 1.0365853, -0.0186313
0.972168, -0.1875, -0.2851562, -12.3780489, -8.780488, 1.0365853, -0.0149386
0.96875, -0.184082, -0.2851562, -12.7439032, -8.6585369, 1.097561, -0.0179599
0.9692383, -0.1811523, -0.2890625, -12.9878054, -8.719512, 1.2195122, -0.0193027
0.9702148, -0.1743164, -0.2895508, -12.8658543, -8.5975609, 1.402439, -0.0169528
0.9643555, -0.1699219, -0.2817383, -12.6829271, -8.2926826, 1.7073171, -0.0193027
0.965332, -0.1728516, -0.2856445, -12.9878054, -8.5975609, 1.7682927, -0.0179599
0.9672852, -0.1762695, -0.2851562, -12.9268293, -8.719512, 1.402439, -0.0159457
0.9643555, -0.1879883, -0.2890625, -12.560976, -8.5975609, 1.5243902, -0.01561
0.9663086, -0.1918945, -0.2836914, -12.9878054, -8.9024391, 1.8292683, -0.0159457
0.9624023, -0.1992188, -0.2763672, -12.8658543, -8.6585369, 2.0731707, -0.0099031
0.9594727, -0.1953125, -0.2705078, -12.0731707, -8.1097565, 2.3170731, -0.002182
0.9575195, -0.1923828, -0.2651367, -10.7317076, -7.7439027, 2.0121951, 0.0062104
0.9575195, -0.1894531, -0.2695312, -10.4878054, -7.6829271, 2.0121951, 0.0102388
0.9511719, -0.190918, -0.2705078, -10.3048782, -7.8658538, 1.5853659, 0.008896
0.9545898, -0.1958008, -0.2709961, -10.3048782, -7.8658538, 1.7682927, 0.0152743
0.9516602, -0.1987305, -0.2709961, -10.6097565, -8.4146347, 2.0121951, 0.0193027
0.9516602, -0.1933594, -0.269043, -10.4878054, -8.3536587, 1.8292683, 0.0166171
0.9545898, -0.1928711, -0.2670898, -9.8780489, -8.4756098, 1.5853659, 0.0226596
0.9541016, -0.1899414, -0.2680664, -9.6951218, -8.5365858, 1.6463414, 0.0313878
0.953125, -0.1875, -0.2670898, -9.0853662, -9.0243902, 1.402439, 0.030045
0.9541016, -0.190918, -0.2724609, -8.780488, -9.0243902, 1.402439, 0.0320592
0.953125, -0.1875, -0.2768555, -8.6585369, -8.719512, 1.3414634, 0.0307164
0.9545898, -0.1943359, -0.2783203, -8.3536587, -8.6585369, 1.8902439, 0.0246738
0.956543, -0.1923828, -0.277832, -7.9878049, -8.719512, 1.5853659, 0.0112459
0.9570312, -0.1928711, -0.2758789, -7.8048782, -9.0243902, 1.5853659, 0.0018463
0.9545898, -0.1894531, -0.2797852, -7.8658538, -9.0243902, 1.4634147, -0.0137636
0.9570312, -0.1889648, -0.2802734, -7.5609756, -9.0243902, 1.5243902, -0.0229953
0.9575195, -0.1870117, -0.2817383, -7.7439027, -9.0853662, 1.3414634, -0.0251774
0.9594727, -0.1826172, -0.2836914, -7.8048782, -9.4512196, 1.2804878, -0.0303807
0.9624023, -0.1821289, -0.2851562, -8.2317076, -9.0853662, 1.3414634, -0.0381018
0.9604492, -0.1816406, -0.2861328, -7.9878049, -9.2073174, 1.402439, -0.0421302
0.9580078, -0.1821289, -0.2836914, -7.8658538, -9.0243902, 1.402439, -0.047837
0.9560547, -0.1821289, -0.2822266, -7.8048782, -8.719512, 1.4634147, -0.0501869
0.9555664, -0.1884766, -0.2866211, -7.9878049, -9.0243902, 1.2195122, -0.0565652
0.9550781, -0.1879883, -0.2880859, -7.9268293, -8.9024391, 1.4634147, -0.0585794
0.9526367, -0.1879883, -0.2895508, -8.2317076, -8.841464, 1.5243902, -0.0527047
0.953125, -0.1870117, -0.2910156, -8.2926826, -8.6585369, 1.5853659, -0.054551
0.9536133, -0.1826172, -0.2900391, -7.9268293, -8.2926826, 2.0731707, -0.0599222
0.9619141, -0.1791992, -0.2905273, -7.7439027, -8.2926826, 2.0731707, -0.057908
0.9643555, -0.1782227, -0.2861328, -7.3170733, -8.2317076, 2.0121951, -0.0605936
0.9624023, -0.1811523, -0.2866211, -7.4390244, -8.2317076, 2.195122, -0.0639506
0.9638672, -0.1791992, -0.2856445, -7.6219516, -7.6219516, 2.2560976, -0.0654612
0.9624023, -0.1811523, -0.2822266, -7.3780489, -7.3780489, 2.0731707, -0.0674754
0.9614258, -0.1816406, -0.2792969, -7.3780489, -7.1951222, 2.3780489, -0.0652934
0.949707, -0.1816406, -0.2797852, -7.1341467, -6.9512196, 2.4390244, -0.0666361
0.949707, -0.1767578, -0.2827148, -7.3780489, -6.9512196, 2.4390244, -0.0639506
0.9541016, -0.1743164, -0.2841797, -7.7439027, -7.4390244, 2.8658538, -0.057908
0.9570312, -0.1757812, -0.2861328, -7.8048782, -7.3170733, 2.6829269, -0.0582437
0.9584961, -0.1777344, -0.2895508, -8.5365858, -7.9268293, 2.804878, -0.0565652
0.9599609, -0.1821289, -0.2895508, -8.9024391, -7.8048782, 2.7439024, -0.0468299
0.9609375, -0.1870117, -0.2861328, -8.719512, -7.4390244, 2.6219513, -0.0411231
0.9570312, -0.1801758, -0.28125, -8.9634151, -7.1951222, 2.5, -0.0377661
0.9570312, -0.1821289, -0.2792969, -8.4146347, -6.8292685, 2.5609756, -0.0330663
0.956543, -0.1860352, -0.2817383, -8.5365858, -6.7682929, 2.6219513, -0.0310521
0.9541016, -0.1855469, -0.2827148, -8.6585369, -6.5853658, 2.3170731, -0.0248417
0.9550781, -0.1816406, -0.2827148, -8.9024391, -6.7073174, 2.3170731, -0.0270237
0.9536133, -0.1831055, -0.2836914, -9.1463413, -6.890244, 1.8902439, -0.0236667
0.9492188, -0.1933594, -0.2841797, -9.6341467, -7.0731707, 1.8902439, -0.0213169
0.953125, -0.1967773, -0.2861328, -9.7560978, -7.3170733, 2.0121951, -0.0129244
0.9506836, -0.1992188, -0.2817383, -9.8780489, -7.1341467, 2.0121951, -0.0149386
0.949707, -0.1972656, -0.2797852, -9.5731707, -6.7682929, 1.9512196, -0.0142672
0.9467773, -0.1962891, -0.2792969, -9.0243902, -6.0975609, 1.2804878, -0.0082246
0.9472656, -0.1904297, -0.2841797, -8.6585369, -6.0365853, 1.1585366, -0.0028534
0.9448242, -0.1958008, -0.28125, -8.2317076, -5.5487804, 0.8536586, 0.0097353
0.9428711, -0.1948242, -0.2875977, -8.4146347, -5.7317076, 0.8536586, 0.0209812
0.9438477, -0.1967773, -0.2919922, -9.3292685, -5.8536587, 1.402439, 0.0226596
0.9487305, -0.1865234, -0.296875, -9.8170738, -5.609756, 1.2195122, 0.0226596
0.9472656, -0.1821289, -0.2993164, -9.5121956, -5.4878049, 1.0365853, 0.0223239
0.956543, -0.1806641, -0.3017578, -9.3292685, -5.2439027, 1.0365853, 0.0099031
0.9560547, -0.1767578, -0.3027344, -9.5731707, -5.1829271, 0.8536586, -0.005539
0.9575195, -0.1821289, -0.3046875, -10.1219511, -4.9390244, 0.8536586, -0.0176242
0.9580078, -0.1875, -0.3007812, -10.4878054, -4.5731707, 0.7926829, -0.0193027
0.953125, -0.1889648, -0.2944336, -11.1585369, -3.7804878, 0.9146342, -0.0216526
0.9453125, -0.1855469, -0.2939453, -11.7682934, -3.3536587, 0.9756098, -0.0318914
0.9399414, -0.1831055, -0.2939453, -12.1951218, -3.4146342, 0.9756098, -0.0411231
0.9365234, -0.1796875, -0.293457, -11.7682934, -3.4756098, 0.9146342, -0.043473
0.9355469, -0.1801758, -0.2939453, -11.8902445, -3.7804878, 1.1585366, -0.0431373
0.9404297, -0.1889648, -0.2963867, -12.2560978, -3.9634147, 1.2804878, -0.0411231
0.9418945, -0.1914062, -0.2954102, -12.1951218, -4.0243902, 1.2804878, -0.0397803
0.9541016, -0.2001953, -0.2910156, -12.3780489, -3.8414636, 0.9756098, -0.0350805
0.9492188, -0.2021484, -0.2856445, -12.2560978, -3.2317073, 1.2804878, -0.0379339
0.9438477, -0.2045898, -0.284668, -11.7073174, -2.6219513, 0.7926829, -0.0364233
0.9423828, -0.1953125, -0.2851562, -11.5853662, -2.195122, 0.9756098, -0.0337377
0.9394531, -0.1967773, -0.2792969, -11.219512, -2.0121951, 0.7317073, -0.0340734
0.9331055, -0.1889648, -0.277832, -10.9146347, -2.0121951, 0.7317073, -0.0357519
0.9306641, -0.1914062, -0.277832, -10.6097565, -2.804878, 0.8536586, -0.0412909
0.9306641, -0.1977539, -0.2700195, -10.9146347, -2.9268293, 1.1585366, -0.0424659
0.9316406, -0.2045898, -0.269043, -10.9756098, -2.9268293, 1.0365853, -0.0417945
0.9316406, -0.203125, -0.2612305, -11.1585369, -3.2317073, 1.2804878, -0.0424659
0.9326172, -0.2001953, -0.2558594, -10.7317076, -3.1707318, 1.1585366, -0.0407874
0.9287109, -0.1904297, -0.253418, -9.6341467, -3.0487804, 0.7926829, -0.0337377
0.9311523, -0.1918945, -0.2607422, -9.6341467, -3.5365853, 0.6707317, -0.0297093
0.9321289, -0.1982422, -0.2763672, -9.5731707, -4.1463413, 0.4878049, -0.023331
0.9321289, -0.2036133, -0.2856445, -10.1219511, -4.3292685, 0.6097561, -0.0181277
0.9365234, -0.2045898, -0.2783203, -10.6097565, -4.4512196, 0.7317073, -0.0182956
0.9443359, -0.2011719, -0.2783203, -10.1829271, -4.5731707, 1.097561, -0.0149386
0.9433594, -0.2016602, -0.2753906, -9.2073174, -4.3292685, 1.0365853, -0.0112459
0.9423828, -0.1923828, -0.2773438, -8.3536587, -4.0853658, 1.0365853, -0.0125887
0.9423828, -0.1879883, -0.2768555, -8.0487804, -4.0243902, 0.9146342, -0.0135958
0.9433594, -0.1923828, -0.2866211, -8.5365858, -3.7804878, 0.6097561, -0.0115816
0.9370117, -0.1948242, -0.2866211, -8.9024391, -4.1463413, 0.5487805, -0.0065461
0.934082, -0.1948242, -0.284668, -9.7560978, -4.3292685, 0.6707317, -0.0115816
0.934082, -0.1962891, -0.2880859, -10.1219511, -4.6951222, 1.097561, -0.0129244
0.9355469, -0.1987305, -0.2836914, -10.060976, -4.9390244, 1.2195122, -0.0109102
0.9370117, -0.1982422, -0.2768555, -10.1219511, -4.9390244, 1.0365853, -0.0137636
0.9414062, -0.199707, -0.2739258, -9.8170738, -5.1829271, 1.097561, -0.0119173
0.9414062, -0.1948242, -0.2729492, -9.6341467, -5, 1.2195122, -0.0146029
0.9453125, -0.1987305, -0.2729492, -9.8170738, -5.5487804, 0.9756098, -0.0172885
0.9379883, -0.1977539, -0.2753906, -10.3658543, -5.8536587, 0.4878049, -0.0223239
0.9384766, -0.2011719, -0.2788086, -10.6707315, -6.1585369, 0.5487805, -0.0243381
0.9306641, -0.2001953, -0.284668, -11.341464, -6.4634147, 0.6097561, -0.0226596
0.9311523, -0.1953125, -0.28125, -12.0121956, -6.7682929, 0.8536586, -0.0303807
0.9306641, -0.1777344, -0.2695312, -11.7682934, -6.7073174, 1.402439, -0.0364233
0.9331055, -0.1767578, -0.2675781, -11.341464, -6.7682929, 0.9756098, -0.0357519
0.9389648, -0.1743164, -0.269043, -11.219512, -7.9878049, 0.7317073, -0.0323949
0.9443359, -0.1860352, -0.2817383, -11.280488, -8.2926826, 0.5487805, -0.0260166
0.9458008, -0.1938477, -0.2856445, -12.6219511, -8.3536587, 0.6097561, -0.0223239
0.9467773, -0.2104492, -0.2856445, -13.2317076, -8.4146347, 0.6707317, -0.0182956
0.9418945, -0.2172852, -0.2802734, -13.4146347, -8.5365858, 0.7926829, -0.0191348
0.9404297, -0.2236328, -0.2744141, -12.7439032, -8.4146347, 0.9146342, -0.0157778
0.9394531, -0.2163086, -0.277832, -12.3170738, -8.4756098, 0.7317073, -0.012253
0.9399414, -0.2133789, -0.2841797, -11.7073174, -8.2926826, 0.6707317, -0.0109102
0.9389648, -0.2099609, -0.2890625, -11.7073174, -8.3536587, 0.4878049, -0.0062104
0.9458008, -0.2001953, -0.2954102, -11.8902445, -8.6585369, 0.8536586, -0.0041962
0.9545898, -0.1982422, -0.2929688, -12.1341467, -9.0853662, 0.6097561, -0.0068818
0.9550781, -0.1933594, -0.2929688, -12.6219511, -9.4512196, 0.9756098, -0.0052033
0.9575195, -0.1875, -0.284668, -12.7439032, -9.4512196, 1.097561, -0.0112459
0.9643555, -0.1889648, -0.2871094, -12.3780489, -8.841464, 0.7926829, -0.0253452
0.9604492, -0.1914062, -0.2958984, -12.3780489, -9.0243902, 1.0365853, -0.0409552
0.9570312, -0.1938477, -0.3041992, -13.5975609, -9.0243902, 0.7317073, -0.0652934
0.9487305, -0.2006836, -0.3095703, -15.2439032, -9.6341467, 1.0365853, -0.0820783
0.9482422, -0.2036133, -0.3144531, -15.7317076, -9.6951218, 1.2804878, -0.0897993
0.9462891, -0.2163086, -0.3085938, -15.8536587, -10.1829271, 1.8292683, -0.0908064
0.949707, -0.2133789, -0.3081055, -15.9756098, -10.4268293, 1.8902439, -0.0636149
0.9550781, -0.2045898, -0.3041992, -15.060976, -9.7560978, 2.2560976, -0.0223239
0.9648438, -0.1923828, -0.2978516, -14.7560978, -9.3902445, 2.2560976, 0.0354162
0.9682617, -0.1879883, -0.2978516, -14.7560978, -9.3902445, 2.0121951, 0.0750286
0.9707031, -0.1933594, -0.3012695, -14.8170738, -9.5731707, 2.1341465, 0.0978561
0.9746094, -0.1962891, -0.3037109, -15.9756098, -10.1829271, 1.7682927, 0.1005417
0.9658203, -0.2036133, -0.296875, -17.1341476, -10.1829271, 2.195122, 0.0837568
0.9584961, -0.2001953, -0.2900391, -17.6219521, -10, 2.6219513, 0.0639506
0.9575195, -0.2026367, -0.2885742, -17.3780499, -9.8170738, 2.8658538, 0.0424659
0.9555664, -0.203125, -0.2939453, -17.439024, -9.9390249, 2.6219513, 0.0182956
0.9443359, -0.2084961, -0.3110352, -17.6829281, -10.7317076, 2.6219513, -0.0001678
0.9443359, -0.2070312, -0.3154297, -18.4146347, -11.0975609, 2.7439024, -0.0041962
0.9453125, -0.2026367, -0.3183594, -19.2073174, -11.341464, 3.5975611, -0.0048676
0.9555664, -0.199707, -0.3178711, -19.4512196, -11.5853662, 3.5365853, -0.0129244
0.9580078, -0.2036133, -0.3227539, -20, -11.9512196, 3.4146342, -0.0203098
0.9604492, -0.199707, -0.3164062, -20.1829281, -12.1341467, 3.4756098, -0.0203098
0.9648438, -0.1953125, -0.3168945, -20.8536587, -12.0731707, 3.5975611, -0.0240024
0.9594727, -0.1962891, -0.3178711, -20.9756107, -12.0121956, 3.5975611, -0.0318914
0.9594727, -0.199707, -0.3125, -21.4634151, -12.2560978, 3.5365853, -0.0377661
0.9462891, -0.2089844, -0.3032227, -21.8292694, -12.9878054, 3.9024391, -0.0438087
0.9375, -0.2128906, -0.2993164, -21.7073174, -13.4756098, 4.2073174, -0.0459907
0.9355469, -0.2070312, -0.2910156, -21.8292694, -13.780488, 4.6341462, -0.047837
0.9370117, -0.2109375, -0.2905273, -21.3414631, -14.3292685, 4.6341462, -0.0552224
0.9355469, -0.2109375, -0.2973633, -20.4878044, -15.2439032, 4.390244, -0.0525368
0.9394531, -0.2216797, -0.3110352, -20.7317085, -15.7926836, 4.390244, -0.0491798
0.9433594, -0.2250977, -0.3129883, -20.9146347, -17.3780499, 4.390244, -0.0491798
0.9462891, -0.2260742, -0.3115234, -21.1585369, -18.2317085, 4.7560978, -0.0525368
0.9482422, -0.2265625, -0.3027344, -20.7926826, -19.4512196, 5, -0.057908
0.9541016, -0.2246094, -0.296875, -20.6097565, -19.4512196, 4.9390244, -0.0575723
0.9541016, -0.2241211, -0.293457, -19.5121956, -20.3048782, 4.4512196, -0.0580758
0.9477539, -0.2260742, -0.2939453, -18.3536587, -21.0365868, 4.0243902, -0.054551
0.9384766, -0.2319336, -0.2973633, -18.1097565, -21.5243912, 4.2682929, -0.0572366
0.9414062, -0.2290039, -0.300293, -17.6219521, -23.2317085, 4.5731707, -0.0508583
0.9418945, -0.2324219, -0.3041992, -17.2560978, -24.0853672, 4.6951222, -0.0421302
0.9448242, -0.2363281, -0.3095703, -16.8292694, -25.3658543, 4.3292685, -0.0354162
0.9404297, -0.2416992, -0.3134766, -16.7073174, -26.1585369, 4.2073174, -0.0270237
0.9360352, -0.2446289, -0.3149414, -16.7682934, -27.1341476, 4.0853658, -0.0219883
0.9379883, -0.2358398, -0.3110352, -16.8292694, -27.8658543, 4.0853658, -0.0223239
0.9433594, -0.2329102, -0.3183594, -17.1341476, -29.0243912, 4.6951222, -0.0193027
0.9438477, -0.2197266, -0.3344727, -17.2560978, -29.5121956, 5.0609756, -0.0095674
0.9443359, -0.2167969, -0.3417969, -17.9268303, -29.8780499, 4.6951222, -0.0001678
0.9516602, -0.2050781, -0.3710938, -18.8414631, -30.6097565, 4.6341462, 0.0072175
0.9536133, -0.2011719, -0.3803711, -19.6341476, -31.6463413, 4.9390244, 0.0102388
0.9560547, -0.199707, -0.378418, -21.0365868, -32.7439041, 5.8536587, 0.0062104
0.9628906, -0.2011719, -0.3745117, -21.7073174, -33.0487823, 6.4634147, 0.0025177
0.9619141, -0.2016602, -0.3652344, -23.0487804, -33.2317085, 6.9512196, 0.0008392
0.9570312, -0.203125, -0.3769531, -23.5975609, -33.1707306, 7.1341467, -0.0057069
0.9536133, -0.203125, -0.3876953, -24.6341476, -33.1707306, 7.3780489, -0.0105745
0.953125, -0.2070312, -0.4057617, -25.6097565, -33.6585388, 7.5, -0.0182956
0.9506836, -0.2094727, -0.4199219, -27.560976, -34.6951218, 8.4756098, -0.0234989
0.9560547, -0.2089844, -0.4345703, -28.4756107, -35.1219521, 9.0243902, -0.0287022
0.9594727, -0.2070312, -0.434082, -29.7560978, -36.0975609, 9.8780489, -0.0276951
0.96875, -0.2104492, -0.4345703, -30.3658543, -37.0121956, 10.4878054, -0.023331
0.9702148, -0.2089844, -0.434082, -30.7317085, -37.3170738, 10.5487804, -0.0256809
0.9648438, -0.215332, -0.4248047, -32.1341476, -37.5609779, 10.8536587, -0.0283665
0.9614258, -0.2202148, -0.4228516, -32.7439041, -37.7439041, 10.8536587, -0.0261845
0.9492188, -0.2290039, -0.418457, -34.0243912, -37.6219521, 11.7682934, -0.0236667
0.9414062, -0.2319336, -0.4199219, -34.2682953, -38.1097565, 11.8902445, -0.0223239
0.9414062, -0.2324219, -0.4282227, -35.0609779, -38.9024391, 12.9268293, -0.0246738
0.9375, -0.2241211, -0.4584961, -35.3658562, -39.0243912, 13.2926836, -0.0240024
0.9462891, -0.2216797, -0.4711914, -36.2195129, -40, 14.0853662, -0.0176242
0.9545898, -0.2182617, -0.4985352, -36.7073174, -40.2439041, 14.2682934, -0.0157778
0.965332, -0.21875, -0.5029297, -38.7804871, -41.5853653, 15, -0.01561
0.9804688, -0.2275391, -0.5029297, -41.4024391, -42.8658562, 14.9390249, -0.0146029
0.9833984, -0.2333984, -0.4912109, -42.3780479, -43.3536606, 15.1829271, -0.0229953
0.987793, -0.2451172, -0.4794922, -43.4146347, -43.0487823, 15.3658543, -0.0273594
0.9873047, -0.2504883, -0.4750977, -43.3536606, -42.8048782, 15.4268293, -0.0273594
0.9760742, -0.2607422, -0.4692383, -43.5365868, -42.5, 15.3658543, -0.0327306
0.9628906, -0.2651367, -0.4697266, -43.7195129, -42.6829262, 15.5487804, -0.0298772
0.9570312, -0.2617188, -0.4682617, -44.0243912, -43.9024391, 16.0975609, -0.0135958
0.953125, -0.2553711, -0.4663086, -44.1463432, -44.6341476, 16.3414631, -0.005539
0.9506836, -0.2509766, -0.4624023, -44.5731735, -46.2804871, 17.0121956, -0.0095674
0.956543, -0.234375, -0.4624023, -45, -47.3780518, 17.1341476, -0.0125887
0.9560547, -0.2285156, -0.4643555, -45.7317085, -49.1463432, 17.3780499, -0.0130922
0.9594727, -0.2333984, -0.4785156, -46.8292694, -51.4024391, 16.9512196, -0.0162814
0.9633789, -0.2412109, -0.4829102, -47.8048782, -52.6219521, 16.5243912, -0.021149
0.9741211, -0.2602539, -0.4916992, -49.6341476, -56.0975609, 16.0975609, -0.0198062
0.9741211, -0.2758789, -0.4926758, -50.5487823, -57.68293, 15.6707325, -0.0176242
0.9736328, -0.2978516, -0.5, -51.7073174, -59.9390259, 15.3048782, -0.0135958
0.9682617, -0.3076172, -0.515625, -52.1341476, -60.4268303, 15.3658543, -0.0058747
0.9667969, -0.3085938, -0.5268555, -52.0731735, -60.9146347, 15.2439032, 0.0068818
0.9584961, -0.3041992, -0.5512695, -52.3170738, -61.0975609, 15.3658543, 0.018967
0.9541016, -0.2924805, -0.5605469, -52.8048782, -61.8902435, 15.7926836, 0.0250095
0.9458008, -0.2636719, -0.5727539, -52.8048782, -62.4390259, 16.2195129, 0.0209812
0.9482422, -0.2514648, -0.578125, -53.841465, -63.841465, 16.6463413, 0.0157778
0.9614258, -0.2299805, -0.5771484, -55.4878044, -65.9146347, 16.7682934, 0.0048676
0.9658203, -0.222168, -0.5732422, -56.7682953, -66.5853653, 16.7073174, -0.0075532
0.9692383, -0.2158203, -0.5561523, -58.4756126, -67.9878082, 16.7682934, -0.0182956
0.9692383, -0.21875, -0.5478516, -59.0853691, -68.5975647, 16.8902435, -0.0162814
0.9584961, -0.230957, -0.5351562, -59.9390259, -69.0853653, 17.3780499, -0.0095674
0.9521484, -0.237793, -0.5244141, -60.4878044, -69.5731735, 17.9878044, -0.0112459
0.9438477, -0.2373047, -0.5229492, -59.4512215, -70, 19.0243912, -0.0125887
0.9282227, -0.2373047, -0.5185547, -58.7804909, -70.4878082, 19.5731716, -0.0099031
0.9257812, -0.2358398, -0.5131836, -56.7682953, -71.3414688, 21.0975609, -0.018967
0.9316406, -0.2519531, -0.503418, -55.9146347, -72.0731735, 21.5853672, -0.0270237
0.9389648, -0.2636719, -0.5043945, -52.9878044, -73.5975647, 22.8658543, -0.0404517
0.9487305, -0.2910156, -0.5102539, -49.9390259, -75.18293, 22.9878063, -0.0485084
0.9541016, -0.2983398, -0.5195312, -47.9268303, -75.6097565, 23.5365868, -0.0558938
0.9545898, -0.3032227, -0.5454102, -45.4268303, -76.2195129, 24.0243912, -0.0555581
0.9482422, -0.2998047, -0.5585938, -44.5121956, -76.2195129, 24.2073174, -0.0572366
0.940918, -0.2861328, -0.5834961, -44.3902435, -76.5853653, 24.8170738, -0.0632792
0.9355469, -0.2783203, -0.6142578, -44.3902435, -77.3780518, 24.6951218, -0.0686503
0.9331055, -0.2734375, -0.6313477, -45.1219521, -79.2073212, 25.3048782, -0.0629435
0.9331055, -0.2680664, -0.6601562, -45.5487823, -80.3658524, 25.7317085, -0.0585794
0.9375, -0.2592773, -0.671875, -45.4268303, -81.5853653, 27.1951218, -0.0565652
0.9575195, -0.2250977, -0.6948242, -45.3048782, -82.1341476, 28.0487804, -0.0592508
0.9658203, -0.2099609, -0.6948242, -45.9146347, -83.2317123, 28.4756107, -0.0627756
0.980957, -0.2041016, -0.6835938, -48.1097565, -84.5731735, 28.2317085, -0.0639506
0.9765625, -0.2109375, -0.6713867, -49.5121956, -85.3658524, 27.8658543, -0.0627756
0.9643555, -0.2392578, -0.644043, -52.4390259, -87.0731735, 27.8048782, -0.061265
0.9501953, -0.2524414, -0.6352539, -53.4146347, -87.9268341, 27.9878063, -0.0538796
0.9233398, -0.2861328, -0.625, -53.5365868, -89.3292694, 28.7195129, -0.0475013
0.90625, -0.3037109, -0.6328125, -53.1097565, -90.18293, 29.2073174, -0.0377661
0.9018555, -0.3037109, -0.6420898, -51.8292694, -92.1951218, 29.8170738, -0.0327306
0.8989258, -0.3017578, -0.6611328, -51.0365868, -93.9024429, 29.9390259, -0.0243381
0.9067383, -0.2944336, -0.6655273, -50.8536606, -97.4390259, 30.1829281, -0.0219883
0.9155273, -0.2973633, -0.6694336, -50.6097565, -100.8536606, 30.1219521, -0.0204776
0.9208984, -0.2958984, -0.6708984, -51.0365868, -101.8292694, 29.7560978, -0.0209812
0.9287109, -0.2993164, -0.6831055, -50.7317085, -103.8414688, 29.3902454, -0.0182956
0.9321289, -0.300293, -0.6889648, -50.4268303, -104.4512253, 29.3902454, -0.0176242
0.9248047, -0.2978516, -0.7006836, -49.7560997, -106.2195129, 29.5121956, -0.0203098
0.925293, -0.2949219, -0.7016602, -49.3902435, -107.1341476, 29.5731716, -0.0213169
0.9111328, -0.2841797, -0.7143555, -48.5975609, -109.2073212, 30.8536587, -0.0219883
0.9101562, -0.2685547, -0.730957, -48.2926826, -110.4268341, 31.0365868, -0.0203098
0.90625, -0.2539062, -0.734375, -47.9268303, -112.86586, 31.2195129, -0.0216526
0.9072266, -0.2412109, -0.7509766, -48.1707344, -114.3292694, 31.341465, -0.0203098
0.9130859, -0.2402344, -0.7563477, -49.3902435, -117.1951218, 30.7317085, -0.018967
0.9238281, -0.2397461, -0.7636719, -50.9756126, -120.4878082, 29.5121956, -0.0203098
0.9282227, -0.2416992, -0.7626953, -52.6829262, -121.8902435, 29.1463413, -0.0149386
0.9169922, -0.2456055, -0.7729492, -54.8780518, -123.8414688, 28.7195129, -0.0117494
0.9106445, -0.2412109, -0.7807617, -55.8536606, -124.3292694, 28.9634151, -0.0115816
0.9077148, -0.2226562, -0.8012695, -56.8292694, -125.2439041, 29.8780499, -0.0142672
0.9077148, -0.2119141, -0.8061523, -57.1341476, -126.4634171, 29.5121956, -0.0149386
0.9155273, -0.2080078, -0.8261719, -58.1707344, -129.6341553, 28.9024391, -0.0129244
0.9233398, -0.2285156, -0.8208008, -59.2682953, -131.5853729, 28.7195129, -0.0082246
0.9316406, -0.2451172, -0.8095703, -60.7926826, -135.1829224, 28.2926826, -0.0102388
0.9331055, -0.2792969, -0.7709961, -61.0365868, -136.4024353, 28.1707325, -0.0070497
0.9306641, -0.2939453, -0.7529297, -60.6097565, -137.7439117, 27.8658543, -0.0011749
0.9116211, -0.3222656, -0.7226562, -58.3536606, -138.9634247, 27.1951218, -0.0062104
0.8959961, -0.3354492, -0.7172852, -56.4634171, -140.0609741, 26.8902454, -0.0008392
0.8676758, -0.347168, -0.7192383, -52.3780518, -143.1097565, 26.7682934, -0.0031891
0.8574219, -0.3491211, -0.7324219, -50.1829262, -144.2073212, 27.0121956, -0.0041962
0.8466797, -0.3325195, -0.7861328, -46.5853653, -146.8902435, 27.560976, 0.0025177
0.8413086, -0.3164062, -0.8203125, -45.3048782, -147.86586, 27.7439022, -0.0015106
0.8520508, -0.2783203, -0.8745117, -44.1463432, -149.6341553, 28.2926826, -0.0028534
0.8730469, -0.237793, -0.9101562, -44.1463432, -150.7317047, 28.5365868, -0.0001678
0.887207, -0.2207031, -0.9208984, -44.6341476, -152.8048859, 29.4512196, 0.0057069
0.9135742, -0.1958008, -0.9082031, -45.1219521, -153.8414612, 29.4512196, 0.0119173
0.9248047, -0.1933594, -0.8945312, -46.5853653, -155.4268341, 29.1463413, 0.0166171
0.9345703, -0.190918, -0.859375, -47.8658562, -157.0731812, 28.9024391, 0.0172885
0.9296875, -0.2041016, -0.8461914, -48.2926826, -157.9268341, 28.5975609, 0.0132601
0.9013672, -0.2324219, -0.831543, -48.7195129, -159.4512177, 28.2926826, 0.0058747
0.8867188, -0.2397461, -0.8139648, -49.1463432, -161.1585388, 28.6585369, -0.0001678
0.8408203, -0.2504883, -0.8217773, -48.841465, -164.3902435, 29.0853672, -0.0078889
0.815918, -0.2519531, -0.8374023, -48.0487823, -165.7926941, 30.1829281, -0.0099031
0.8105469, -0.2436523, -0.8813477, -45.7317085, -168.5365906, 31.7073174, -0.0092317
0.8212891, -0.237793, -0.9287109, -45.1829262, -170.8536682, 31.5853672, -0.0085603
0.8271484, -0.2392578, -0.9477539, -44.4512215, -175.4268341, 30.7926846, -0.0102388
0.855957, -0.2558594, -0.9550781, -45.1219521, -177.5609741, 30.8536587, -0.0151064
0.875, -0.2739258, -0.9570312, -44.4512215, -180.1219482, 31.4024391, -0.018967
0.8911133, -0.3051758, -0.9506836, -43.7804871, -181.7682953, 32.0121956, -0.0236667
0.8930664, -0.3134766, -0.9594727, -42.6219521, -181.5243988, 32.5609779, -0.0283665
0.8886719, -0.3134766, -0.9882812, -40.2439041, -180.7317047, 33.6585388, -0.0285344
0.8793945, -0.3032227, -1.0097656, -39.2682953, -180, 34.2073174, -0.0270237
0.8583984, -0.2724609, -1.0571289, -37.6829262, -179.5121918, 34.4512215, -0.0283665
0.847168, -0.2348633, -1.1044922, -37.9268303, -179.8170776, 34.5121956, -0.0317235
0.8486328, -0.2216797, -1.1289062, -39.1463432, -181.2195129, 34.7560997, -0.0297093
0.8637695, -0.1943359, -1.1616211, -40.4878044, -182.1341553, 35.1219521, -0.0303807
0.8735352, -0.1928711, -1.1694336, -43.3536606, -182.7439117, 36.0365868, -0.0290379
0.9033203, -0.2075195, -1.1611328, -44.5731735, -182.86586, 36.9512215, -0.0323949
0.9116211, -0.2192383, -1.1455078, -46.8902435, -183.0487823, 37.8658562, -0.0323949
0.9233398, -0.2495117, -1.0952148, -47.8048782, -182.6829376, 39.0243912, -0.0339055
0.9169922, -0.2661133, -1.0639648, -47.6219521, -182.0731812, 39.1463432, -0.0350805
0.887207, -0.2944336, -1.0170898, -45.9756126, -180.6707306, 39.5121956, -0.036759
0.862793, -0.3066406, -1.0073242, -44.7560997, -180.6097565, 39.1463432, -0.0344091
0.8129883, -0.3203125, -1.0131836, -42.6829262, -180.7317047, 39.0243912, -0.0370947
0.7685547, -0.3222656, -1.0478516, -41.6463432, -181.4634247, 39.0243912, -0.0310521
0.7509766, -0.3203125, -1.0708008, -40, -184.4512177, 38.7804871, -0.0292058
0.7421875, -0.3168945, -1.1206055, -39.3292694, -186.0975647, 38.841465, -0.0287022
0.7519531, -0.3144531, -1.1352539, -38.4756088, -188.9634247, 38.841465, -0.0330663
0.7807617, -0.3037109, -1.1542969, -38.6585388, -189.7561035, 38.841465, -0.0370947
0.7983398, -0.2978516, -1.1513672, -38.4146347, -191.3414612, 39.1463432, -0.0386053
0.8334961, -0.2880859, -1.1328125, -38.9634171, -191.5853729, 38.9634171, -0.0344091
0.8432617, -0.2788086, -1.1264648, -38.9634171, -191.0365906, 38.7195129, -0.0317235
0.8427734, -0.2631836, -1.1088867, -38.9634171, -189.2073212, 37.8048782, -0.0317235
0.8286133, -0.2578125, -1.1000977, -38.5365868, -188.8414612, 37.3170738, -0.0256809
0.7983398, -0.2529297, -1.1015625, -37.7439041, -189.2073212, 36.7682953, -0.0229953
0.7617188, -0.2631836, -1.1323242, -37.3170738, -189.3292694, 36.2804871, -0.0226596
0.7407227, -0.2709961, -1.1674805, -37.1341476, -189.9390259, 36.5243912, -0.0216526
0.722168, -0.296875, -1.2421875, -36.9512215, -189.6951294, 36.5853653, -0.0216526
0.7226562, -0.3129883, -1.2641602, -36.7682953, -190.6097565, 38.0487823, -0.0226596
0.7421875, -0.3271484, -1.2480469, -36.5853653, -191.3414612, 38.7195129, -0.0226596
0.7631836, -0.3256836, -1.215332, -35.7926826, -192.9878082, 39.2682953, -0.0152743
0.7944336, -0.3193359, -1.1259766, -34.5121956, -191.8902435, 38.2317085, -0.0142672
0.7949219, -0.3076172, -1.0957031, -33.6585388, -190.4878082, 37.1341476, -0.0151064
0.7646484, -0.2978516, -1.0952148, -32.5, -187.86586, 35.3658562, -0.0164492
0.7373047, -0.2885742, -1.1230469, -32.0731697, -187.2561035, 34.8170738, -0.0139315
0.6806641, -0.2719727, -1.1953125, -31.7073174, -189.0853729, 34.3292694, -0.0166171
0.6445312, -0.2426758, -1.2514648, -32.9268303, -190.7317047, 34.3902435, -0.0140993
0.6391602, -0.2182617, -1.2612305, -35.6097565, -193.7195129, 34.9390259, -0.0097353
0.6577148, -0.1743164, -1.2504883, -37.4390259, -194.6341553, 35.3048782, -0.0152743
0.6733398, -0.1660156, -1.2368164, -40.4268303, -195.36586, 34.8170738, -0.0216526
0.6933594, -0.1791992, -1.2128906, -41.8902435, -195.8536682, 34.8170738, -0.0135958
0.6982422, -0.1918945, -1.2001953, -44.3292694, -196.7682953, 35, -0.0216526
0.7070312, -0.2514648, -1.1723633, -46.0365868, -197.7439117, 35.4268303, -0.0320592
0.6982422, -0.2773438, -1.1586914, -45.7317085, -197.9878082, 35.7317085, -0.0394446
0.6767578, -0.3276367, -1.1352539, -44.1463432, -197.5, 35.4878044, -0.0397803
0.6508789, -0.3452148, -1.1318359, -42.8048782, -197.2561035, 35.1829262, -0.0271916
0.6088867, -0.3520508, -1.1328125, -39.6341476, -197.8048859, 34.3292694, 0.0035248
0.5703125, -0.3417969, -1.140625, -38.2317085, -198.5975647, 33.4756088, 0.0307164
0.5522461, -0.3232422, -1.1489258, -35.8536606, -200.7926941, 32.0731697, 0.0481727
0.5361328, -0.2822266, -1.1728516, -35.1219521, -201.7073212, 31.5853672, 0.0569009
0.5327148, -0.2714844, -1.1899414, -33.9024391, -203.5365906, 30.5487804, 0.0508583
0.5400391, -0.2485352, -1.2133789, -33.5975609, -204.3292694, 30.4878063, 0.0292058
0.5439453, -0.2368164, -1.2202148, -34.3902435, -205.2439117, 30.7926846, 0.0062104
0.5664062, -0.2167969, -1.2172852, -35.5487823, -205.6707306, 30.6707325, -0.0132601
0.5688477, -0.2104492, -1.2143555, -36.1585388, -205.6097565, 30.1219521, -0.0287022
0.5673828, -0.1958008, -1.1923828, -37.1341476, -205.5487823, 29.3292694, -0.0350805
0.5673828, -0.1977539, -1.1865234, -37.5609779, -205.6097565, 29.0853672, -0.0446479
0.5517578, -0.2177734, -1.1865234, -39.3902435, -205.7926941, 28.2317085, -0.0508583
0.5166016, -0.2387695, -1.2016602, -40.2439041, -205.5487823, 28.3536587, -0.0522011
0.4921875, -0.2456055, -1.2148438, -41.0365868, -205.36586, 28.5365868, -0.047837
0.4526367, -0.2382812, -1.2290039, -41.2195129, -205.0609741, 28.841465, -0.0370947
0.4389648, -0.2172852, -1.2368164, -41.2804871, -204.3292694, 29.6951218, -0.0297093
0.4257812, -0.1733398, -1.2470703, -41.0365868, -204.512207, 29.5121956, -0.0206455
0.4282227, -0.152832, -1.2485352, -41.5853653, -204.6951294, 28.7195129, -0.0206455
0.4414062, -0.1425781, -1.2358398, -44.3292694, -206.5243988, 27.9878063, -0.01561
0.4526367, -0.1499023, -1.2290039, -46.0975609, -207.3780518, 27.4390259, -0.0243381
0.4794922, -0.1831055, -1.2070312, -49.9390259, -208.2317047, 27.1951218, -0.0327306
0.4794922, -0.206543, -1.203125, -51.0365868, -207.9878082, 27.1341476, -0.0283665
0.4736328, -0.2602539, -1.1923828, -51.8902435, -205.6707306, 26.7073174, -0.0203098
0.4521484, -0.3022461, -1.1948242, -51.4024391, -204.4512177, 26.9512196, -0.0172885
0.4404297, -0.3164062, -1.1977539, -48.4756126, -202.3170776, 26.9512196, -0.0216526
0.4077148, -0.3144531, -1.1904297, -47.0121956, -201.2195129, 26.9512196, -0.0243381
0.3974609, -0.3012695, -1.1826172, -43.7195129, -199.6951294, 25.9756107, -0.0248417
0.3803711, -0.2783203, -1.1464844, -42.0731735, -199.146347, 25.3048782, -0.0290379
0.3686523, -0.2739258, -1.128418, -39.4512215, -200.0609741, 23.1097565, -0.0337377
0.3564453, -0.2539062, -1.1206055, -38.5365868, -201.646347, 21.1585369, -0.0394446
0.3481445, -0.2412109, -1.1494141, -38.841465, -201.4634247, 20.060976, -0.0464942
0.324707, -0.1992188, -1.2416992, -41.2195129, -199.6341553, 19.3902435, -0.0501869
0.315918, -0.1796875, -1.2773438, -42.5, -198.8414612, 19.0853672, -0.0525368
0.3339844, -0.1499023, -1.2641602, -45.5487823, -200.7317047, 18.9024391, -0.0498512
0.378418, -0.1455078, -1.1474609, -47.0121956, -203.2317047, 18.1707325, -0.051194
0.3916016, -0.1523438, -1.0893555, -48.7195129, -207.3780518, 16.5853653, -0.0518654
0.3935547, -0.1791992, -1.034668, -49.2682953, -206.8292694, 15.7926836, -0.0525368
0.3720703, -0.1928711, -1.0454102, -49.6951218, -201.2804871, 15.5487804, -0.051194
0.3056641, -0.2167969, -1.097168, -49.3902435, -198.1097565, 15.7317076, -0.0464942
0.2700195, -0.21875, -1.1137695, -48.9634171, -194.6341553, 16.280489, -0.0464942
0.2148438, -0.2089844, -1.1401367, -47.7439041, -196.646347, 16.0365849, -0.0466621
0.1962891, -0.2006836, -1.1420898, -47.2560997, -198.9024506, 15.6707325, -0.0471656
0.1860352, -0.1777344, -1.1552734, -47.5609779, -203.0487823, 15.7317076, -0.0493477
0.1948242, -0.168457, -1.1650391, -48.1707344, -204.5731812, 16.280489, -0.0605936
0.2373047, -0.1601562, -1.1572266, -49.4512215, -206.2195129, 18.4146347, -0.0686503
0.2768555, -0.1518555, -1.0942383, -49.5731735, -206.5853729, 19.0243912, -0.0659648
0.2871094, -0.1445312, -1.0571289, -49.6341476, -205.8536682, 17.9268303, -0.0626078
0.2758789, -0.1279297, -1.0249023, -49.0853653, -204.8780518, 16.7073174, -0.056733
0.2519531, -0.1220703, -1.046875, -49.2682953, -201.5853729, 15.5487804, -0.0491798
0.2036133, -0.125, -1.1489258, -49.8170738, -199.6341553, 16.0365849, -0.0424659
0.1933594, -0.1357422, -1.2070312, -51.7073174, -197.1951294, 18.5975609, -0.0354162
0.1914062, -0.1645508, -1.2456055, -54.2682953, -198.6585388, 21.1585369, -0.0246738
0.2080078, -0.1757812, -1.222168, -54.6341476, -200.6097565, 21.5853672, -0.0226596
0.2490234, -0.1748047, -1.1191406, -54.4512215, -203.9634247, 20.060976, -0.0236667
0.2631836, -0.1689453, -1.0727539, -54.0853653, -203.5365906, 18.4146347, -0.0223239
0.2524414, -0.1459961, -1.0356445, -53.6585388, -199.2073212, 16.280489, -0.0162814
0.2104492, -0.1313477, -1.0351562, -54.0243912, -196.7682953, 15.7926836, -0.0149386
0.1899414, -0.128418, -1.0366211, -55.8536606, -193.9024506, 15.6097565, -0.0162814
0.1430664, -0.1401367, -1.03125, -56.7073174, -194.5731812, 15.3048782, -0.0112459
0.1303711, -0.1455078, -1.0327148, -58.1097565, -196.8902435, 14.4512196, 0.0001678
0.1015625, -0.1635742, -1.0527344, -58.4756126, -198.0487823, 14.3902445, -0.0028534
0.090332, -0.171875, -1.0605469, -58.7804909, -199.2682953, 14.6951227, -0.005539
0.0864258, -0.1811523, -1.0615234, -58.1707344, -200.0609741, 15.2439032, -0.008896
0.0976562, -0.1733398, -1.0581055, -57.4390259, -200.5487823, 15.4878054, -0.0115816
0.1196289, -0.1425781, -1.0644531, -56.7682953, -200.7926941, 14.5121956, -0.0149386
0.1298828, -0.1196289, -1.0849609, -57.0121956, -199.7561035, 13.9634151, -0.0209812
0.1381836, -0.0791016, -1.1328125, -59.6341476, -196.5853729, 12.3780489, -0.0226596
0.144043, -0.065918, -1.1455078, -62.0731735, -195.4878082, 12.2560978, -0.0219883
0.1552734, -0.078125, -1.109375, -66.5853653, -196.0365906, 12.1341467, -0.0256809
0.1723633, -0.1030273, -1.0092773, -67.9878082, -197.6219482, 11.7682934, -0.0317235
0.168457, -0.1191406, -0.9716797, -68.7195129, -199.512207, 10.6707315, -0.0297093
0.1391602, -0.1430664, -0.9394531, -67.9268341, -198.1097565, 10.5487804, -0.030045
0.1040039, -0.1508789, -0.9399414, -66.0975647, -192.6829376, 10.7317076, -0.030045
0.0390625, -0.1577148, -0.9462891, -64.0853653, -188.7195129, 12.0121956, -0.0337377
0.015625, -0.1542969, -0.9599609, -62.9878082, -188.4146423, 12.8658543, -0.0310521
-0.0126953, -0.1210938, -1.0297852, -61.9512215, -188.2317047, 13.1097565, -0.0250095
-0.0249023, -0.0947266, -1.0654297, -61.8292694, -188.3536682, 12.9878054, -0.0196384
-0.0151367, -0.0556641, -1.09375, -63.0487823, -190.1829376, 12.3780489, -0.0142672
0.0268555, -0.065918, -1.0063477, -63.5365868, -192.4390259, 11.8902445, -0.0115816
0.0488281, -0.0859375, -0.9370117, -63.5975609, -198.2317047, 10.4268293, -0.0082246
0.0810547, -0.1420898, -0.8544922, -63.0487823, -199.9390259, 10.1219511, -0.0083925
0.0771484, -0.1582031, -0.8666992, -60.4878044, -196.3414612, 11.1585369, -0.0095674
0.0292969, -0.1513672, -0.956543, -57.9878044, -184.8780518, 12.9878054, -0.0115816
0.0053711, -0.1318359, -0.9985352, -57.3780518, -179.8170776, 13.9634151, -0.008896
-0.0546875, -0.0957031, -1.0043945, -56.2804909, -177.8048859, 13.5365858, -0.0041962
-0.0708008, -0.0800781, -0.9682617, -55.6707344, -180.4268341, 12.6829271, -0.0015106
-0.0791016, -0.0756836, -0.8691406, -53.4756126, -189.2073212, 10.4268293, 0.0015106
-0.0776367, -0.0859375, -0.8300781, -52.5609779, -192.9878082, 9.7560978, -0.0035248
-0.0771484, -0.1118164, -0.8110352, -51.8292694, -194.3292694, 10.4268293, -0.0097353
-0.090332, -0.1293945, -0.8764648, -51.9512215, -192.4390259, 11.0365858, -0.0142672
-0.1044922, -0.1269531, -0.9208984, -52.6829262, -185.7317047, 12.560976, -0.0162814
-0.1333008, -0.0932617, -0.9794922, -53.5365868, -183.3536682, 13.0487804, -0.0162814
-0.1445312, -0.0610352, -0.9931641, -54.4512215, -182.1341553, 13.1097565, -0.0146029
-0.1430664, -0.0161133, -0.9956055, -55.6707344, -184.8170776, 12.4390249, -0.0135958
-0.128418, 0.0048828, -0.9946289, -56.7073174, -186.4634247, 12.0731707, -0.0166171
-0.0976562, 0.0151367, -0.9750977, -59.8170738, -188.8414612, 12.8658543, -0.0193027
-0.0712891, 0.0053711, -0.9389648, -61.5853691, -189.0853729, 13.4146347, -0.0182956
-0.0351562, -0.03125, -0.8183594, -64.1463394, -188.1097565, 12.8658543, -0.0243381
-0.0302734, -0.0546875, -0.7509766, -64.2073212, -186.8902435, 12.1951218, -0.0290379
-0.0786133, -0.1152344, -0.6601562, -62.3170738, -181.8902435, 11.0365858, -0.0317235
-0.1782227, -0.15625, -0.6723633, -61.0975609, -178.5365906, 11.0365858, -0.036759
-0.2358398, -0.1572266, -0.7138672, -57.68293, -172.5, 13.2317076, -0.0354162
-0.3295898, -0.1298828, -0.7998047, -56.5853653, -170.7317047, 14.5731707, -0.036759
-0.3608398, -0.112793, -0.8232422, -54.0243912, -172.0731812, 16.0365849, -0.0339055
-0.3671875, -0.0766602, -0.8232422, -51.2195129, -179.4512177, 15, -0.0303807
-0.3515625, -0.0693359, -0.8076172, -50.1829262, -183.6585388, 13.5365858, -0.0253452
-0.2895508, -0.0751953, -0.7714844, -48.9634171, -189.8170776, 12.3780489, -0.0216526
-0.2504883, -0.0922852, -0.7573242, -48.4756126, -190.9146423, 12.6219511, -0.0135958
-0.1904297, -0.1254883, -0.7397461, -47.9878044, -187.5, 13.7195129, -0.0159457
-0.1679688, -0.1401367, -0.7407227, -47.1341476, -183.1707306, 14.2682934, -0.0149386
-0.1572266, -0.1420898, -0.7504883, -45.0609779, -173.1707306, 13.9024391, -0.0095674
-0.1992188, -0.1269531, -0.7495117, -44.0243912, -168.2317047, 13.7195129, 0.0048676
-0.2231445, -0.1152344, -0.7514648, -41.4024391, -161.5243988, 12.8658543, 0.0129244
-0.2729492, -0.0800781, -0.7919922, -40.5487823, -159.6951294, 12.6829271, 0.0203098
-0.2890625, -0.0595703, -0.8339844, -40.8536606, -157.8048859, 13.5975609, 0.0193027
-0.3046875, -0.0078125, -0.9003906, -44.8780479, -155.9146423, 13.9634151, 0.0139315
-0.296875, 0.0009766, -0.8984375, -46.9512215, -155.5487823, 13.7195129, 0.012253
-0.2587891, -0.0058594, -0.7871094, -51.2804909, -156.8902435, 11.4634151, 0.0146029
-0.2348633, -0.0200195, -0.7119141, -52.3170738, -157.5, 9.8170738, 0.008896
-0.215332, -0.0678711, -0.5932617, -52.1951218, -156.2195129, 7.9878049, 0.0078889
-0.2246094, -0.0947266, -0.5795898, -51.7682953, -153.2926941, 8.1097565, 0.0090639
-0.2753906, -0.1274414, -0.6264648, -50.6097565, -145.0609741, 10.1829271, 0.0045319
-0.3305664, -0.1333008, -0.6938477, -50.1219521, -140.7926788, 11.7073174, -0.0005035
-0.3540039, -0.1293945, -0.7045898, -48.4756126, -136.1585388, 13.6585369, -0.0016785
-0.3808594, -0.0976562, -0.6821289, -47.8048782, -135.9146423, 13.3536587, -0.0062104
-0.3862305, -0.0795898, -0.6577148, -44.8780479, -138.1707306, 10.4268293, -0.0135958
-0.3930664, -0.0532227, -0.6264648, -43.0487823, -140.5487823, 7.6829271, -0.0171206
-0.3911133, -0.0405273, -0.6323242, -42.9268303, -140.8536682, 6.6463418, -0.0176242
-0.3891602, -0.0219727, -0.6582031, -45.7317085, -139.3292694, 5.8536587, -0.0149386
-0.3803711, -0.0317383, -0.6577148, -47.1951218, -138.2317047, 5.670732, -0.0112459
-0.3652344, -0.074707, -0.6230469, -49.0243912, -136.646347, 5.3048782, -0.0105745
-0.3608398, -0.1147461, -0.5576172, -48.5365868, -136.7073212, 5.4878049, -0.002182
-0.3579102, -0.1289062, -0.5273438, -43.7195129, -135.6097565, 6.6463418, 0.0031891
-0.3618164, -0.1152344, -0.5249023, -40.4268303, -133.1707306, 7.0121951, -0.0001678
-0.3764648, -0.09375, -0.5566406, -35.1219521, -124.9390259, 6.890244, -0.0038605
-0.4199219, -0.0473633, -0.6157227, -33.841465, -120.4268341, 6.5853658, -0.0075532
-0.4418945, -0.0332031, -0.6196289, -34.1463432, -115.1219559, 5.3658538, -0.0115816
-0.4624023, -0.0385742, -0.5556641, -34.7560997, -116.7682953, 3.5975611, -0.0115816
-0.4628906, -0.0488281, -0.5063477, -34.5731697, -119.5731735, 2.4390244, -0.0193027
-0.472168, -0.0654297, -0.4458008, -32.3780479, -123.3536606, 1.8902439, -0.0196384
-0.4794922, -0.0742188, -0.4550781, -31.1585369, -123.2317123, 2.195122, -0.0206455
-0.5004883, -0.0668945, -0.5371094, -29.5731716, -119.5731735, 4.6341462, -0.0166171
-0.5151367, -0.0351562, -0.6181641, -29.2682934, -116.8902435, 5.9756098, -0.0179599
-0.5112305, -0.0273438, -0.6181641, -29.0853672, -113.3536606, 6.6463418, -0.017792
-0.4956055, -0.0244141, -0.5439453, -29.1463413, -113.3536606, 6.0365853, -0.0166171
-0.4780273, -0.0317383, -0.4887695, -27.3780499, -116.1585388, 4.2682929, -0.0171206
-0.4716797, -0.0375977, -0.421875, -25.7926826, -117.0121994, 3.5975611, -0.0218204
-0.4741211, -0.0327148, -0.4267578, -23.780489, -115.7926865, 3.2317073, -0.0199741
-0.5068359, -0.0043945, -0.4951172, -24.2682934, -110.6707306, 4.2073174, -0.0182956
-0.5366211, 0.0141602, -0.5395508, -25.6097565, -107.9268341, 5.3048782, -0.0191348
-0.5683594, 0.034668, -0.5996094, -29.2073174, -106.0365906, 7.0731707, -0.0179599
-0.5776367, 0.0366211, -0.6025391, -31.0975609, -106.7073212, 7.2560978, -0.0169528
-0.5712891, 0.0400391, -0.5673828, -31.8902454, -109.5121994, 7.0731707, -0.0152743
-0.5483398, 0.0341797, -0.5043945, -31.280489, -110.5487823, 6.6463418, -0.012253
-0.5361328, 0.0239258, -0.4707031, -29.5121956, -111.8292694, 6.2195125, -0.0102388
-0.5175781, 0.0043945, -0.4101562, -28.5975609, -111.8292694, 6.1585369, -0.0095674
-0.5180664, -0.0029297, -0.3950195, -28.5365868, -109.146347, 5.7926831, -0.0166171
-0.5405273, -0.0234375, -0.440918, -28.9024391, -106.8902435, 5.9756098, -0.0229953
-0.5585938, -0.027832, -0.4897461, -30.6097565, -101.8292694, 6.9512196, -0.0303807
-0.5996094, -0.0234375, -0.5839844, -33.4146347, -99.146347, 9.2073174, -0.0315557
-0.6098633, -0.019043, -0.597168, -34.2073174, -99.3292694, 9.8170738, -0.0310521
-0.5981445, -0.0117188, -0.5415039, -33.1707306, -101.0365906, 9.5121956, -0.0290379
-0.5820312, -0.0180664, -0.4912109, -32.0121956, -102.2561035, 8.780488, -0.0216526
-0.5512695, -0.0439453, -0.4199219, -29.1463413, -102.5, 7.1341467, -0.0159457
-0.5410156, -0.0756836, -0.4267578, -28.1707325, -101.0365906, 7.0731707, -0.0172885
-0.5449219, -0.0913086, -0.4443359, -27.7439022, -95.9756088, 7.9268293, -0.0186313
-0.5566406, -0.0849609, -0.480957, -27.8048782, -93.1097565, 8.841464, -0.0213169
-0.5732422, -0.0737305, -0.4863281, -27.3170738, -87.5, 9.2073174, -0.0151064
-0.6030273, -0.0249023, -0.4790039, -26.4634151, -85.18293, 8.841464, -0.0162814
-0.6118164, -0.003418, -0.4624023, -24.7560978, -82.4390259, 7.1341467, -0.0216526
-0.628418, 0.0244141, -0.4428711, -23.5365868, -80.7317123, 6.5243902, -0.0226596
-0.6254883, 0.0297852, -0.4321289, -23.7195129, -80.4878082, 6.1585369, -0.0250095
-0.6152344, 0.0087891, -0.425293, -24.6341476, -78.7804871, 6.4634147, -0.0344091
-0.6088867, -0.0014648, -0.4169922, -25.3048782, -77.4390259, 6.5853658, -0.0354162
-0.5991211, -0.0258789, -0.3759766, -25.6707325, -73.4146347, 6.5853658, -0.0404517
-0.6044922, -0.0288086, -0.3256836, -25.3048782, -70.5487823, 6.280488, -0.0397803
-0.6191406, -0.0268555, -0.3120117, -23.4756107, -64.5121994, 4.1463413, -0.0377661
-0.6601562, -0.0234375, -0.3129883, -22.9268303, -61.8292694, 3.2926829, -0.0384375
-0.6855469, -0.019043, -0.3183594, -22.3780499, -58.2317085, 3.2317073, -0.0377661
-0.7163086, -0.003418, -0.3237305, -22.5, -57.4390259, 4.0853658, -0.0399481
-0.7275391, 0.0078125, -0.3144531, -22.6219521, -57.7439041, 4.5121951, -0.0404517
-0.7275391, 0.012207, -0.2919922, -22.1341476, -58.1097565, 3.5975611, -0.0424659
-0.7216797, 0.0058594, -0.2900391, -21.8902435, -57.8048782, 3.1097562, -0.04448
-0.7104492, 0.0009766, -0.3203125, -22.3780499, -57.3170738, 3.1097562, -0.0428016
-0.7041016, -0.0019531, -0.3378906, -22.6829281, -56.1585388, 3.2317073, -0.0347448
-0.6884766, -0.0087891, -0.3530273, -23.2926826, -53.5975609, 3.7804878, -0.0263523
-0.6674805, -0.0175781, -0.3413086, -22.6829281, -52.0731735, 4.1463413, -0.0236667
-0.6577148, -0.0195312, -0.3266602, -20.3048782, -49.9390259, 5.1219511, -0.0209812
-0.6450195, 0.0058594, -0.2983398, -18.8414631, -48.4756126, 5.4878049, -0.018967
-0.6416016, 0.0288086, -0.2939453, -17.1341476, -43.1097565, 5.3658538, -0.018967
-0.6503906, 0.0532227, -0.3041992, -17.1341476, -39.8780479, 5, -0.0174563
-0.6621094, 0.0537109, -0.3110352, -18.9024391, -34.0853653, 4.0243902, -0.0152743
-0.6835938, 0.0385742, -0.3120117, -21.6463413, -31.0365868, 3.9634147, -0.0152743
-0.6923828, 0.0292969, -0.3041992, -22.3170738, -30.6097565, 3.7195122, -0.0159457
-0.7094727, 0.0136719, -0.269043, -22.6219521, -30.1829281, 3.1097562, -0.0162814
-0.7104492, 0.0073242, -0.2524414, -21.9512196, -29.8780499, 2.7439024, -0.0159457
-0.7163086, -0.0112305, -0.2304688, -20.1829281, -27.9268303, 2.3170731, -0.018967
-0.7207031, -0.0415039, -0.2250977, -19.6951218, -26.7682934, 2.3780489, -0.0206455
-0.7275391, -0.050293, -0.2324219, -18.6585369, -24.5121956, 2.5, -0.0229953
-0.7314453, -0.0527344, -0.2456055, -18.1707325, -23.6585369, 2.5609756, -0.018967
-0.730957, -0.0400391, -0.246582, -16.4634151, -22.1341476, 1.8292683, -0.0166171
-0.734375, -0.0166016, -0.2612305, -15.7317076, -21.280489, 1.2195122, -0.0149386
-0.730957, -0.0019531, -0.2709961, -14.7560978, -19.939024, -0.7317073, -0.0182956
-0.7260742, 0.0083008, -0.2890625, -15.3048782, -18.6585369, -2.0121951, -0.0142672
-0.7246094, 0.0185547, -0.2890625, -15.3658543, -17.8658543, -2.1341465, -0.0179599
-0.7143555, 0.0219727, -0.2719727, -16.280489, -16.4024391, -2.0121951, -0.018967
-0.7070312, 0.0258789, -0.2597656, -15.8536587, -15.060976, -2.0731707, -0.0216526
-0.6962891, 0.0317383, -0.2456055, -14.6951227, -11.8292685, -2.9878049, -0.0276951
-0.7021484, 0.0322266, -0.2431641, -14.1463413, -9.8170738, -3.1707318, -0.0229953
-0.7050781, 0.0234375, -0.2558594, -13.841464, -5.7317076, -2.7439024, -0.0182956
-0.7094727, 0.0166016, -0.2973633, -13.780488, -3.6585367, -2.3780489, -0.018967
-0.7124023, 0.015625, -0.3085938, -15, 0.0609756, -1.5853659, -0.0223239
-0.71875, 0.003418, -0.3022461, -15.4268293, 1.5243902, -1.8902439, -0.0276951
-0.7192383, -0.0073242, -0.2832031, -14.9390249, 4.0243902, -2.3780489, -0.0307164
-0.7192383, -0.0161133, -0.2358398, -13.9024391, 6.4024391, -3.2926829, -0.0364233
-0.7163086, -0.0146484, -0.2167969, -12.560976, 7.6219516, -4.1463413, -0.0384375
-0.7304688, -0.0263672, -0.2148438, -11.280488, 10.4878054, -4.7560978, -0.0406195
-0.737793, -0.0302734, -0.2202148, -10.6097565, 11.5853662, -5.1829271, -0.0404517
-0.7553711, -0.0180664, -0.2373047, -9.5121956, 13.9634151, -5.609756, -0.0411231
-0.7602539, 0.0161133, -0.2363281, -9.0853662, 14.6341467, -5.9756098, -0.0386053
-0.7597656, 0.0273438, -0.2270508, -7.8658538, 15.6097565, -7.5609756, -0.0337377
-0.7543945, 0.0419922, -0.230957, -7.7439027, 16.1585369, -8.3536587, -0.0350805
-0.7509766, 0.0356445, -0.2460938, -8.780488, 17.5, -9.8780489, -0.0350805
-0.7426758, 0.0219727, -0.2919922, -9.8780489, 18.0487804, -10.2439022, -0.0270237
-0.7368164, 0.0087891, -0.3110352, -11.9512196, 19.6951218, -10.8536587, -0.0213169
-0.7275391, -0.0058594, -0.3251953, -12.5, 21.2195129, -10.060976, -0.0182956
-0.7158203, -0.0048828, -0.3188477, -11.8292685, 22.6219521, -9.8780489, -0.0169528
-0.6953125, 0.0078125, -0.2924805, -9.4512196, 26.2195129, -9.8170738, -0.0176242
-0.6899414, 0.0117188, -0.2836914, -8.5365858, 29.6341476, -10.1829271, -0.018967
-0.6889648, 0.019043, -0.2749023, -7.6219516, 35.7317085, -10.5487804, -0.0193027
-0.6958008, 0.0200195, -0.28125, -7.5, 38.2926826, -10.3048782, -0.0198062
-0.6992188, 0.0170898, -0.2817383, -8.4756098, 42.0121956, -10.3658543, -0.0119173
-0.7050781, 0.0112305, -0.3041992, -8.6585369, 43.1707344, -10.4878054, -0.0078889
-0.706543, 0.012207, -0.3295898, -8.780488, 45.3048782, -11.219512, -0.0075532
-0.6953125, 0.0151367, -0.3720703, -9.0243902, 46.341465, -11.7073174, -0.0082246
-0.6894531, 0.0136719, -0.3833008, -10.060976, 48.841465, -12.3780489, -0.0102388
-0.6665039, 0.0048828, -0.3579102, -10.3658543, 50.9756126, -13.2926836, -0.0129244
-0.652832, -0.0024414, -0.3339844, -10.2439022, 52.3780518, -14.0243902, -0.0240024
-0.6425781, -0.0083008, -0.2939453, -8.719512, 57.0731735, -14.6341467, -0.0421302
-0.6425781, -0.0063477, -0.2929688, -7.8658538, 59.5731735, -14.8170738, -0.0552224
-0.6611328, 0.0019531, -0.3198242, -6.7682929, 65.0609741, -15.1219511, -0.0720073
-0.6767578, 0.0229492, -0.3486328, -6.7682929, 67.3170776, -14.8170738, -0.0807355
-0.6816406, 0.0327148, -0.3569336, -7.2560978, 69.0853653, -14.6341467, -0.0894636
-0.6831055, 0.0473633, -0.3759766, -7.7439027, 69.2073212, -14.6951227, -0.0874495
-0.6787109, 0.050293, -0.3920898, -8.9634151, 69.7560959, -15.060976, -0.0619364
-0.659668, 0.0478516, -0.4223633, -9.9390249, 69.8170776, -15.1829271, -0.0112459
-0.6459961, 0.0366211, -0.4228516, -11.5853662, 71.0365906, -15.6097565, 0.0236667
-0.6040039, -0.0024414, -0.3881836, -12.0731707, 72.3780518, -15.5487804, 0.0508583
-0.5922852, -0.0131836, -0.3637695, -11.5243902, 73.9024429, -15.4878054, 0.0683146
-0.5771484, -0.0292969, -0.3369141, -9.6341467, 78.9634171, -16.5853653, 0.0733501
-0.5825195, -0.027832, -0.3422852, -8.780488, 82.5609741, -17.1341476, 0.0663005
-0.6025391, -0.0146484, -0.3867188, -7.6829271, 88.5365906, -17.3780499, 0.0528725
-0.6303711, -0.0019531, -0.4458008, -7.8048782, 90.5487823, -17.1951218, 0.0354162
-0.6386719, -0.0019531, -0.4580078, -7.6219516, 91.7682953, -16.6463413, 0.0186313
-0.6264648, -0.0009766, -0.4677734, -7.5, 91.4634171, -16.5853653, 0.0078889
-0.6181641, -0.0058594, -0.4589844, -6.5243902, 91.3414688, -15.9146347, -0.0075532
-0.5839844, -0.0048828, -0.440918, -5.8536587, 91.9512253, -15.6707325, -0.0149386
-0.5664062, -0.0024414, -0.4306641, -3.5365853, 95.6097565, -16.4634151, -0.0132601
-0.5527344, -0.0083008, -0.4165039, -2.3780489, 101.0365906, -17.3780499, -0.0193027
-0.5581055, -0.0073242, -0.4189453, -2.3170731, 103.5365906, -17.3780499, -0.0234989
-0.5717773, -0.0048828, -0.4423828, -2.3170731, 107.5609818, -17.560976, -0.0273594
-0.5756836, 0.0014648, -0.4536133, -2.6219513, 108.8414688, -17.6219521, -0.0270237
-0.5864258, 0.0009766, -0.4873047, -3.2926829, 110.4268341, -17.8048782, -0.0280308
-0.5893555, -0.0029297, -0.5141602, -3.6585367, 110.7317123, -17.9878044, -0.0339055
-0.5874023, -0.0058594, -0.5195312, -4.0853658, 110.6097565, -17.6829281, -0.0337377
-0.5644531, -0.0151367, -0.5219727, -4.5731707, 110.6707306, -17.6219521, -0.0337377
-0.5541992, -0.0146484, -0.5166016, -4.2682929, 111.0975647, -17.6219521, -0.0303807
-0.5322266, -0.0166016, -0.5048828, -3.6585367, 112.3170776, -17.9878044, -0.0320592
-0.5205078, -0.0180664, -0.4975586, -3.0487804, 113.7804871, -18.1707325, -0.0327306
-0.5087891, -0.0097656, -0.4824219, -1.6463414, 116.8292694, -18.3536587, -0.035584
-0.5112305, -0.0102539, -0.4804688, -1.1585366, 118.2926865, -18.3536587, -0.0414588
-0.5166016, -0.0102539, -0.4765625, -0.3658537, 120.6707382, -18.8414631, -0.0411231
-0.5200195, -0.0195312, -0.4770508, -0.4878049, 121.4634171, -19.3292694, -0.0431373
-0.5351562, -0.03125, -0.5136719, -0.7317073, 122.8048782, -19.7560978, -0.0471656
-0.5517578, -0.0375977, -0.6015625, -1.1585366, 123.1707382, -19.7560978, -0.0515297
-0.5566406, -0.03125, -0.6420898, -2.6219513, 122.5, -18.2926826, -0.0505226
-0.5375977, -0.0078125, -0.6621094, -3.1707318, 121.8292694, -17.1951218, -0.0552224
-0.519043, 0.0019531, -0.6391602, -2.195122, 119.7561035, -15.7317076, -0.051194
-0.4692383, 0.012207, -0.5566406, 0.5487805, 120.3048782, -15.3658543, -0.0454871
-0.4516602, 0.0126953, -0.5205078, 2.1341465, 122.3780518, -16.0365849, -0.0458228
-0.4384766, -0.0073242, -0.515625, 3.4146342, 128.9024353, -16.4634151, -0.0394446
-0.4453125, -0.0195312, -0.5473633, 2.9268293, 132.5, -16.2195129, -0.0364233
-0.4750977, -0.0307617, -0.6435547, 0.4878049, 137.4390259, -15.7926836, -0.0377661
-0.4887695, -0.0385742, -0.6855469, -1.097561, 137.9268341, -15.1219511, -0.0391089
-0.4985352, -0.0419922, -0.7299805, -2.4390244, 134.9390259, -14.2073174, -0.0370947
-0.4868164, -0.0209961, -0.7333984, -2.5, 132.8048859, -13.841464, -0.0360876
-0.4755859, -0.0063477, -0.7231445, -1.2804878, 130.2439117, -13.6585369, -0.0370947
-0.4335938, 0.0019531, -0.7099609, -1.097561, 130.0609741, -13.6585369, -0.0411231
-0.4145508, 0.0053711, -0.7060547, -1.5853659, 132.8048859, -13.7195129, -0.036759
-0.3842773, -0.0112305, -0.7055664, -3.8414636, 136.5853729, -14.1463413, -0.036759
-0.3779297, -0.027832, -0.7094727, -5.1219511, 138.5365906, -14.2073174, -0.0354162
-0.3662109, -0.065918, -0.7226562, -6.3414636, 141.1585388, -14.3292685, -0.0305486
-0.3730469, -0.0888672, -0.7270508, -6.0975609, 142.0121918, -14.3902445, -0.0317235
-0.3725586, -0.1240234, -0.7519531, -4.6341462, 143.1097565, -13.780488, -0.0263523
-0.371582, -0.1308594, -0.7568359, -3.2317073, 143.1707306, -13.780488, -0.0250095
-0.3623047, -0.1323242, -0.7802734, -0.3658537, 143.9634247, -13.9024391, -0.0256809
-0.3569336, -0.112793, -0.809082, 0.8536586, 144.5731812, -14.3292685, -0.0226596
-0.3569336, -0.0991211, -0.8208008, 1.7073171, 146.0975647, -14.3292685, -0.0203098
-0.3500977, -0.0654297, -0.8139648, 2.2560976, 146.9512177, -13.9634151, -0.0159457
-0.3417969, -0.0463867, -0.793457, 2.5, 148.3536682, -14.1463413, -0.0125887
-0.3310547, -0.0356445, -0.7426758, 3.1707318, 150.1829376, -15.9756098, -0.0132601
-0.3305664, -0.0419922, -0.7211914, 3.9634147, 151.4024353, -16.6463413, -0.0137636
-0.340332, -0.078125, -0.7182617, 5.3048782, 152.3170776, -17.5, -0.0149386
-0.3447266, -0.1025391, -0.7241211, 5.9146342, 152.3780518, -17.0121956, -0.0135958
-0.3510742, -0.1542969, -0.7548828, 7.9268293, 151.4024353, -16.7682934, -0.012253
-0.3447266, -0.1767578, -0.7797852, 9.0853662, 150.6707306, -17.3780499, -0.0135958
-0.3295898, -0.2016602, -0.8564453, 11.5243902, 149.4512177, -19.2073174, -0.0166171
-0.3149414, -0.1855469, -0.9487305, 12.8048782, 149.146347, -20.4268303, -0.0078889
-0.3076172, -0.1674805, -0.9907227, 13.0487804, 149.146347, -22.1341476, -0.0001678
-0.2880859, -0.1181641, -1.03125, 12.560976, 149.146347, -22.3780499, 0.0025177
-0.2666016, -0.0942383, -1.0209961, 11.0975609, 147.9268341, -21.280489, 0.0041962
-0.2177734, -0.0429688, -0.9433594, 11.0365858, 147.5, -20.6097565, 0.0058747
-0.1938477, -0.0146484, -0.8930664, 11.4024391, 148.7195129, -21.0365868, 0.0045319
-0.184082, 0.0161133, -0.8374023, 11.7682934, 154.4512177, -22.3170738, 0.002182
-0.1948242, 0.0151367, -0.8422852, 11.0975609, 157.7439117, -22.7439022, -0.0008392
-0.2348633, -0.0146484, -0.9101562, 7.5609756, 162.4390259, -21.5853672, 0.0125887
-0.2744141, -0.0581055, -1.0249023, 5.0609756, 162.0731812, -20.2439022, 0.0162814
-0.2768555, -0.0761719, -1.0727539, -0.2439024, 158.1707306, -16.3414631, 0.0130922
-0.2563477, -0.0893555, -1.1230469, -2.0121951, 154.7561035, -15, 0.0097353
-0.2338867, -0.0932617, -1.1123047, -4.0853658, 149.3292694, -13.841464, 0.0048676
-0.1923828, -0.0834961, -1.0444336, -4.2682929, 147.7439117, -14.1463413, 0.0052033
-0.1674805, -0.0732422, -1.0048828, -2.8658538, 148.0487823, -15.1829271, 0.005539
-0.1503906, -0.0483398, -0.9487305, -2.3170731, 150.7317047, -14.5731707, 0.008896
-0.1430664, -0.0395508, -0.9423828, -2.2560976, 152.6829376, -14.1463413, 0.0139315
-0.1435547, -0.0375977, -0.9755859, -3.4146342, 155.7926941, -13.4756098, 0.0182956
-0.1499023, -0.0449219, -1.0063477, -4.6341462, 156.8292694, -13.1097565, 0.0119173
-0.1621094, -0.0869141, -1.0786133, -7.2560978, 157.3170776, -12.8048782, 0.0092317
-0.1645508, -0.1342773, -1.121582, -8.0487804, 156.2804871, -12.5, 0.0025177
-0.1552734, -0.1606445, -1.1157227, -8.719512, 152.9268341, -11.7682934, -0.0085603
-0.1220703, -0.1992188, -1.0566406, -7.5609756, 151.0975647, -12.0731707, -0.0105745
-0.1040039, -0.2158203, -1.0161133, -3.5365853, 148.7804871, -12.9268293, -0.0159457
-0.0791016, -0.2270508, -0.9414062, -0.8536586, 148.6585388, -13.841464, -0.0234989
-0.0883789, -0.2260742, -0.9165039, 4.3292685, 150.8536682, -16.3414631, -0.0297093
-0.1274414, -0.2124023, -0.9072266, 7.8658538, 154.0853729, -18.2317085, -0.0384375
-0.152832, -0.199707, -0.90625, 9.1463413, 154.8170776, -18.9634151, -0.0438087
-0.2075195, -0.1811523, -0.9462891, 11.1585369, 152.9268341, -19.939024, -0.0525368
-0.2167969, -0.171875, -0.987793, 11.341464, 150.6097565, -20.2439022, -0.0572366
-0.2260742, -0.1518555, -1.1054688, 10.4878054, 144.4512177, -20.4268303, -0.0639506
-0.1923828, -0.1279297, -1.1958008, 9.0243902, 141.2804871, -20.4268303, -0.0649577
-0.1621094, -0.1196289, -1.2055664, 5.2439027, 135.4268341, -20.6097565, -0.0656291
-0.0898438, -0.1054688, -1.137207, 3.5975611, 132.7439117, -21.3414631, -0.0669718
-0.0551758, -0.1088867, -1.0869141, 3.9024391, 129.8780518, -23.1097565, -0.064622
-0.0058594, -0.105957, -1.0078125, 5.1219511, 130.1219482, -23.7195129, -0.0706645
0.003418, -0.1044922, -0.9956055, 8.780488, 134.5121918, -23.9634151, -0.0773785
-0.0136719, -0.0878906, -1.0229492, 10.1219511, 141.7073212, -22.6829281, -0.0746929
-0.0395508, -0.0722656, -1.0581055, 9.5121956, 145.36586, -21.5853672, -0.0713359
-0.0927734, -0.0419922, -1.1455078, 7.0731707, 149.6341553, -19.2682934, -0.0686503
-0.1157227, -0.0317383, -1.1938477, 5.0609756, 150.1829376, -18.1097565, -0.0666361
-0.1425781, -0.0209961, -1.237793, 1.1585366, 148.1097565, -15.4268293, -0.0649577
-0.1240234, -0.027832, -1.1879883, -0.4268293, 145.4878082, -14.3902445, -0.061265
-0.1069336, -0.0351562, -1.1264648, -2.3780489, 139.0243988, -13.6585369, -0.0552224
-0.0644531, -0.0712891, -1.0131836, -2.3780489, 136.1585388, -13.3536587, -0.0495155
-0.0463867, -0.0844727, -0.9692383, -1.3414634, 134.9390259, -13.2926836, -0.0364233
-0.0478516, -0.1191406, -0.949707, -1.2195122, 136.2195129, -13.4146347, -0.0223239
-0.0649414, -0.1264648, -0.9741211, -1.7073171, 142.1341553, -12.5, -0.0203098
-0.1132812, -0.1420898, -1.0395508, -3.3536587, 147.3780518, -10.9146347, -0.0196384
-0.1391602, -0.1474609, -1.0703125, -4.390244, 147.9878082, -9.7560978, -0.0099031
-0.15625, -0.1650391, -1.0888672, -5, 144.4512177, -7.6829271, -0.0028534
-0.1503906, -0.1811523, -1.0791016, -4.7560978, 140.7926788, -6.8292685, 0.002182
-0.1225586, -0.2148438, -1.0400391, -2.1341465, 132.1951294, -6.0975609, 0.0045319
-0.065918, -0.2348633, -0.9853516, -0.3048781, 128.8414612, -6.280488, 0.0065461
-0.0429688, -0.237793, -0.949707, 4.1463413, 126.3414688, -7.2560978, 0.0105745
-0.0268555, -0.2348633, -0.8974609, 6.1585369, 127.6219559, -8.2317076, 0.0075532
-0.0268555, -0.2280273, -0.894043, 10.3048782, 132.5609741, -10.8536587, 0.0045319
-0.043457, -0.2143555, -0.9350586, 12.2560978, 135.6097565, -12.1341467, 0.0011749
-0.0639648, -0.2143555, -0.9672852, 13.841464, 138.9634247, -14.3902445, -0.0028534
-0.0898438, -0.2202148, -1.0097656, 15, 136.2804871, -16.0975609, -0.0119173
-0.0927734, -0.2294922, -1.0092773, 15.4268293, 132.9878082, -17.0121956, -0.0149386
-0.0786133, -0.2490234, -0.9614258, 18.7195129, 123.7195129, -17.5, -0.0203098
-0.065918, -0.2519531, -0.9360352, 21.4024391, 120, -17.6829281, -0.036759
-0.0371094, -0.2446289, -0.9267578, 27.4390259, 117.5, -17.3780499, -0.0461585
-0.0205078, -0.2084961, -1.0151367, 29.9390259, 119.0853653, -17.0731716, -0.0619364
-0.0180664, -0.1796875, -1.090332, 33.1097565, 126.646347, -15.1219511, -0.0820783
-0.0078125, -0.1113281, -1.2382812, 32.8658562, 131.1585388, -14.1463413, -0.0928206
0.0004883, -0.0776367, -1.2832031, 29.2682934, 137.1341553, -10.3048782, -0.1038987
0.0395508, -0.0146484, -1.2670898, 26.4634151, 137.1951294, -8.780488, -0.0998703
0.0625, 0.0053711, -1.2133789, 20.9756107, 133.7195129, -7.6219516, -0.0708324
0.1210938, 0.0078125, -1.0844727, 16.8902435, 129.2073212, -7.6219516, -0.0290379
0.1435547, -0.0029297, -1.050293, 15.5487804, 128.9024353, -7.3170733, 0.0159457
0.1772461, -0.0488281, -1.0639648, 12.3780489, 134.5731812, -6.5853658, 0.0391089
0.1835938, -0.0820312, -1.1074219, 10.1219511, 139.8170776, -5.8536587, 0.0439765
0.1665039, -0.1430664, -1.1918945, 3.5975611, 149.5731812, -4.390244, 0.0287022
0.1396484, -0.2021484, -1.1870117, 0.8536586, 151.8292694, -3.2317073, 0.0085603
0.1362305, -0.2226562, -1.1484375, -1.0365853, 150, -2.0731707, -0.0102388
0.1416016, -0.2441406, -1.0214844, 0.2439024, 146.8902435, -1.7073171, -0.0216526
0.1445312, -0.2514648, -0.9624023, 5.4268293, 141.0975647, -2.0731707, -0.026688
0.1508789, -0.2514648, -0.902832, 8.2317076, 140.1219482, -2.8658538, -0.0290379
0.1455078, -0.2460938, -0.8959961, 13.5975609, 142.5609741, -4.1463413, -0.0273594
0.1162109, -0.2412109, -0.9033203, 15.2439032, 146.8292694, -5.670732, -0.0176242
0.1035156, -0.2451172, -0.9091797, 15.1829271, 147.6829376, -6.7073174, -0.0169528
0.0776367, -0.2592773, -0.8925781, 15.2439032, 144.4512177, -8.9634151, -0.0149386
0.0698242, -0.269043, -0.8730469, 15.7317076, 141.0975647, -9.7560978, -0.0082246
0.0737305, -0.2788086, -0.8671875, 17.3780499, 133.5365906, -12.1341467, -0.008896
0.1040039, -0.2890625, -0.9277344, 18.8414631, 130.4878082, -13.4756098, -0.012253
0.1235352, -0.2949219, -0.972168, 20.6097565, 128.0487823, -16.280489, -0.0115816
0.1679688, -0.2973633, -1.0302734, 20.9756107, 127.8048782, -17.3170738, -0.0135958
0.1914062, -0.2924805, -1.0292969, 21.4634151, 126.5243912, -19.0243912, -0.0159457
0.2392578, -0.2832031, -0.9604492, 22.1341476, 125.4878082, -19.8780499, -0.0129244
0.262207, -0.2714844, -0.9077148, 26.0365868, 122.0121994, -21.0365868, -0.0115816
0.3027344, -0.2363281, -0.8486328, 32.2560997, 122.6219559, -21.9512196, -0.0135958
0.309082, -0.2163086, -0.8525391, 35.7317085, 125.5487823, -22.560976, -0.0095674
0.2973633, -0.1782227, -0.9384766, 39.9390259, 134.3902435, -21.8292694, -0.0102388
0.2832031, -0.1542969, -1.0039062, 40.0609779, 139.2682953, -20.9146347, -0.0112459
0.262207, -0.1220703, -1.1186523, 36.5853653, 144.4512177, -18.4756107, -0.012253
0.265625, -0.1103516, -1.1733398, 34.3902435, 144.2682953, -17.439024, 0.0035248
0.2827148, -0.1142578, -1.1811523, 29.9390259, 140.6097565, -16.280489, 0.0193027
0.3364258, -0.1337891, -1.1816406, 28.6585369, 138.1707306, -15.8536587, 0.0265202
0.3735352, -0.1464844, -1.1782227, 27.1341476, 136.8292694, -14.6341467, 0.0219883
0.4360352, -0.1538086, -1.1640625, 26.7073174, 137.9268341, -13.4146347, 0.0092317
0.4672852, -0.1494141, -1.144043, 25.1219521, 142.7439117, -10.7317076, -0.0025177
0.5087891, -0.1357422, -1.0810547, 23.2926826, 148.7195129, -8.4756098, -0.008896
0.5249023, -0.1279297, -1.0493164, 22.3780499, 151.7073212, -7.9878049, -0.0075532
0.5263672, -0.1137695, -1.0288086, 20.4878044, 158.0487823, -7.1951222, -0.0031891
0.519043, -0.1162109, -1.0478516, 19.2682934, 161.0975647, -7.1951222, 0.0038605
0.4814453, -0.1357422, -1.1035156, 15.6707325, 165, -7.2560978, -0.0016785
0.4580078, -0.1811523, -1.1074219, 13.4146347, 165.1219482, -7.0121951, -0.0119173
0.4501953, -0.2050781, -1.0834961, 9.2073174, 160.3048859, -6.4634147, -0.0149386
0.4604492, -0.2587891, -0.9941406, 7.9268293, 156.3414612, -6.1585369, -0.01561
0.4707031, -0.2792969, -0.9462891, 7.8048782, 148.9024353, -5.7317076, -0.030045
0.4951172, -0.293457, -0.8647461, 8.780488, 147.0121918, -5.9756098, -0.0411231
0.503418, -0.2890625, -0.8427734, 11.9512196, 146.9512177, -7.6829271, -0.04448
0.5, -0.2797852, -0.8242188, 14.8780489, 148.5975647, -10.4878054, -0.0417945
0.4897461, -0.2729492, -0.824707, 15.9756098, 149.146347, -11.8902445, -0.0451514
0.4619141, -0.2636719, -0.8388672, 17.3170738, 146.4634247, -13.4146347, -0.0481727
0.4555664, -0.2646484, -0.8388672, 17.7439022, 143.4146423, -14.3292685, -0.0513619
0.4545898, -0.2739258, -0.8286133, 19.1463413, 135.6097565, -14.8780489, -0.0513619
0.4716797, -0.277832, -0.8032227, 20.3048782, 131.5853729, -15.3658543, -0.0560616
0.4868164, -0.2827148, -0.7939453, 23.6585369, 125.4268341, -16.8292694, -0.0572366
0.519043, -0.2875977, -0.8061523, 26.0365868, 124.0853653, -17.560976, -0.0592508
0.5297852, -0.293457, -0.8217773, 31.1585369, 124.3292694, -19.2073174, -0.0575723
0.5541992, -0.2929688, -0.875, 33.5365868, 125, -19.5121956, -0.057908
0.5727539, -0.2919922, -0.9086914, 38.1097565, 127.9878082, -20.1219521, -0.0616007
0.6064453, -0.2978516, -0.9863281, 41.7682953, 131.0975647, -19.8170738, -0.0639506
0.6293945, -0.2919922, -1.0302734, 42.9878044, 132.6829224, -19.8170738, -0.0592508
0.6650391, -0.2807617, -1.0932617, 45.4268303, 136.1585388, -18.9634151, -0.0505226
0.6845703, -0.2714844, -1.1020508, 46.1585388, 138.1097565, -18.4146347, -0.0451514
0.7304688, -0.2431641, -1.0825195, 48.2926826, 141.4024353, -17.7439022, -0.0417945
0.7675781, -0.2133789, -1.0371094, 49.1463432, 143.2926788, -17.439024, -0.0365911
0.7739258, -0.1992188, -1.0136719, 50.9756126, 147.8048859, -17.7439022, -0.026688
0.7729492, -0.1767578, -0.9726562, 51.4024391, 150.3048859, -17.9268303, -0.0176242
0.7626953, -0.1689453, -0.9584961, 50.9146347, 155.36586, -18.780489, -0.0099031
0.7246094, -0.1669922, -0.9282227, 49.1463432, 158.2926941, -20.3048782, -0.0070497
0.6972656, -0.1728516, -0.9165039, 47.9268303, 158.7804871, -20.8536587, -0.0035248
0.6533203, -0.1879883, -0.8916016, 45.4268303, 157.2561035, -21.4634151, 0.0011749
0.6313477, -0.1972656, -0.8706055, 44.0853653, 155.6707306, -21.4634151, -0.0015106
0.6074219, -0.2167969, -0.8374023, 42.2560997, 152.0121918, -21.2195129, -0.0011749
0.6005859, -0.2260742, -0.828125, 41.8902435, 150.7317047, -21.2195129, -0.0045319
0.5981445, -0.2255859, -0.8393555, 41.2195129, 149.2682953, -21.2195129, 0.0011749
0.6225586, -0.2143555, -0.9082031, 40.4268303, 149.0853729, -21.1585369, 0.0045319
0.6396484, -0.2001953, -0.9697266, 37.1951218, 150, -21.6463413, 0.0072175
0.6938477, -0.1743164, -1.1333008, 33.9634171, 150.5487823, -21.8902435, 0.0072175
0.722168, -0.1591797, -1.2109375, 24.3902435, 151.9512177, -21.3414631, -0.0001678
0.7890625, -0.137207, -1.2783203, 13.2317076, 151.8292694, -19.8170738, -0.0068818
0.828125, -0.1220703, -1.2504883, 8.0487804, 151.1585388, -18.7195129, -0.0119173
0.9160156, -0.105957, -1.0991211, 1.2804878, 148.7195129, -17.3170738, -0.0169528
0.9580078, -0.0957031, -1.0053711, -0.3048781, 148.0487823, -17.0121956, -0.0216526
1.0200195, -0.0854492, -0.8642578, -0.5487805, 151.0365906, -17.6219521, -0.0270237
1.0234375, -0.0834961, -0.8359375, -0.2439024, 154.2073212, -18.5975609, -0.0330663
0.9794922, -0.0908203, -0.8354492, -0.7317073, 161.9512177, -20.6707325, -0.0347448
0.8808594, -0.1411133, -0.8515625, -2.7439024, 164.6341553, -21.7073174, -0.0359197
0.8305664, -0.1831055, -0.8461914, -6.7073174, 163.4146423, -22.2560978, -0.0345769
0.7436523, -0.2768555, -0.793457, -8.1097565, 159.7561035, -21.8292694, -0.0370947
0.7202148, -0.3173828, -0.7583008, -7.6219516, 150.36586, -20.4878044, -0.0317235
0.6987305, -0.3828125, -0.6850586, -2.1341465, 142.0121918, -19.6951218, -0.0330663
0.7036133, -0.3935547, -0.659668, 1.9512196, 139.5121918, -19.6341476, -0.0352483
0.7177734, -0.3920898, -0.6601562, 10.6707315, 138.0487823, -20.2439022, -0.0411231
0.7368164, -0.3813477, -0.6904297, 14.4512196, 138.4756165, -21.0365868, -0.0433051
0.7651367, -0.3520508, -0.7739258, 19.6341476, 139.0243988, -22.8048782, -0.0466621
0.7910156, -0.3378906, -0.8256836, 20.3658543, 138.6585388, -23.780489, -0.051194
0.8417969, -0.3164062, -0.8979492, 20.3658543, 134.9390259, -25.5487804, -0.047837
0.9023438, -0.3061523, -0.902832, 20, 132.4390259, -26.0975609, -0.047837
0.9389648, -0.2993164, -0.8847656, 19.7560978, 127.68293, -26.8902454, -0.04448
0.9951172, -0.2792969, -0.84375, 20.7317085, 127.0121994, -27.560976, -0.0458228
1.0185547, -0.2700195, -0.8500977, 23.1707325, 130.6707306, -28.9634151, -0.0382696
1.03125, -0.2407227, -0.9423828, 25.2439022, 139.3292694, -30.6707325, -0.0283665
1.027832, -0.2280273, -1.0195312, 25.2439022, 144.5731812, -31.1585369, -0.018967
0.9985352, -0.2036133, -1.1601562, 21.8902435, 152.3780518, -31.5243912, -0.0169528
0.9956055, -0.1977539, -1.1948242, 19.2682934, 153.4146423, -31.1585369, -0.0119173
0.9892578, -0.1972656, -1.1547852, 14.0243902, 151.4634247, -29.5731716, -0.0045319
0.9970703, -0.1992188, -1.0913086, 12.6219511, 149.3902435, -28.7195129, -0.002182
1.0244141, -0.199707, -0.9311523, 13.3536587, 147.1341553, -26.7073174, 0.0018463
1.046875, -0.1977539, -0.8164062, 15.1219511, 148.2926788, -26.4024391, 0.0031891
1.0410156, -0.1977539, -0.7929688, 18.8414631, 154.146347, -27.1951218, 0.0085603
0.9882812, -0.2001953, -0.8188477, 19.8170738, 157.5, -28.2317085, 0.0137636
0.9614258, -0.2070312, -0.8457031, 19.4512196, 161.2804871, -30.1829281, 0.0226596
0.8881836, -0.2207031, -0.8808594, 15.9756098, 159.0243988, -30.3048782, 0.0253452
0.8647461, -0.2290039, -0.8847656, 14.0243902, 155.5487823, -29.8170738, 0.0258488
0.8447266, -0.234375, -0.8583984, 11.280488, 147.8048859, -27.8658543, 0.01561
0.8530273, -0.237793, -0.8325195, 11.1585369, 144.5121918, -26.6463413, -0.0031891
0.9047852, -0.2207031, -0.7788086, 11.8902445, 139.8170776, -25.1829281, -0.0102388
0.9516602, -0.2016602, -0.7519531, 12.8048782, 139.2073212, -25.2439022, -0.005539
0.9741211, -0.1933594, -0.746582, 13.7195129, 138.9634247, -26.1585369, -0.0048676
0.9946289, -0.1826172, -0.7714844, 13.2317076, 139.2073212, -27.0121956, 0.0035248
0.9985352, -0.1826172, -0.7851562, 11.280488, 139.0243988, -28.5975609, 0.030045
0.9858398, -0.2021484, -0.8037109, 9.6951218, 137.9878082, -29.0243912, 0.0605936
0.9746094, -0.21875, -0.8017578, 6.890244, 134.3902435, -29.2682934, 0.0971847
0.9643555, -0.253418, -0.7670898, 5.7317076, 130.2439117, -28.5365868, 0.1206836
0.9638672, -0.2666016, -0.7436523, 6.4024391, 128.4146423, -28.0487804, 0.1193408
0.9648438, -0.2822266, -0.6982422, 9.4512196, 126.646347, -27.5, 0.0948348
0.9619141, -0.2802734, -0.6865234, 11.219512, 126.7073212, -27.9268303, 0.0693217
0.9506836, -0.2719727, -0.690918, 14.8780489, 127.1341476, -29.2073174, 0.0381018
0.9291992, -0.2573242, -0.7324219, 15.9146347, 127.3780518, -29.8780499, 0.0082246
0.9179688, -0.2553711, -0.7563477, 15.7926836, 126.2804871, -31.4024391, -0.0149386
0.9135742, -0.2412109, -0.7875977, 14.8780489, 124.6341476, -31.8292694, -0.0412909
0.925293, -0.2392578, -0.7973633, 12.7439032, 120.9756088, -32.0121956, -0.0619364
0.9511719, -0.2348633, -0.7890625, 11.8902445, 119.3292694, -32.1341476, -0.0740215
0.9692383, -0.2382812, -0.78125, 11.341464, 116.3414688, -32.6829262, -0.0757
1.0009766, -0.2460938, -0.7504883, 11.9512196, 115.36586, -33.1097565, -0.0793927
1.0058594, -0.2519531, -0.7353516, 12.5, 115.9756088, -33.4146347, -0.0807355
1.0083008, -0.2548828, -0.7197266, 14.0243902, 118.0487823, -33.4146347, -0.0797284
1, -0.2543945, -0.7192383, 14.8780489, 118.7195129, -33.5975609, -0.0840925
0.9785156, -0.2426758, -0.7231445, 15.1829271, 120, -34.3292694, -0.0887922
0.9526367, -0.2397461, -0.7436523, 15.3658543, 120, -34.9390259, -0.0877852
0.9428711, -0.2353516, -0.7495117, 14.0243902, 119.0243912, -35.3658562, -0.0837568
0.9326172, -0.2421875, -0.7514648, 13.5975609, 117.9268341, -35.7317085, -0.0807355
0.9321289, -0.2514648, -0.7421875, 12.0731707, 115.7317123, -36.2195129, -0.0726787
0.9389648, -0.2646484, -0.7163086, 11.9512196, 115.0609818, -36.5853653, -0.0605936
0.9453125, -0.2700195, -0.6992188, 12.0731707, 114.5121994, -37.0731697, -0.0468299
0.9594727, -0.2749023, -0.6928711, 13.1097565, 115.6707306, -37.8658562, -0.043473
0.9604492, -0.2797852, -0.6982422, 13.4756098, 116.8292694, -38.0487823, -0.0276951
0.9677734, -0.2851562, -0.7358398, 13.780488, 118.7195129, -38.6585388, -0.0186313
0.9604492, -0.2875977, -0.7583008, 13.1097565, 119.3292694, -38.7195129, -0.0149386
0.9594727, -0.2841797, -0.7705078, 11.9512196, 119.2073212, -38.4146347, -0.0142672
0.9604492, -0.2734375, -0.7475586, 11.219512, 119.0243912, -38.1707344, -0.0182956
0.9672852, -0.2631836, -0.730957, 11.4634151, 119.0243912, -37.5609779, -0.0216526
0.9760742, -0.2485352, -0.6943359, 11.6463413, 118.9024429, -37.5, -0.0273594
0.9755859, -0.2397461, -0.6816406, 12.6219511, 120.4878082, -37.7439041, -0.0243381
0.9775391, -0.2299805, -0.6835938, 12.7439032, 121.0975647, -37.5609779, -0.0209812
0.9790039, -0.2250977, -0.6850586, 12.4390249, 122.1341476, -37.7439041, -0.0229953
0.9663086, -0.2255859, -0.6938477, 10.4878054, 120.9756088, -37.7439041, -0.0243381
0.9663086, -0.2294922, -0.6943359, 9.3292685, 120.1219559, -37.3780479, -0.0287022
0.965332, -0.2329102, -0.684082, 7.7439027, 117.86586, -36.5853653, -0.0285344
0.9702148, -0.2290039, -0.6733398, 7.1341467, 116.4634171, -35.9756088, -0.0298772
0.9770508, -0.2207031, -0.6489258, 6.5243902, 115.36586, -35.0609779, -0.0354162
0.9785156, -0.2109375, -0.6357422, 6.4634147, 114.6951218, -35.1219521, -0.0357519
0.980957, -0.1982422, -0.6381836, 5.7317076, 114.0853653, -34.4512215, -0.033402
0.9770508, -0.1928711, -0.6425781, 5.0609756, 113.5975647, -34.2073174, -0.0360876
0.9799805, -0.1938477, -0.6455078, 2.9268293, 111.9512253, -33.9634171, -0.0397803
0.9814453, -0.2041016, -0.6445312, 1.5243902, 110.3048782, -33.9634171, -0.04448
0.9833984, -0.2138672, -0.6401367, -0.6097561, 107.3170776, -32.8048782, -0.0451514
0.9868164, -0.2226562, -0.6206055, -2.804878, 105.2439041, -31.8902454, -0.0446479
0.9921875, -0.2202148, -0.6098633, -2.8658538, 104.6341476, -31.4634151, -0.0397803
1.0009766, -0.2148438, -0.5917969, -2.6219513, 103.4756088, -31.280489, -0.0372625
1.0004883, -0.2197266, -0.5874023, -2.3170731, 103.1707306, -31.7073174, -0.0384375
0.9975586, -0.2246094, -0.5874023, -2.2560976, 102.1951218, -31.8292694, -0.0417945
0.9902344, -0.2387695, -0.6030273, -2.5, 101.1585388, -31.7682934, -0.0458228
0.9892578, -0.2382812, -0.605957, -3.3536587, 99.0853653, -30.9146347, -0.0471656
0.9858398, -0.2407227, -0.6040039, -3.8414636, 98.1097565, -30.5487804, -0.0471656
0.9868164, -0.2368164, -0.6015625, -5.1219511, 96.4634171, -29.7560978, -0.0377661
0.9892578, -0.2314453, -0.5844727, -5.3658538, 95.9756088, -29.3292694, -0.0229953
0.9921875, -0.2304688, -0.5766602, -5.4878049, 94.5731735, -29.2682934, -0.0243381
0.9951172, -0.2138672, -0.5737305, -5.8536587, 93.0487823, -28.9634151, -0.0287022
0.9960938, -0.2070312, -0.565918, -5.9756098, 92.0121994, -29.0243912, -0.0270237
1.0024414, -0.190918, -0.5605469, -6.890244, 89.6341476, -28.4146347, -0.0283665
1.0068359, -0.1865234, -0.5610352, -7.3780489, 88.6585388, -28.1707325, -0.0276951
1.0131836, -0.1972656, -0.5673828, -9.0243902, 86.3414688, -27.8658543, -0.0216526
1.0214844, -0.2172852, -0.5761719, -9.6951218, 85, -27.560976, -0.018967
1.0224609, -0.2270508, -0.5786133, -10.4878054, 83.4756088, -27.0731716, -0.0115816
1.0244141, -0.2470703, -0.5830078, -10.3658543, 82.9268341, -26.4634151, -0.0109102
1.0224609, -0.2480469, -0.5776367, -9.5731707, 82.2560959, -25.8536587, -0.0045319
1.0224609, -0.2441406, -0.5712891, -8.780488, 82.2560959, -25.7926826, 0.0139315
1.0214844, -0.237793, -0.5717773, -7.3780489, 81.9512177, -25.6707325, 0.0193027
1.0239258, -0.2285156, -0.5664062, -6.5853658, 80.9146347, -25.3658543, 0.0146029
1.0234375, -0.2265625, -0.5654297, -6.890244, 80.2439041, -25.3048782, 0.0152743
1.0258789, -0.2158203, -0.5546875, -7.6829271, 78.3536606, -24.7560978, 0.0152743
1.0229492, -0.2114258, -0.5561523, -8.4146347, 77.4390259, -24.3902435, 0.0146029
1.0209961, -0.1943359, -0.5546875, -9.8780489, 76.2195129, -23.6585369, 0.0115816
1.0151367, -0.1748047, -0.5493164, -10.4268293, 75.4878082, -23.1097565, 0.0045319
1.0146484, -0.1635742, -0.5507812, -11.0365858, 74.2073212, -21.8292694, -0.0063783
1.0136719, -0.1479492, -0.5512695, -11.4024391, 73.1707306, -21.5243912, -0.0154421
1.0166016, -0.140625, -0.5483398, -11.5853662, 70.9756088, -20.2439022, -0.0203098
1.0249023, -0.137207, -0.5385742, -11.9512196, 69.6951218, -19.6951218, -0.0193027
1.0219727, -0.1391602, -0.5322266, -13.2926836, 67.5609741, -18.6585369, -0.0176242
1.0239258, -0.1479492, -0.5083008, -14.0853662, 65.8536606, -17.6829281, -0.018967
1.0244141, -0.1464844, -0.503418, -14.0853662, 65.2439041, -17.5, -0.0209812
1.0136719, -0.1586914, -0.4941406, -14.4512196, 63.5365868, -17.2560978, -0.0176242
1.0073242, -0.1655273, -0.4995117, -15, 62.5609779, -17.1951218, -0.0031891
0.9921875, -0.1860352, -0.5131836, -15.6097565, 59.7560997, -16.5853653, 0.0119173
0.9833984, -0.2119141, -0.512207, -16.5243912, 58.2926826, -16.2195129, 0.0132601
0.9863281, -0.2202148, -0.5107422, -16.9512196, 55.7926826, -14.9390249, -0.0171206
0.984375, -0.2172852, -0.5029297, -17.2560978, 54.5731735, -13.9024391, -0.0458228
0.9853516, -0.2138672, -0.4980469, -15.5487804, 52.9268303, -13.1707315, -0.0616007
0.9863281, -0.1928711, -0.4956055, -14.5731707, 52.1951218, -13.2317076, -0.0527047
0.9926758, -0.1855469, -0.4985352, -12.4390249, 51.0365868, -12.9878054, -0.0451514
0.9946289, -0.1694336, -0.5019531, -11.7073174, 49.0853653, -12.8658543, -0.0236667
0.9980469, -0.1630859, -0.5083008, -11.8902445, 47.9268303, -12.1951218, 0.0038605
1.0039062, -0.1640625, -0.5166016, -12.8048782, 45.5487823, -11.5243902, 0.0340734
1.0024414, -0.1723633, -0.5209961, -13.5365858, 43.9634171, -11.4634151, 0.0535439
1.0083008, -0.1879883, -0.5146484, -14.6951227, 42.1341476, -10.5487804, 0.0535439
0.9960938, -0.2084961, -0.5087891, -14.7560978, 41.4634171, -10.7317076, 0.0406195
0.9912109, -0.2128906, -0.5053711, -14.3902445, 39.9390259, -9.8780489, 0.0172885
0.984375, -0.2250977, -0.5004883, -14.1463413, 39.6341476, -9.5121956, -0.012253
0.9790039, -0.2250977, -0.5, -13.0487804, 38.3536606, -9.0853662, -0.0318914
0.9677734, -0.2280273, -0.5019531, -12.4390249, 37.2560997, -8.9024391, -0.040116
0.9643555, -0.222168, -0.5053711, -12.0731707, 34.9390259, -8.9024391, -0.0485084
0.9619141, -0.2124023, -0.5068359, -12.0121956, 32.9878044, -8.0487804, -0.056733
0.9609375, -0.2041016, -0.5078125, -12.5, 32.0731697, -7.3780489, -0.0558938
0.9599609, -0.1845703, -0.5043945, -12.5, 30.8536587, -6.3414636, -0.0555581
0.9624023, -0.175293, -0.5043945, -12.9878054, 29.8780499, -6.280488, -0.0527047
0.9677734, -0.1665039, -0.4985352, -13.1707315, 28.2926826, -5.5487804, -0.054551
0.9741211, -0.1704102, -0.4990234, -13.7195129, 26.9512196, -5.2439027, -0.0540475
0.9765625, -0.1743164, -0.496582, -14.7560978, 24.8780499, -4.5121951, -0.0498512
0.9741211, -0.1870117, -0.4902344, -15.1829271, 23.8414631, -4.2682929, -0.0458228
0.96875, -0.1914062, -0.484375, -16.3414631, 22.3780499, -3.3536587, -0.0498512
0.9570312, -0.1870117, -0.4814453, -16.2195129, 22.2560978, -2.9268293, -0.0592508
0.9550781, -0.1875, -0.4785156, -16.0975609, 21.280489, -2.195122, -0.0661326
0.9560547, -0.1904297, -0.4960938, -16.1585369, 18.9634151, -2.6219513, -0.0699931
0.9492188, -0.1977539, -0.5024414, -15.9756098, 17.6219521, -2.3780489, -0.0626078
0.9521484, -0.2099609, -0.5024414, -16.7073174, 15.3048782, -2.0731707, -0.051194
0.9560547, -0.2177734, -0.496582, -16.7073174, 14.2073174, -1.6463414, -0.0384375
0.9672852, -0.2299805, -0.4873047, -15.7926836, 13.1097565, -1.097561, -0.0364233
0.9648438, -0.234375, -0.4887695, -15.2439032, 12.6219511, -0.8536586, -0.0377661
0.9619141, -0.2333984, -0.4990234, -14.2073174, 12.1341467, -0.4878049, -0.0370947
0.9575195, -0.2241211, -0.5249023, -14.0853662, 12.1341467, 0.0609756, -0.0350805
0.9580078, -0.2172852, -0.5351562, -14.2682934, 11.4024391, 0.6707317, -0.0337377
0.9750977, -0.2055664, -0.546875, -14.8780489, 9.6951218, 1.3414634, -0.0263523
0.9794922, -0.2041016, -0.550293, -15.1219511, 8.5365858, 1.402439, -0.0276951
0.9902344, -0.1953125, -0.5478516, -15.1219511, 6.6463418, 1.7073171, -0.0193027
0.9975586, -0.1967773, -0.5356445, -15, 6.0365853, 1.8902439, -0.0045319
1.0078125, -0.2055664, -0.5097656, -15.060976, 5.4878049, 2.3170731, 0.0105745
1.0117188, -0.2099609, -0.5, -15, 5.3658538, 2.1341465, 0.023331
0.9936523, -0.2075195, -0.4833984, -15.4878054, 4.8780489, 2.4390244, 0.0381018
0.9750977, -0.2148438, -0.4916992, -15.7317076, 3.9024391, 2.5, 0.0552224
0.965332, -0.2119141, -0.4892578, -16.5243912, 1.8902439, 3.3536587, 0.0815747
0.9570312, -0.2202148, -0.4814453, -16.8902435, 0.3048781, 3.5975611, 0.1028916
0.9633789, -0.2260742, -0.4780273, -16.5853653, -2.6829269, 4.5121951, 0.1096056
0.9677734, -0.2211914, -0.4672852, -15.3048782, -5.3658538, 4.8780489, 0.0978561
0.9794922, -0.2197266, -0.465332, -14.2073174, -6.5853658, 5.1219511, 0.0803998
1, -0.2143555, -0.4736328, -13.2926836, -8.2317076, 5.3048782, 0.0562295
1.0009766, -0.2138672, -0.4873047, -12.9268293, -8.5975609, 5.0609756, 0.0433051
1.0014648, -0.2143555, -0.5019531, -13.5365858, -9.8170738, 5.3048782, 0.023331
1.0004883, -0.2109375, -0.503418, -14.0243902, -10.4268293, 5.9146342, 0.0087282
0.9907227, -0.199707, -0.5014648, -14.5121956, -11.7682934, 7.1341467, -0.0129244
0.9941406, -0.1811523, -0.4907227, -14.7560978, -12.5, 7.6829271, -0.0303807
0.9951172, -0.1733398, -0.4946289, -14.3292685, -14.5121956, 8.2926826, -0.0307164
1.0048828, -0.1699219, -0.5112305, -14.5121956, -15.7317076, 8.3536587, -0.04448
1.0141602, -0.1738281, -0.519043, -16.4024391, -17.6829281, 8.4756098, -0.0619364
1.0195312, -0.184082, -0.5205078, -18.0487804, -20.3048782, 8.841464, -0.0651255
1.0185547, -0.1884766, -0.5136719, -18.9024391, -21.4024391, 9.4512196, -0.0594186
1.0170898, -0.1918945, -0.4897461, -19.3902435, -23.0487804, 10.5487804, -0.0426337
1.0219727, -0.190918, -0.4804688, -19.0243912, -23.8414631, 10.7926836, -0.0344091
1.0170898, -0.1835938, -0.4682617, -18.6585369, -25.3658543, 10.9146347, -0.0377661
1.0126953, -0.1845703, -0.472168, -18.8414631, -26.280489, 10.5487804, -0.0384375
0.9960938, -0.199707, -0.4741211, -20.3658543, -29.5731716, 11.0975609, -0.0441444
0.9912109, -0.2119141, -0.4746094, -21.8292694, -31.341465, 11.6463413, -0.0552224
0.987793, -0.2182617, -0.4711914, -23.1707325, -34.5121956, 12.5, -0.0599222
0.9912109, -0.2202148, -0.4848633, -23.4756107, -35.8536606, 12.6829271, -0.0538796
0.9990234, -0.2202148, -0.4956055, -23.1707325, -38.1707344, 12.8048782, -0.0441444
1.0136719, -0.2182617, -0.5239258, -22.8048782, -39.8170738, 12.7439032, -0.0475013
1.015625, -0.2167969, -0.5371094, -23.1097565, -40.5487823, 13.0487804, -0.064622
1.0195312, -0.2124023, -0.5512695, -23.5365868, -42.5, 13.6585369, -0.0807355
1.0224609, -0.2124023, -0.5527344, -23.5975609, -43.2317085, 13.9024391, -0.082414
1.0253906, -0.2099609, -0.5351562, -23.8414631, -44.5121956, 14.5731707, -0.0861067
1.0244141, -0.2060547, -0.5234375, -24.0853672, -45.1219521, 14.4512196, -0.0897993
1.012207, -0.2021484, -0.512207, -24.0243912, -46.4634171, 14.3292685, -0.096849
0.9882812, -0.199707, -0.5097656, -24.3292694, -47.0121956, 14.3292685, -0.1099413
0.9780273, -0.203125, -0.5102539, -25.6097565, -49.4512215, 14.5121956, -0.1143053
0.9658203, -0.2060547, -0.5053711, -26.7682934, -50.6097565, 14.7560978, -0.0988632
0.9643555, -0.2124023, -0.5, -28.3536587, -54.6951218, 15.3658543, -0.0632792
0.9760742, -0.2255859, -0.4921875, -29.1463413, -59.1463432, 15.6707325, -0.0186313
0.9780273, -0.2280273, -0.4912109, -29.2682934, -60.9756126, 15.6707325, 0.0159457
0.9833984, -0.2304688, -0.4916992, -29.1463413, -63.6585388, 15.7926836, 0.0391089
0.9916992, -0.2294922, -0.5024414, -28.780489, -64.4512177, 16.2195129, 0.0439765
0.9921875, -0.2324219, -0.5332031, -29.2682934, -65.4878082, 16.7073174, 0.0260166
0.9907227, -0.2299805, -0.5639648, -29.4512196, -66.2195129, 17.0121956, 0.0038605
0.9868164, -0.2265625, -0.574707, -30.1219521, -68.2926865, 18.0487804, -0.0216526
0.9926758, -0.2055664, -0.5712891, -30, -69.3902435, 18.6585369, -0.0431373
0.9951172, -0.2011719, -0.5576172, -30, -72.2560959, 19.2682934, -0.0548867
1.0014648, -0.1831055, -0.527832, -29.8170738, -73.4756088, 19.5121956, -0.0632792
0.9931641, -0.1811523, -0.5166016, -30.6097565, -75.7317123, 20, -0.0622721
0.987793, -0.1748047, -0.503418, -31.8292694, -77.6219559, 20.3048782, -0.0471656
0.9785156, -0.1723633, -0.5097656, -32.8048782, -79.0853653, 20.4268303, -0.0193027
0.9711914, -0.1806641, -0.527832, -35.1829262, -82.3170776, 20.8536587, 0.0015106
0.972168, -0.1904297, -0.5429688, -36.5853653, -84.8170776, 20.7926826, 0.0253452
0.972168, -0.2143555, -0.5581055, -38.1097565, -89.8170776, 21.2195129, 0.033402
0.9882812, -0.2416992, -0.543457, -38.2317085, -92.3170776, 21.7073174, 0.0387732
0.9936523, -0.2509766, -0.5322266, -37.8048782, -95.4268341, 22.2560978, 0.0379339
0.9936523, -0.2626953, -0.5102539, -36.8292694, -96.0975647, 22.6829281, 0.0297093
0.9873047, -0.2578125, -0.5097656, -34.9390259, -95.7926865, 23.0487804, 0.0186313
0.9697266, -0.2421875, -0.5170898, -33.841465, -95.6707306, 23.1707325, 0.0092317
0.9624023, -0.2324219, -0.5317383, -32.5609779, -96.7073212, 23.780489, 0.0038605
0.9570312, -0.2094727, -0.5717773, -33.2317085, -99.5731735, 23.780489, -0.0023499
0.9599609, -0.2060547, -0.5952148, -34.6951218, -101.7073212, 23.9024391, -0.0041962
0.9746094, -0.2138672, -0.6357422, -37.5609779, -104.8170776, 23.780489, -0.0008392
0.9868164, -0.2192383, -0.644043, -39.0243912, -106.0365906, 23.8414631, -0.0015106
1.0131836, -0.2338867, -0.6420898, -40.4878044, -107.8658524, 23.7195129, -0.0050355
1.0268555, -0.2426758, -0.6196289, -40.4878044, -107.9268341, 24.0853672, -0.0112459
1.0258789, -0.2397461, -0.6088867, -39.2682953, -107.3170776, 24.3292694, -0.0129244
1.0136719, -0.234375, -0.5908203, -38.6585388, -106.8902435, 24.3292694, -0.0172885
1.0029297, -0.2270508, -0.5849609, -38.1707344, -106.646347, 24.6951218, -0.0130922
0.9833984, -0.2158203, -0.5947266, -38.2926826, -106.8902435, 24.5121956, 0.0003357
0.9760742, -0.2099609, -0.6030273, -40.0609779, -107.8048782, 25.1219521, 0.0052033
0.9672852, -0.2055664, -0.6274414, -42.4390259, -109.9390259, 25.3658543, 0.0025177
0.9682617, -0.1972656, -0.6313477, -43.3536606, -111.646347, 25.4268303, -0.0001678
0.9785156, -0.206543, -0.6411133, -45.4878044, -114.9390259, 25.4268303, -0.0099031
0.9902344, -0.2133789, -0.6420898, -46.0975609, -116.5853653, 25.4268303, -0.0182956
1.0141602, -0.2172852, -0.6474609, -47.0121956, -117.9878082, 25.9756107, -0.0246738
1.0249023, -0.2143555, -0.668457, -47.3170738, -117.7439041, 26.2195129, -0.0417945
1.027832, -0.2163086, -0.6801758, -47.6219521, -116.8292694, 26.8292694, -0.057908
1.0273438, -0.2143555, -0.7094727, -48.4146347, -116.7073212, 26.9512196, -0.064622
1.03125, -0.2177734, -0.7143555, -49.6341476, -117.86586, 26.4634151, -0.0602579
1.0302734, -0.2265625, -0.6938477, -50.4268303, -118.9634171, 26.8292694, -0.0649577
1.0307617, -0.2314453, -0.6757812, -50.9756126, -121.7073212, 27.3170738, -0.0659648
1.0288086, -0.2358398, -0.6386719, -51.0975609, -123.1707382, 27.8658543, -0.0486763
1.0239258, -0.2348633, -0.6308594, -50.8536606, -123.4756088, 28.2317085, -0.0068818
1.0175781, -0.2421875, -0.6391602, -50.6707344, -124.146347, 28.1097565, 0.0023499
1.0087891, -0.2382812, -0.6557617, -51.2195129, -125.18293, 28.2926826, -0.0115816
1.0019531, -0.2358398, -0.6777344, -52.6219521, -128.4756165, 28.5365868, -0.0169528
1.003418, -0.2294922, -0.7011719, -53.6585388, -130.5487823, 28.5975609, -0.0238346
1.0048828, -0.2275391, -0.703125, -55.18293, -134.6341553, 28.9634151, -0.0256809
1.0253906, -0.2285156, -0.6860352, -55.7926826, -136.5853729, 29.1463413, -0.0307164
1.0307617, -0.2275391, -0.6728516, -56.0975609, -139.5731812, 29.3292694, -0.0464942
1.0439453, -0.230957, -0.6674805, -56.4634171, -140.7317047, 29.3902454, -0.0553902
1.0507812, -0.2304688, -0.6762695, -56.4024391, -141.9512177, 28.9024391, -0.0663005
1.0498047, -0.2329102, -0.6914062, -56.4024391, -142.9878082, 28.4756107, -0.0703288
1.0424805, -0.237793, -0.7055664, -56.8292694, -143.5365906, 28.6585369, -0.0602579
1.027832, -0.2353516, -0.7270508, -57.6219521, -144.6951294, 29.3902454, -0.0582437
1.0234375, -0.2338867, -0.7373047, -57.9268303, -145.7926788, 30.060976, -0.0555581
1.0195312, -0.2158203, -0.7524414, -57.6219521, -147.7439117, 30.6097565, -0.0451514
1.019043, -0.2021484, -0.7553711, -57.3170738, -148.4756165, 31.0365868, -0.0397803
1.0229492, -0.1933594, -0.7578125, -57.7439041, -150.4268341, 31.4024391, -0.0323949
1.0258789, -0.1904297, -0.7543945, -58.5365868, -151.3414612, 31.0975609, -0.0464942
1.0307617, -0.1948242, -0.7543945, -59.8170738, -153.4756165, 31.0365868, -0.061265
1.0332031, -0.2075195, -0.7504883, -60.9146347, -154.5731812, 30.8536587, -0.0730144
1.0288086, -0.2197266, -0.7509766, -62.3170738, -156.7682953, 30.6097565, -0.0887922
1.0302734, -0.2319336, -0.7583008, -62.8658562, -158.7804871, 30.3658543, -0.0978561
1.0302734, -0.2373047, -0.7646484, -62.9878082, -159.8170776, 30.3048782, -0.1022202
1.0253906, -0.2485352, -0.7739258, -62.1341476, -162.1951294, 30.6097565, -0.0921492
1.0273438, -0.253418, -0.7768555, -61.4024391, -163.2317047, 30.7926846, -0.0605936
1.0229492, -0.2529297, -0.7958984, -60.4268303, -164.8780518, 31.0975609, -0.0236667
1.0209961, -0.2441406, -0.8144531, -60.4878044, -165.3048859, 31.5853672, -0.0001678
1.0224609, -0.2329102, -0.8237305, -59.8780518, -166.3414612, 32.1951218, 0.0139315
1.0253906, -0.2192383, -0.8388672, -59.8780518, -166.7682953, 32.1341476, 0.0112459
1.03125, -0.206543, -0.8383789, -60.6097565, -168.9024506, 32.8048782, -0.0104067
1.0385742, -0.190918, -0.8320312, -61.341465, -170.3048859, 32.8658562, -0.0411231
1.0405273, -0.1865234, -0.8232422, -62.68293, -172.9878082, 32.8658562, -0.0651255
1.0317383, -0.1767578, -0.8081055, -64.1463394, -174.8780518, 32.5, -0.076875
1.0268555, -0.1767578, -0.8115234, -64.4512177, -175.36586, 32.5, -0.082414
1.0180664, -0.1782227, -0.824707, -65.0609741, -176.8902435, 32.5, -0.0800641
1.0102539, -0.1796875, -0.8378906, -65.3658524, -178.0487823, 32.5, -0.0733501
1.0083008, -0.1953125, -0.8691406, -65.7317123, -180.4878082, 32.6219521, -0.0619364
0.9995117, -0.21875, -0.8852539, -66.0975647, -181.8902435, 32.3170738, -0.051194
0.9960938, -0.2324219, -0.8901367, -67.0731735, -184.9390259, 32.4390259, -0.0407874
1.0024414, -0.2563477, -0.8891602, -67.2560959, -186.4024506, 32.5, -0.033402
0.9970703, -0.2680664, -0.8833008, -67.3170776, -187.7439117, 32.6219521, -0.0216526
0.9951172, -0.277832, -0.878418, -67.0731735, -187.9878082, 32.9268303, -0.0119173
0.9926758, -0.2724609, -0.8925781, -65.6097565, -187.6219482, 32.5609779, 0.0050355
0.987793, -0.2592773, -0.9311523, -64.2682953, -187.3170776, 32.1341476, 0.01561
0.9804688, -0.2475586, -0.9560547, -63.9024391, -186.7682953, 32.0121956, 0.0206455
0.9770508, -0.2338867, -0.9995117, -63.9024391, -187.3780518, 32.1341476, 0.023331
0.980957, -0.2324219, -1.0083008, -64.8780518, -188.1707306, 31.9512196, 0.0327306
0.9980469, -0.234375, -0.9838867, -65.8536606, -190.7317047, 31.7682934, 0.0486763
1.0175781, -0.2529297, -0.9233398, -65.9756088, -192.1951294, 32.0121956, 0.0569009
1.0200195, -0.2602539, -0.8974609, -64.9390259, -193.9024506, 31.2195129, 0.0616007
1.0019531, -0.2724609, -0.8789062, -63.9024391, -193.2926941, 30.9146347, 0.0619364
0.987793, -0.2749023, -0.8837891, -60.7317085, -191.1585388, 30.4878063, 0.0609293
0.9501953, -0.2753906, -0.9238281, -59.1463432, -190.1219482, 30.3658543, 0.0589151
0.9331055, -0.2685547, -0.9545898, -56.5853653, -189.0853729, 30.4268303, 0.0555581
0.9052734, -0.2529297, -0.9912109, -55.5487823, -190.5487823, 30.8536587, 0.0468299
0.9003906, -0.2485352, -1.0019531, -55.1219521, -192.3170776, 30.9756107, 0.043473
0.9091797, -0.2294922, -1.0087891, -55.6097565, -195, 31.280489, 0.0347448
0.9204102, -0.2246094, -1.0126953, -55.6707344, -195.7926941, 31.0975609, 0.0273594
0.9414062, -0.2163086, -1.0131836, -55.7317085, -195.5487823, 30.7926846, 0.0426337
0.9555664, -0.215332, -1.0288086, -55.7317085, -194.5731812, 30.8536587, 0.0330663
0.9589844, -0.2182617, -1.0297852, -55.8536606, -192.9878082, 29.8780499, 0.0139315
0.9511719, -0.2250977, -1.0239258, -55.7926826, -192.6219482, 29.9390259, 0.0043641
0.9472656, -0.2255859, -1.0161133, -55.8536606, -192.5609741, 29.8170738, 0.0025177
0.9291992, -0.2250977, -1.0063477, -55.9146347, -192.6829376, 30.1829281, 0.0031891
0.9194336, -0.2211914, -1.0019531, -55.2439041, -191.8902435, 30.3658543, 0.0008392
0.8950195, -0.206543, -0.9975586, -53.9024391, -191.0365906, 30.7317085, -0.0082246
0.8818359, -0.1962891, -0.9970703, -53.5975609, -191.2804871, 30.4878063, -0.0243381
0.8671875, -0.1914062, -1.0117188, -53.9024391, -191.9512177, 30.2439022, -0.04448
0.8569336, -0.1938477, -1.0322266, -54.2682953, -192.0731812, 30, -0.0451514
0.8491211, -0.2070312, -1.0820312, -56.4024391, -193.1707306, 29.5731716, -0.0303807
0.8374023, -0.2202148, -1.1083984, -57.8048782, -193.3536682, 29.3902454, -0.03122
0.8427734, -0.2241211, -1.1044922, -60.6707344, -195.36586, 29.3292694, -0.0290379
0.8500977, -0.2363281, -1.0654297, -61.4024391, -196.8902435, 29.2682934, -0.0317235
0.8535156, -0.2421875, -1.0341797, -60.5487823, -199.3292694, 28.780489, -0.0310521
0.8681641, -0.2597656, -0.9804688, -59.6341476, -200.36586, 28.1707325, -0.0344091
0.8657227, -0.2700195, -0.965332, -56.1585388, -200.9756165, 27.1951218, -0.0481727
0.8422852, -0.2861328, -0.9541016, -52.8048782, -199.7561035, 26.0365868, -0.0686503
0.8232422, -0.2895508, -0.9526367, -50.8536606, -199.512207, 25.6707325, -0.0713359
0.7836914, -0.2949219, -0.9550781, -47.3780518, -199.4512177, 24.2073174, -0.0622721
0.7612305, -0.2851562, -0.9594727, -45.4268303, -199.3292694, 23.7195129, -0.0587472
0.715332, -0.2373047, -0.9946289, -42.7439041, -199.4512177, 22.3170738, -0.0525368
0.684082, -0.1635742, -1.0634766, -41.6463432, -199.6341553, 21.7073174, -0.0411231
0.6762695, -0.1303711, -1.097168, -41.7073174, -200.6097565, 21.0975609, -0.0246738
0.6757812, -0.0966797, -1.1357422, -42.5609779, -202.7439117, 21.1585369, -0.0129244
0.6914062, -0.0976562, -1.1313477, -45.6707344, -207.9878082, 21.3414631, -0.0125887
0.7280273, -0.1313477, -1.1103516, -47.1341476, -210.1829376, 22.0121956, -0.0139315
0.7490234, -0.1552734, -1.1069336, -48.5975609, -212.012207, 22.7439022, -0.0075532
0.7749023, -0.2109375, -1.1044922, -48.5365868, -209.512207, 22.9878063, -0.0152743
0.7773438, -0.2275391, -1.1064453, -47.7439041, -207.012207, 23.1097565, -0.0238346
0.7705078, -0.2485352, -1.0888672, -45.2439041, -203.5365906, 22.7439022, -0.0273594
0.7597656, -0.2456055, -1.0673828, -43.7804871, -202.5, 22.1951218, -0.0240024
0.7290039, -0.2338867, -1.0356445, -40.6707344, -202.012207, 20.6707325, -0.024506
0.6855469, -0.2124023, -1.0371094, -40.1219521, -201.2804871, 19.6341476, -0.0340734
0.6621094, -0.1987305, -1.0527344, -38.6585388, -199.9390259, 17.9878044, -0.0397803
0.6132812, -0.184082, -1.0839844, -39.1463432, -199.512207, 17.6219521, -0.04448
0.5996094, -0.1816406, -1.0883789, -40.4878044, -201.2195129, 17.1341476, -0.0438087
0.5864258, -0.1801758, -1.0561523, -42.0731735, -206.1585388, 17.0731716, -0.0438087
0.5859375, -0.1806641, -1.0356445, -41.8902435, -208.7804871, 16.6463413, -0.0417945
0.5849609, -0.1835938, -1.0039062, -40.7317085, -211.7682953, 16.3414631, -0.051194
0.5834961, -0.1826172, -1.003418, -39.2682953, -212.012207, 16.280489, -0.0538796
0.574707, -0.1972656, -1.0268555, -36.6463432, -210.9146423, 16.2195129, -0.0520333
0.5712891, -0.1953125, -1.0458984, -35.9146347, -210.0609741, 15.9756098, -0.0344091
0.5581055, -0.1845703, -1.0976562, -35.3048782, -208.7804871, 15.9756098, -0.0357519
0.5512695, -0.1577148, -1.1894531, -35.4268303, -207.9878082, 15.6707325, -0.0505226
0.5473633, -0.1464844, -1.2387695, -37.0731697, -206.3414612, 16.5853653, -0.0552224
0.5546875, -0.1240234, -1.2729492, -38.841465, -206.0365906, 17.6219521, -0.0632792
0.5727539, -0.1201172, -1.2548828, -42.0731735, -208.6585388, 20.060976, -0.0746929
0.6186523, -0.1118164, -1.1713867, -44.0853653, -211.1585388, 20.6707325, -0.0914778
0.6357422, -0.1015625, -1.1181641, -44.2682953, -210.5487823, 20.3658543, -0.1038987
0.6279297, -0.0859375, -1.0419922, -44.3292694, -205.2439117, 17.6219521, -0.1190051
0.6074219, -0.0800781, -1.019043, -44.2682953, -201.5853729, 16.7073174, -0.1230335
0.5341797, -0.1005859, -1.0053711, -44.9390259, -197.3170776, 15.7317076, -0.1008774
0.4995117, -0.1186523, -1.0141602, -46.0975609, -197.1341553, 15.6707325, -0.0491798
0.4394531, -0.1713867, -1.065918, -47.7439041, -199.512207, 16.7073174, 0.0025177
0.4072266, -0.2177734, -1.1313477, -48.2317085, -201.2195129, 17.8658543, 0.0387732
0.4101562, -0.2299805, -1.1450195, -48.1097565, -203.9634247, 18.9634151, 0.0716716
0.4291992, -0.2368164, -1.1337891, -47.3780518, -205.0609741, 19.2682934, 0.0814069
0.4477539, -0.2329102, -1.1210938, -43.7195129, -207.3780518, 18.9634151, 0.0889601
0.4819336, -0.2138672, -1.0830078, -38.6585388, -207.3170776, 17.9878044, 0.1028916
0.4980469, -0.2016602, -1.0678711, -36.5243912, -206.4024506, 17.6829281, 0.087953
0.5161133, -0.1821289, -1.0444336, -33.841465, -201.5243988, 16.280489, 0.0589151
0.5112305, -0.1689453, -1.0385742, -33.4146347, -198.5975647, 15.7317076, 0.0419623
0.4760742, -0.1318359, -1.0375977, -32.9268303, -193.0487823, 13.9024391, 0.0226596
0.4541016, -0.1118164, -1.0336914, -32.8048782, -191.2804871, 12.8658543, 0.0065461
0.394043, -0.0844727, -0.9921875, -33.2317085, -190.36586, 11.341464, -0.0052033
0.34375, -0.0864258, -0.965332, -33.841465, -191.8902435, 10.5487804, -0.018967
0.3212891, -0.0913086, -0.9765625, -35.0609779, -195.36586, 9.7560978, -0.0290379
0.2841797, -0.0942383, -1.0566406, -36.2195129, -196.4024506, 10, -0.0360876
0.2680664, -0.0966797, -1.1010742, -40, -196.8292694, 10.9146347, -0.0387732
0.253418, -0.0961914, -1.1357422, -43.6585388, -197.86586, 12.9878054, -0.0468299
0.269043, -0.0986328, -1.1113281, -43.3536606, -199.0853729, 14.0853662, -0.0538796
0.3139648, -0.0991211, -1.019043, -40.3658562, -203.2926941, 14.1463413, -0.0572366
0.3310547, -0.0976562, -0.9804688, -37.6219521, -204.4512177, 13.5975609, -0.0558938
0.3637695, -0.1040039, -0.9433594, -33.7804871, -203.2926941, 12.2560978, -0.0525368
0.3642578, -0.1015625, -0.9560547, -33.1097565, -201.0975647, 11.4024391, -0.0377661
0.3305664, -0.0942383, -1.0175781, -34.6341476, -194.8170776, 10.4268293, -0.0229953
0.2910156, -0.0883789, -1.0957031, -35.9146347, -191.4024506, 10.3048782, -0.0102388
0.2680664, -0.0864258, -1.1259766, -39.0243912, -188.9634247, 10.9146347, 0.0105745
0.2397461, -0.0844727, -1.1469727, -40, -189.3902435, 11.5853662, 0.024506
0.2397461, -0.0834961, -1.1269531, -39.4512215, -193.3536682, 13.9634151, 0.0344091
0.2529297, -0.0820312, -1.0268555, -36.5243912, -198.0487823, 16.4024391, 0.0360876
0.2666016, -0.0756836, -0.9707031, -33.841465, -198.9634247, 17.1341476, 0.0394446
0.2788086, -0.0444336, -0.9121094, -30.1219521, -196.4634247, 15.9756098, 0.036759
0.2724609, -0.0258789, -0.9179688, -29.6951218, -193.3536682, 14.9390249, 0.0293736
0.2280273, -0.0053711, -0.9760742, -33.1707306, -187.1951294, 13.2926836, 0.0179599
0.1713867, -0.0253906, -1.0107422, -36.341465, -185.6707306, 12.6219511, -0.0031891
0.1503906, -0.0400391, -1.0029297, -43.0487823, -189.512207, 12.4390249, -0.0099031
0.1303711, -0.0913086, -0.9399414, -45.1219521, -193.7195129, 12.4390249, -0.0112459
0.1254883, -0.1137695, -0.90625, -45.0609779, -202.6219635, 13.2317076, -0.0005035
0.125, -0.1210938, -0.8652344, -42.9268303, -205.5487823, 14.0853662, -0.0008392
0.1196289, -0.1108398, -0.8647461, -37.2560997, -205.3048859, 14.1463413, -0.008896
0.109375, -0.0576172, -0.90625, -33.5975609, -200.0609741, 12.8048782, -0.018967
0.0986328, -0.0297852, -0.9379883, -33.4756088, -197.5609741, 11.7073174, -0.0354162
0.0727539, -0.0009766, -0.9960938, -36.1585388, -195.0609741, 10.2439022, -0.0417945
0.0595703, -0.0004883, -1.0180664, -38.6585388, -195.9756165, 9.9390249, -0.0270237
0.0717773, -0.0209961, -1.027832, -43.0487823, -200.3048859, 9.9390249, -0.0068818
0.1000977, -0.0756836, -0.9990234, -45, -202.5, 10.1219511, 0.0010071
0.1191406, -0.0996094, -0.96875, -44.7560997, -204.8780518, 10.7317076, 0.0062104
0.1386719, -0.1293945, -0.9204102, -42.9268303, -204.3902435, 10.9756098, 0.0070497
0.1401367, -0.1274414, -0.9057617, -38.3536606, -199.9390259, 10.7926836, 0.0062104
0.1235352, -0.1054688, -0.9111328, -36.0975609, -196.4634247, 10.8536587, 0.0011749
0.1030273, -0.0830078, -0.9384766, -33.0487823, -188.9024506, 10.6097565, -0.0125887
0.0439453, -0.0239258, -1.0043945, -33.841465, -182.3780518, 11.1585369, -0.0290379
0.0209961, -0.0004883, -1.0327148, -34.9390259, -180.8536682, 11.7073174, -0.0498512
-0.0039062, 0.0302734, -1.0297852, -38.4146347, -181.8902435, 12.7439032, -0.0622721
0.0009766, 0.0283203, -1.0039062, -40.2439041, -184.4512177, 13.1707315, -0.0693217
0.0249023, 0.0004883, -0.9599609, -43.0487823, -190.0609741, 13.1707315, -0.0726787
0.0415039, -0.019043, -1.0014648, -44.1463432, -191.0975647, 12.7439032, -0.0713359
0.0507812, -0.019043, -1.0415039, -48.6585388, -187.9878082, 12.3780489, -0.0740215
0.0532227, -0.0029297, -1.0766602, -50.7317085, -184.4512177, 12.560976, -0.0726787
0.0566406, -0.0039062, -1.0532227, -54.5731735, -178.4756165, 12.2560978, -0.0706645
0.0786133, -0.0297852, -0.949707, -54.9390259, -177.6829376, 11.8292685, -0.0659648
0.0849609, -0.0463867, -0.8999023, -53.1097565, -178.2317047, 11.219512, -0.0572366
0.0854492, -0.0727539, -0.8671875, -51.341465, -177.0731812, 10.1219511, -0.0585794
0.074707, -0.0795898, -0.8828125, -51.0975609, -174.2682953, 9.4512196, -0.0565652
0.0273438, -0.0810547, -0.9008789, -52.1951218, -166.5853729, 8.9634151, -0.0558938
-0.0029297, -0.0869141, -0.8916016, -52.9878044, -163.1097565, 8.9634151, -0.0525368
-0.0585938, -0.1035156, -0.8129883, -52.1341476, -160.36586, 8.2317076, -0.0448157
-0.097168, -0.1191406, -0.7324219, -50.1829262, -160.7926941, 8.2317076, -0.026688
-0.1123047, -0.1235352, -0.7290039, -44.6951218, -163.5365906, 6.9512196, -0.0139315
-0.1352539, -0.1035156, -0.8164062, -41.8902435, -163.9634247, 6.9512196, -0.0162814
-0.1499023, -0.0854492, -0.8813477, -39.2682953, -162.1341553, 6.7682929, -0.0290379
-0.1616211, -0.0576172, -0.9438477, -39.0853653, -160.4268341, 6.890244, -0.0414588
-0.1513672, -0.0556641, -0.9179688, -39.4512215, -159.5121918, 7.1951222, -0.0488441
-0.1142578, -0.0688477, -0.7832031, -36.8902435, -161.8292694, 5.7926831, -0.0552224
-0.0922852, -0.0776367, -0.7211914, -34.4512215, -162.9268341, 4.8780489, -0.054551
-0.0771484, -0.059082, -0.6772461, -29.5121956, -160.9756165, 2.3780489, -0.0303807
-0.0888672, -0.0336914, -0.7050781, -28.2926826, -157.0731812, 1.7682927, 0.0186313
-0.1420898, 0.0205078, -0.7915039, -29.6341476, -146.9512177, 1.8292683, 0.0505226
-0.1914062, 0.0424805, -0.8271484, -31.5243912, -143.0487823, 2.6829269, 0.0938277
-0.2109375, 0.0366211, -0.8144531, -34.3292694, -140.6097565, 4.390244, 0.131426
-0.2211914, 0.0092773, -0.7626953, -34.9390259, -142.1951294, 5.3048782, 0.1555962
-0.2231445, -0.0029297, -0.7475586, -34.0243912, -146.646347, 6.0365853, 0.1482109
-0.2163086, -0.0087891, -0.7509766, -33.6585388, -147.9878082, 5.9756098, 0.1173266
-0.2138672, 0.0009766, -0.7558594, -33.7804871, -147.1951294, 5.7926831, 0.0971847
-0.2202148, 0.0131836, -0.730957, -34.8780479, -144.4512177, 4.8780489, 0.0632792
-0.2202148, 0.0151367, -0.7070312, -35.7926826, -143.3536682, 4.1463413, 0.0433051
-0.2373047, 0.0117188, -0.6611328, -36.8902435, -142.5609741, 2.9878049, 0.0616007
-0.2519531, 0.0161133, -0.659668, -37.1951218, -142.5, 3.1097562, 0.0921492
-0.2905273, 0.0351562, -0.6948242, -39.0243912, -140.7926788, 5.3048782, 0.0998703
-0.3125, 0.0537109, -0.746582, -39.8170738, -139.2682953, 6.7682929, 0.0958419
-0.3134766, 0.0605469, -0.7592773, -41.7073174, -137.5609741, 9.5121956, 0.0783856
-0.3071289, 0.0551758, -0.7290039, -42.4390259, -137.1341553, 10.1829271, 0.043473
-0.2983398, 0.0415039, -0.6894531, -42.8658562, -138.1707306, 10.3048782, 0.0078889
-0.28125, 0.0053711, -0.5961914, -42.2560997, -139.0853729, 10.3658543, -0.0223239
-0.2744141, -0.0117188, -0.5708008, -40.7926826, -139.0243988, 9.8780489, -0.0206455
-0.2871094, -0.0288086, -0.5834961, -40.2439041, -134.8780518, 10.3658543, -0.0323949
-0.3081055, -0.0307617, -0.6181641, -40.6097565, -131.4024353, 10.9756098, -0.0632792
-0.34375, -0.0273438, -0.6933594, -42.6219521, -125.3048782, 12.9878054, -0.085771
-0.3535156, -0.0249023, -0.71875, -43.0487823, -123.4146347, 13.9634151, -0.1022202
-0.3535156, -0.0048828, -0.7509766, -44.3292694, -122.9878082, 14.7560978, -0.1210193
-0.3417969, 0.0273438, -0.7836914, -44.3902435, -123.0487823, 14.8170738, -0.1404898
-0.3300781, 0.0410156, -0.7880859, -46.0365868, -121.9512253, 13.0487804, -0.1579461
-0.2973633, 0.027832, -0.7324219, -47.6829262, -121.2804871, 12.3170738, -0.1760739
-0.2866211, -0.0024414, -0.6733398, -50.1219521, -120.3048782, 10.5487804, -0.1935302
-0.2587891, -0.0737305, -0.5385742, -50.7317085, -120, 9.8170738, -0.2042725
-0.2568359, -0.1020508, -0.4926758, -49.8780518, -117.3780518, 9.3292685, -0.2163577
-0.2915039, -0.125, -0.4775391, -47.0731735, -110.18293, 9.0243902, -0.2344854
-0.3217773, -0.1137695, -0.5078125, -46.1585388, -105.5487823, 8.9634151, -0.2485847
-0.3925781, -0.0625, -0.5927734, -44.7560997, -97.0121994, 10, -0.2452277
-0.4262695, -0.0395508, -0.6157227, -44.3292694, -94.6341476, 9.9390249, -0.2351568
-0.4614258, -0.0175781, -0.6171875, -43.1097565, -95.18293, 10.4878054, -0.2069581
-0.4643555, -0.015625, -0.5639648, -42.6829262, -97.1951218, 10.4878054, -0.1673457
-0.4506836, -0.0175781, -0.53125, -41.0365868, -101.2804871, 10.1829271, -0.1310903
-0.4379883, -0.0385742, -0.4868164, -40.6097565, -101.8292694, 9.9390249, -0.1042344
-0.4262695, -0.0507812, -0.4833984, -39.6951218, -99.4512253, 9.3902445, -0.0891279
-0.4277344, -0.0668945, -0.5024414, -39.5731735, -97.0731735, 9.0853662, -0.0703288
-0.4287109, -0.0727539, -0.5117188, -39.2073174, -91.2804871, 8.841464, -0.0421302
-0.4389648, -0.0820312, -0.5253906, -37.6829262, -87.4390259, 8.5975609, -0.0260166
-0.4433594, -0.0825195, -0.5234375, -36.4024391, -86.2804871, 8.5975609, -0.0196384
-0.4584961, -0.0825195, -0.5146484, -32.9878044, -84.146347, 8.5365858, -0.0095674
-0.4624023, -0.0795898, -0.5102539, -31.5243912, -83.4146347, 8.780488, 0.0052033
-0.472168, -0.0551758, -0.5068359, -29.5121956, -81.0975647, 9.1463413, 0.0206455
-0.4780273, -0.0175781, -0.5307617, -28.9024391, -79.0853653, 8.9634151, 0.030045
-0.4838867, -0.0004883, -0.5444336, -30.4878063, -74.3902435, 8.4756098, 0.0347448
-0.4936523, 0.0195312, -0.5336914, -32.0731697, -72.1951218, 7.8048782, 0.0485084
-0.4970703, 0.0126953, -0.5019531, -34.2682953, -70.3658524, 6.8292685, 0.0572366
-0.4970703, -0.0161133, -0.4301758, -34.4512215, -70.6707306, 6.8292685, 0.0716716
-0.4975586, -0.0322266, -0.4077148, -33.9024391, -70.7317123, 6.2195125, 0.0850996
-0.5073242, -0.0390625, -0.4165039, -32.6829262, -68.6585388, 5.7926831, 0.0894636
-0.5219727, -0.0336914, -0.4257812, -32.1951218, -66.5243912, 5.7317076, 0.0944991
-0.5449219, -0.0424805, -0.4277344, -31.2195129, -63.5365868, 5.9146342, 0.0924849
-0.559082, -0.0449219, -0.418457, -29.9390259, -63.1707344, 6.2195125, 0.0924849
-0.5708008, -0.0527344, -0.3955078, -27.560976, -64.0853653, 6.7073174, 0.082414
-0.578125, -0.0527344, -0.4150391, -25.9146347, -64.3292694, 6.5243902, 0.064622
-0.5776367, -0.0512695, -0.4443359, -23.5975609, -63.5365868, 6.9512196, 0.0459907
-0.5712891, -0.0512695, -0.5112305, -23.0487804, -62.6219521, 6.890244, 0.0256809
-0.5673828, -0.050293, -0.5327148, -23.0487804, -60.6707344, 7.1341467, 0.008896
-0.5507812, -0.0512695, -0.5249023, -22.8048782, -60.18293, 7.2560978, -0.0003357
-0.5375977, -0.0498047, -0.5029297, -20.7926826, -59.2073174, 6.7682929, -0.0041962
-0.5141602, -0.0419922, -0.449707, -17.6219521, -56.5853653, 5.7317076, -0.0112459
-0.5151367, -0.0253906, -0.4379883, -16.3414631, -54.1463432, 5, -0.012253
-0.5366211, 0.0102539, -0.4863281, -17.1341476, -47.7439041, 3.9024391, -0.0119173
-0.5507812, 0.0371094, -0.5371094, -18.9024391, -44.2682953, 3.9024391, -0.0119173
-0.5756836, 0.0576172, -0.6000977, -23.5975609, -40.4878044, 4.6951222, -0.0038605
-0.5761719, 0.0219727, -0.5834961, -25.1829281, -40.7317085, 5.2439027, 0.0075532
-0.5683594, -0.0053711, -0.546875, -25.4268303, -42.9878044, 6.280488, 0.026688
-0.5361328, -0.0605469, -0.4726562, -23.9024391, -43.9634171, 6.4024391, 0.0558938
-0.5234375, -0.0859375, -0.4580078, -19.0853672, -42.5, 6.4024391, 0.0585794
-0.5214844, -0.0908203, -0.4667969, -17.0121956, -39.2073174, 6.5853658, 0.040116
-0.5307617, -0.0844727, -0.4848633, -14.5731707, -31.1585369, 6.2195125, 0.0327306
-0.5629883, -0.0449219, -0.5292969, -14.4512196, -23.9634151, 5, 0.0317235
-0.5834961, -0.0239258, -0.5410156, -15.060976, -21.8902435, 4.4512196, 0.0337377
-0.6225586, 0.0180664, -0.5332031, -16.2195129, -20.8536587, 3.2926829, 0.0458228
-0.6323242, 0.0200195, -0.5136719, -16.2195129, -21.280489, 2.804878, 0.0542153
-0.6279297, 0.0068359, -0.4658203, -15.9756098, -22.439024, 2.1341465, 0.0555581
-0.6352539, -0.012207, -0.4506836, -15.8536587, -22.8048782, 1.4634147, 0.0085603
-0.6367188, -0.0170898, -0.453125, -15.6097565, -21.280489, 1.2804878, -0.0364233
-0.644043, -0.0366211, -0.4726562, -15.3048782, -19.939024, 1.3414634, -0.0572366
-0.6450195, -0.050293, -0.4775391, -14.2682934, -18.2926826, 1.402439, -0.0240024
-0.6425781, -0.0532227, -0.4765625, -11.7073174, -18.0487804, 1.2195122, 0.0119173
-0.640625, -0.059082, -0.4697266, -9.5731707, -17.7439022, 1.402439, 0.0250095
-0.6328125, -0.0581055, -0.4428711, -4.5731707, -16.7682934, 0.7317073, 0.0240024
-0.6313477, -0.0561523, -0.4370117, -2.5, -15.6097565, 0.4268293, 0.0072175
-0.6269531, -0.0336914, -0.4379883, -0.7317073, -11.8902445, -0.7317073, -0.0162814
-0.6333008, -0.0219727, -0.4555664, -0.8536586, -9.8170738, -1.6463414, -0.0260166
-0.6586914, 0.0092773, -0.5048828, -2.6829269, -6.1585369, -3.0487804, -0.0652934
-0.6816406, 0.0205078, -0.5175781, -3.5975611, -5.4878049, -3.4756098, -0.0970169
-0.684082, 0.0161133, -0.5136719, -3.9634147, -6.7682929, -3.4146342, -0.1144732
-0.6772461, 0.0092773, -0.4926758, -3.3536587, -7.1951222, -3.1707318, -0.1263905
-0.6616211, 0.0043945, -0.4882812, -0.6097561, -7.4390244, -2.6829269, -0.13579
-0.6499023, 0.0112305, -0.4819336, 1.4634147, -4.4512196, -2.6829269, -0.1371328
-0.6450195, 0.0180664, -0.480957, 1.8292683, -2.1341465, -2.3780489, -0.149218
-0.6479492, 0.0356445, -0.4736328, 1.8292683, 2.9878049, -2.5, -0.1542535
-0.6503906, 0.0483398, -0.4794922, 1.4634147, 4.9390244, -3.0487804, -0.1606317
-0.6708984, 0.0551758, -0.4697266, -0.4268293, 7.9268293, -4.2682929, -0.1606317
-0.6821289, 0.0541992, -0.4599609, -0.9756098, 8.3536587, -4.6341462, -0.152575
-0.6943359, 0.0307617, -0.4335938, -1.1585366, 7.8658538, -4.8170733, -0.1379721
-0.7021484, 0.0024414, -0.4267578, -0.7926829, 7.5609756, -4.8170733, -0.1183337
-0.7045898, -0.0039062, -0.4360352, 0.6097561, 7.7439027, -4.2682929, -0.0847639
-0.7001953, -0.0024414, -0.4560547, 1.1585366, 8.0487804, -3.8414636, -0.0666361
-0.6982422, -0.0004883, -0.4526367, 2.5, 9.2682924, -3.9024391, -0.0491798
-0.6977539, 0.0200195, -0.4301758, 4.1463413, 10.5487804, -4.1463413, -0.0310521
-0.6923828, 0.0273438, -0.4179688, 5, 11.1585369, -4.6951222, -0.0035248
-0.6914062, 0.0371094, -0.4301758, 5.7926831, 13.1707315, -5.3658538, 0.0146029
-0.6894531, 0.0356445, -0.4501953, 5.7317076, 13.9634151, -5.670732, 0.0226596
-0.6816406, 0.0380859, -0.5131836, 3.2317073, 16.2195129, -5.609756, 0.0152743
-0.6782227, 0.0366211, -0.5327148, 2.0731707, 17.0731716, -5.670732, 0.0065461
-0.6586914, 0.027832, -0.5322266, 0.3048781, 17.6829281, -6.4024391, 0.0052033
-0.6464844, 0.0200195, -0.4985352, 0, 17.7439022, -6.6463418, -0.0015106
-0.6435547, 0.0195312, -0.4853516, 1.1585366, 19.1463413, -6.7682929, 0.0038605
-0.6376953, 0.0380859, -0.4848633, 1.9512196, 20.7317085, -6.5243902, 0.0146029
-0.6391602, 0.0527344, -0.4941406, 2.7439024, 25, -5.1829271, 0.0303807
-0.6357422, 0.0932617, -0.5166016, 1.7682927, 29.7560978, -4.4512196, 0.0240024
-0.6391602, 0.1030273, -0.5268555, 0.7926829, 31.6463413, -4.3292685, -0.0048676
-0.6357422, 0.0996094, -0.5307617, -1.1585366, 33.4146347, -4.4512196, -0.0364233
-0.6298828, 0.0859375, -0.5327148, -2.0121951, 33.4146347, -4.2073174, -0.0881209
-0.6113281, 0.0400391, -0.5405273, -3.4146342, 33.2926826, -2.9878049, -0.1475395
-0.6005859, 0.0224609, -0.550293, -3.4146342, 34.0243912, -2.4390244, -0.2123293
-0.5786133, 0, -0.565918, -4.0853658, 37.5609779, -1.9512196, -0.2673838
-0.5634766, 0.0019531, -0.5639648, -3.9024391, 40.0609779, -1.9512196, -0.272755
-0.5615234, 0.0063477, -0.5576172, -2.6829269, 45.1829262, -2.3780489, -0.1693599
-0.5610352, 0.0234375, -0.5380859, -1.7073171, 47.3170738, -2.5609756, -0.0166171
-0.5610352, 0.0297852, -0.5336914, -0.2439024, 50.4878044, -3.0487804, 0.1038987
-0.5717773, 0.027832, -0.527832, 1.097561, 52.9878044, -3.1097562, 0.1864805
-0.574707, 0.0234375, -0.5268555, 1.402439, 53.841465, -2.804878, 0.2294499
-0.5698242, 0.0117188, -0.5263672, 2.5, 55.4268303, -2.1341465, 0.2281071
-0.5654297, 0.0039062, -0.5317383, 3.2926829, 56.4634171, -2.0121951, 0.2009155
-0.5537109, -0.0009766, -0.5561523, 4.6341462, 59.3902435, -2.3170731, 0.1384756
-0.5458984, -0.0068359, -0.5722656, 4.8780489, 61.1585388, -2.5, 0.0683146
-0.5424805, -0.0112305, -0.5756836, 5.8536587, 63.841465, -3.0487804, 0.0031891
-0.5302734, -0.0239258, -0.5610352, 6.280488, 64.2073212, -3.3536587, -0.0273594
-0.5249023, -0.0234375, -0.5507812, 8.5975609, 65.1219559, -3.6585367, -0.0035248
-0.5131836, -0.0263672, -0.5239258, 10.1219511, 66.2195129, -3.9024391, 0.0513619
-0.5175781, -0.0244141, -0.5131836, 13.1707315, 68.9024429, -3.8414636, 0.0753643
-0.5209961, -0.0175781, -0.4892578, 15.9756098, 72.3170776, -3.4756098, 0.0830854
-0.5292969, -0.012207, -0.484375, 17.3170738, 73.9024429, -3.4756098, 0.1018845
-0.5322266, 0.0151367, -0.5166016, 18.780489, 76.7682953, -3.9024391, 0.085771
-0.5336914, 0.0356445, -0.5610352, 18.4146347, 78.1707306, -4.4512196, 0.0928206
-0.5317383, 0.0810547, -0.6665039, 14.5121956, 79.6341476, -5.2439027, 0.0931563
-0.519043, 0.1005859, -0.7138672, 11.5853662, 79.8780518, -5.7317076, 0.0676432
-0.5039062, 0.0961914, -0.699707, 6.5243902, 78.6585388, -6.0975609, 0.0451514
-0.4589844, 0.0703125, -0.6152344, 5, 77.6219559, -6.5243902, -0.0010071
-0.440918, 0.0463867, -0.5649414, 5.1829271, 77.5, -7.0121951, -0.0417945
-0.418457, 0.0126953, -0.5043945, 6.280488, 78.9024429, -7.1951222, -0.0473335
-0.4199219, 0, -0.5068359, 7.6829271, 84.8170776, -7.8658538, -0.033402
-0.4418945, -0.0009766, -0.5795898, 6.7073174, 92.0121994, -8.1097565, -0.0129244
-0.4633789, 0.0078125, -0.6225586, 5, 94.8170776, -8.1707315, -0.0018463
-0.4975586, 0.027832, -0.6689453, 2.1341465, 94.6951218, -8.1097565, -0.0041962
-0.5107422, 0.034668, -0.6616211, 1.4634147, 92.6219559, -8.0487804, -0.018967
-0.5014648, 0.0322266, -0.5922852, 1.7073171, 87.2560959, -8.4756098, -0.0377661
-0.4804688, 0.0107422, -0.5288086, 2.9878049, 85.3048782, -8.5975609, -0.057908
-0.472168, 0.0019531, -0.5200195, 5.2439027, 84.9390259, -9.3292685, -0.0795605
