Application:, Trigno Discover (1.6.5)
Date/Time:, 05/02/2025 17:14:37
Collection Length (seconds):, 42.0795
wrist (81457), , , , , , bicep (81139)
sensor mode: 609, , , , , , sensor mode: 40
ACC X (G), ACC Y (G), ACC Z (G), GYRO X (deg/s), GYRO Y (deg/s), GYRO Z (deg/s), EMG 1 (mV)
370.3704 Hz, 370.3704 Hz, 370.3704 Hz, 370.3704 Hz, 370.3704 Hz, 370.3704 Hz, 2148.1481 Hz
0.9370117, -0.1367188, -0.3222656, -13.4146347, -4.9390244, 0.6097561, -0.0149386
0.9306641, -0.1416016, -0.3217773, -13.841464, -5.3048782, 0.6097561, -0.0149386
0.9301758, -0.1538086, -0.3203125, -13.780488, -5.5487804, 0.3658537, -0.017792
0.9272461, -0.1552734, -0.3203125, -13.2926836, -5.8536587, 0.7317073, -0.018967
0.9291992, -0.1503906, -0.324707, -13.0487804, -5.9146342, 1.097561, -0.017792
0.9277344, -0.1479492, -0.3266602, -12.6219511, -6.2195125, 0.9146342, -0.0162814
0.9350586, -0.1386719, -0.3359375, -13.1097565, -5.9146342, 0.9756098, -0.0090639
0.940918, -0.1323242, -0.3427734, -13.2926836, -5.9756098, 0.9146342, -0.0082246
0.9462891, -0.1254883, -0.3466797, -14.0853662, -6.280488, 1.2195122, -0.0072175
0.9536133, -0.1230469, -0.3569336, -14.2073174, -6.0975609, 1.1585366, -0.005539
0.9550781, -0.1201172, -0.3618164, -15.060976, -5.9756098, 1.2804878, -0.0028534
0.9599609, -0.1230469, -0.3676758, -15.5487804, -6.0365853, 1.5243902, -0.0035248
0.9575195, -0.1274414, -0.3686523, -16.0365849, -5.8536587, 1.5853659, 0.0020142
0.9604492, -0.1264648, -0.3647461, -16.0975609, -5.9146342, 1.5243902, 0.0015106
0.9589844, -0.1303711, -0.362793, -16.7682934, -5.3048782, 1.402439, -0.0062104
0.9472656, -0.1411133, -0.3491211, -17.2560978, -5.1219511, 1.402439, -0.018967
0.9487305, -0.1425781, -0.34375, -17.8048782, -4.8780489, 1.2195122, -0.0229953
0.9433594, -0.1547852, -0.3354492, -17.7439022, -5.1829271, 1.2804878, -0.012253
0.9389648, -0.1591797, -0.331543, -17.5, -4.8170733, 1.3414634, 0.0152743
0.9350586, -0.1606445, -0.3251953, -16.5853653, -4.8170733, 1.0365853, 0.0629435
0.9394531, -0.1582031, -0.3222656, -16.0975609, -5.2439027, 1.2195122, 0.1220264
0.9355469, -0.1572266, -0.3242188, -15.7317076, -5.0609756, 0.6707317, 0.1515679
0.9326172, -0.1508789, -0.3305664, -15.6707325, -5.1829271, 0.7926829, 0.1592889
0.9350586, -0.1469727, -0.3364258, -15.7317076, -5.0609756, 0.9756098, 0.1552605
0.9291992, -0.1508789, -0.3457031, -15.7317076, -4.9390244, 0.9146342, 0.1398184
0.9311523, -0.1459961, -0.3491211, -15.6707325, -5, 0.9146342, 0.0938277
0.9316406, -0.1484375, -0.355957, -15.2439032, -4.9390244, 1.0365853, 0.0488441
0.9355469, -0.1459961, -0.3613281, -15.1219511, -5.1829271, 1.0365853, 0.0226596
0.9423828, -0.152832, -0.3496094, -15.1219511, -5.1219511, 0.9146342, 0.0226596
0.9428711, -0.15625, -0.3417969, -15.1219511, -5.3048782, 1.0365853, 0.0406195
0.9433594, -0.1625977, -0.3217773, -14.8780489, -4.8170733, 0.8536586, 0.0193027
0.9331055, -0.1630859, -0.3149414, -14.4512196, -4.6951222, 1.0365853, 0.0062104
0.9301758, -0.1582031, -0.3095703, -14.0853662, -4.5121951, 1.3414634, 0.0146029
0.9208984, -0.1542969, -0.3173828, -13.6585369, -4.6341462, 1.1585366, 0.0303807
0.9199219, -0.1489258, -0.3251953, -13.7195129, -5.3658538, 1.402439, 0.0703288
0.9150391, -0.1450195, -0.3305664, -13.5365858, -5.670732, 1.7073171, 0.1265583
0.918457, -0.140625, -0.3330078, -13.5365858, -5.9146342, 1.7682927, 0.1190051
0.9296875, -0.1357422, -0.3291016, -13.2317076, -6.3414636, 1.6463414, 0.079057
0.9355469, -0.1357422, -0.3291016, -13.3536587, -6.7682929, 1.6463414, 0.0433051
0.9438477, -0.1391602, -0.331543, -13.3536587, -7.0121951, 1.2804878, 0.0045319
0.9462891, -0.1503906, -0.3364258, -13.9024391, -7.0121951, 0.8536586, -0.0263523
0.9467773, -0.1660156, -0.3530273, -14.3902445, -6.3414636, 1.097561, -0.0673075
0.9438477, -0.1689453, -0.3637695, -14.1463413, -6.2195125, 1.2195122, -0.0965133
0.9433594, -0.1708984, -0.3637695, -13.780488, -5.3658538, 1.402439, -0.1136339
0.9458008, -0.1601562, -0.3676758, -13.4146347, -5, 1.3414634, -0.1404898
0.9477539, -0.1586914, -0.3666992, -12.6219511, -4.6951222, 1.5243902, -0.173724
0.9526367, -0.1459961, -0.3588867, -12.6219511, -4.4512196, 1.5243902, -0.1928588
0.9560547, -0.1455078, -0.3535156, -12.8048782, -3.5975611, 1.1585366, -0.203769
0.9501953, -0.1396484, -0.3442383, -13.2317076, -3.1097562, 1.3414634, -0.2062867
0.9433594, -0.1347656, -0.3369141, -13.6585369, -2.0731707, 1.7073171, -0.193698
0.9384766, -0.1259766, -0.3369141, -14.3292685, -2.195122, 2.0121951, -0.1821164
0.9365234, -0.1220703, -0.3393555, -14.3902445, -2.0121951, 1.7682927, -0.1599603
0.9321289, -0.1152344, -0.3496094, -15.6707325, -2.6829269, 1.8902439, -0.1498894
0.9443359, -0.1220703, -0.3569336, -16.4634151, -2.9878049, 2.1341465, -0.1465324
0.9477539, -0.121582, -0.3564453, -17.6829281, -3.5365853, 2.195122, -0.1243763
0.9604492, -0.1328125, -0.3544922, -18.2317085, -3.7195122, 2.1341465, -0.10692
0.9638672, -0.137207, -0.355957, -19.0243912, -3.2317073, 2.0121951, -0.0961776
0.9672852, -0.1469727, -0.3583984, -18.8414631, -2.6219513, 2.195122, -0.0814069
0.9663086, -0.1469727, -0.355957, -18.2926826, -1.2195122, 2.0731707, -0.0629435
0.9633789, -0.1381836, -0.3525391, -17.7439022, -0.8536586, 2.0121951, -0.0250095
0.9628906, -0.1342773, -0.3481445, -17.560976, -0.5487805, 2.3780489, 0.0082246
0.9628906, -0.1328125, -0.3515625, -17.9878044, -0.3048781, 1.8902439, 0.0005035
0.9609375, -0.1352539, -0.3583984, -18.5365849, -0.3048781, 1.8292683, -0.0112459
0.9599609, -0.1411133, -0.362793, -20, 0.5487805, 2.4390244, -0.0256809
0.9609375, -0.1489258, -0.3579102, -20.5487804, 0.6097561, 2.4390244, -0.0364233
0.965332, -0.1533203, -0.3515625, -20.1219521, 1.097561, 2.4390244, -0.0461585
0.9755859, -0.1538086, -0.3354492, -19.7560978, 1.1585366, 2.2560976, -0.0560616
0.9785156, -0.1552734, -0.3261719, -18.2317085, 1.1585366, 2.0731707, -0.0552224
0.9858398, -0.1679688, -0.3349609, -17.8658543, 1.7073171, 1.8902439, -0.0518654
0.9853516, -0.1699219, -0.3408203, -17.8048782, 2.3780489, 2.0121951, -0.054551
0.9868164, -0.171875, -0.3540039, -17.9268303, 2.6829269, 2.1341465, -0.0649577
0.9824219, -0.1708984, -0.3540039, -17.0121956, 3.1707318, 2.3780489, -0.076875
0.9765625, -0.1611328, -0.3481445, -15.6707325, 3.5975611, 2.5, -0.0876173
0.9770508, -0.15625, -0.3486328, -14.5731707, 3.7804878, 2.4390244, -0.1052415
0.9882812, -0.1459961, -0.3452148, -13.6585369, 3.5975611, 2.2560976, -0.1169909
0.984375, -0.1494141, -0.3383789, -13.5975609, 3.5975611, 2.0731707, -0.1196765
0.9848633, -0.1523438, -0.3339844, -13.780488, 3.5975611, 1.7682927, -0.1111162
0.9804688, -0.1601562, -0.3286133, -13.780488, 3.8414636, 1.7073171, -0.0746929
0.9765625, -0.1674805, -0.3256836, -13.2926836, 4.3292685, 1.7682927, -0.0276951
0.972168, -0.171875, -0.3208008, -12.8658543, 4.1463413, 1.5853659, 0.0172885
0.9726562, -0.1689453, -0.3203125, -11.219512, 3.9634147, 1.8292683, 0.0555581
0.9716797, -0.159668, -0.315918, -10.8536587, 3.7195122, 2.0731707, 0.0938277
0.9760742, -0.15625, -0.3164062, -9.5731707, 3.6585367, 1.9512196, 0.1018845
0.9794922, -0.1538086, -0.3144531, -9.2073174, 3.0487804, 1.6463414, 0.0891279
0.9770508, -0.1513672, -0.3144531, -9.2073174, 3.1707318, 1.3414634, 0.061265
0.9750977, -0.1538086, -0.3110352, -9.0243902, 3.0487804, 1.3414634, 0.0332341
0.9736328, -0.1582031, -0.2958984, -8.9024391, 2.3170731, 1.1585366, 0.0018463
0.9726562, -0.1577148, -0.2919922, -8.2926826, 1.8292683, 1.3414634, -0.0271916
0.9672852, -0.1567383, -0.284668, -7.8658538, 1.5243902, 1.097561, -0.0501869
0.9633789, -0.1611328, -0.2905273, -6.9512196, 1.2195122, 0.4878049, -0.0706645
0.956543, -0.1723633, -0.3149414, -6.4024391, 1.1585366, 0.0609756, -0.0763714
0.9521484, -0.1831055, -0.3227539, -5.8536587, 0.4268293, -0.1219512, -0.0746929
0.9462891, -0.1923828, -0.3325195, -5.8536587, 0.1219512, -0.4878049, -0.0767071
0.9453125, -0.1948242, -0.3310547, -4.3292685, -0.0609756, 0.4878049, -0.0639506
0.9487305, -0.1806641, -0.3208008, -2.3170731, 0.4878049, 0.4878049, -0.0411231
0.9516602, -0.168457, -0.3227539, -1.2195122, 1.1585366, 0.4268293, 0.0070497
0.9599609, -0.1445312, -0.3354492, -0.5487805, 1.8902439, 0.2439024, 0.0513619
0.9619141, -0.1210938, -0.3632812, -1.0365853, 2.0731707, 0.4878049, 0.0884565
0.9663086, -0.1137695, -0.3691406, -2.5, 1.6463414, 0.6707317, 0.1045701
0.9702148, -0.1025391, -0.3725586, -3.5975611, 1.2804878, 1.1585366, 0.1062486
0.9741211, -0.0991211, -0.371582, -4.8780489, 0.9146342, 1.7682927, 0.1220264
0.9790039, -0.0952148, -0.3583984, -5.3048782, 0.9146342, 2.1341465, 0.1534142
0.9804688, -0.0922852, -0.3583984, -5.609756, 1.2804878, 2.3170731, 0.1797665
0.9726562, -0.1000977, -0.3525391, -5.7317076, 1.6463414, 2.5, 0.1404898
0.9663086, -0.1049805, -0.3457031, -7.5, 1.3414634, 2.804878, 0.0943313
0.9506836, -0.1171875, -0.3325195, -9.3292685, 0.7317073, 2.7439024, 0.0706645
0.940918, -0.1274414, -0.3198242, -9.6341467, 0.5487805, 3.1707318, 0.0532082
0.9248047, -0.140625, -0.2988281, -10.3048782, 0.0609756, 3.8414636, 0.047837
0.9160156, -0.1347656, -0.2875977, -10.1829271, -0.0609756, 3.9634147, 0.0347448
0.9174805, -0.1318359, -0.2875977, -9.5121956, -0.9146342, 3.9634147, -0.0028534
0.9169922, -0.1362305, -0.2958984, -9.4512196, -1.3414634, 3.6585367, -0.0260166
0.9208984, -0.1455078, -0.2988281, -10.6707315, -2.6219513, 3.4146342, -0.0364233
0.9243164, -0.1665039, -0.2978516, -10.7317076, -3.3536587, 3.0487804, -0.0350805
0.9296875, -0.1767578, -0.293457, -11.280488, -4.3292685, 2.9878049, -0.0317235
0.9287109, -0.1826172, -0.2890625, -10.7926836, -4.4512196, 3.3536587, -0.0256809
0.9262695, -0.1816406, -0.2866211, -9.0243902, -4.2073174, 3.2926829, -0.0203098
0.9262695, -0.175293, -0.2885742, -6.8292685, -3.9024391, 3.3536587, -0.0263523
0.9272461, -0.1679688, -0.2900391, -5.9146342, -4.1463413, 3.5365853, -0.0384375
0.9228516, -0.1606445, -0.3100586, -5.9146342, -4.8170733, 2.804878, -0.0506905
0.9169922, -0.15625, -0.3173828, -6.8292685, -5.4268293, 2.9878049, -0.0501869
0.9174805, -0.1499023, -0.3178711, -7.7439027, -5.8536587, 3.2317073, -0.0381018
0.9174805, -0.1376953, -0.3085938, -8.4756098, -6.1585369, 3.2926829, -0.0399481
0.9199219, -0.1337891, -0.3051758, -8.5365858, -6.7073174, 3.3536587, -0.0327306
0.9272461, -0.1289062, -0.3081055, -8.5365858, -6.8292685, 3.2926829, -0.0354162
0.9296875, -0.1333008, -0.3173828, -8.9024391, -7.8048782, 2.5, -0.0506905
0.9321289, -0.1425781, -0.3291016, -9.4512196, -8.1707315, 2.5609756, -0.0674754
0.9345703, -0.1533203, -0.3325195, -11.1585369, -9.3902445, 2.5609756, -0.0887922
0.9370117, -0.1669922, -0.3256836, -12.0121956, -9.9390249, 2.9878049, -0.1055772
0.9389648, -0.1733398, -0.3217773, -12.2560978, -10.2439022, 3.1707318, -0.1193408
0.940918, -0.1796875, -0.3081055, -11.0975609, -9.5731707, 3.3536587, -0.1238727
0.9350586, -0.1689453, -0.309082, -10.1219511, -9.0243902, 3.7195122, -0.1173266
0.9321289, -0.159668, -0.3164062, -8.719512, -8.1097565, 3.4146342, -0.1169909
0.9365234, -0.1386719, -0.3330078, -8.5365858, -8.1707315, 2.9878049, -0.1089342
0.9321289, -0.1376953, -0.3427734, -9.3902445, -8.6585369, 2.9268293, -0.1028916
0.9365234, -0.1298828, -0.3461914, -10.2439022, -9.2073174, 2.9878049, -0.0988632
0.9423828, -0.1313477, -0.3447266, -12.0121956, -10.3048782, 3.1707318, -0.0955062
0.953125, -0.140625, -0.3310547, -12.5, -10.4268293, 2.804878, -0.096849
0.956543, -0.1508789, -0.3310547, -12.7439032, -10.2439022, 2.5, -0.1092699
0.9555664, -0.1616211, -0.3237305, -12.4390249, -9.6341467, 2.195122, -0.1092699
0.9521484, -0.1660156, -0.3139648, -12.0121956, -9.0853662, 2.2560976, -0.1166552
0.9462891, -0.1679688, -0.3085938, -11.280488, -8.1707315, 2.6829269, -0.1200122
0.9360352, -0.15625, -0.3056641, -10.8536587, -7.9268293, 2.6219513, -0.1243763
0.9350586, -0.1557617, -0.3125, -10.1829271, -7.6829271, 2.7439024, -0.1250477
0.9311523, -0.1430664, -0.3291016, -10.060976, -7.7439027, 2.7439024, -0.128069
0.9365234, -0.1455078, -0.3393555, -10.7926836, -7.9268293, 2.195122, -0.124712
0.9423828, -0.1513672, -0.34375, -11.1585369, -8.3536587, 2.1341465, -0.1156481
0.9453125, -0.1552734, -0.3408203, -12.0121956, -8.6585369, 1.7682927, -0.0928206
0.9472656, -0.1630859, -0.3208008, -12.1951218, -8.5365858, 1.5853659, -0.0726787
0.9501953, -0.1650391, -0.3164062, -12.0121956, -7.9268293, 1.6463414, -0.064622
0.9428711, -0.1689453, -0.3188477, -11.0365858, -6.7682929, 1.3414634, -0.0552224
0.9365234, -0.1606445, -0.3374023, -11.341464, -6.2195125, 1.402439, -0.0565652
0.934082, -0.1611328, -0.3457031, -11.5853662, -5.8536587, 1.5853659, -0.0552224
0.9321289, -0.1557617, -0.3461914, -11.6463413, -5.9756098, 1.7682927, -0.0505226
0.9370117, -0.1474609, -0.3432617, -12.1951218, -6.5853658, 1.9512196, -0.0464942
0.9433594, -0.1342773, -0.3232422, -12.1341467, -6.7682929, 2.3780489, -0.0399481
0.9477539, -0.1289062, -0.3154297, -12.3780489, -7.3780489, 1.8902439, -0.0340734
0.9462891, -0.1313477, -0.3022461, -12.6219511, -7.4390244, 1.6463414, -0.0243381
0.9501953, -0.1333008, -0.2978516, -13.5365858, -7.2560978, 1.5853659, -0.0129244
0.9414062, -0.1425781, -0.2983398, -13.9024391, -7.3780489, 1.2804878, -0.0015106
0.940918, -0.1479492, -0.2973633, -14.5731707, -8.1097565, 1.2195122, 0.0072175
0.9262695, -0.1630859, -0.2954102, -14.4512196, -9.3292685, 1.2195122, 0.0119173
0.9296875, -0.171875, -0.3022461, -14.1463413, -9.3292685, 1.3414634, 0.0176242
0.9355469, -0.175293, -0.3076172, -13.0487804, -9.4512196, 1.2195122, 0.0297093
0.9443359, -0.1748047, -0.3154297, -12.560976, -9.3292685, 1.2804878, 0.0347448
0.9467773, -0.1728516, -0.3183594, -11.7073174, -9.5731707, 1.097561, 0.0414588
0.9604492, -0.1665039, -0.3256836, -11.5853662, -9.4512196, 0.8536586, 0.0448157
0.9609375, -0.1665039, -0.3251953, -11.280488, -9.2073174, 0.5487805, 0.0464942
0.9663086, -0.1645508, -0.3295898, -11.1585369, -8.9634151, 0.5487805, 0.0481727
0.96875, -0.1616211, -0.3271484, -11.0975609, -8.1097565, 0.2439024, 0.0468299
0.9672852, -0.1611328, -0.3339844, -11.341464, -7.9268293, 0.3658537, 0.0454871
0.9658203, -0.1567383, -0.3364258, -11.8292685, -7.7439027, 0.3048781, 0.0501869
0.9628906, -0.1484375, -0.3271484, -12.0731707, -7.5, 0.0609756, 0.0461585
0.9648438, -0.144043, -0.3271484, -12.2560978, -7.5609756, -0.1219512, 0.0535439
0.9638672, -0.1455078, -0.331543, -12.3170738, -7.1341467, -0.2439024, 0.0548867
0.9575195, -0.1484375, -0.3330078, -12.6219511, -7.1341467, -0.5487805, 0.0461585
0.9526367, -0.1479492, -0.3339844, -13.4756098, -6.4634147, -0.1219512, 0.0292058
0.9521484, -0.1445312, -0.3232422, -13.4146347, -6.2195125, -0.0609756, 0.0287022
0.9555664, -0.1401367, -0.3178711, -13.5365858, -5.9146342, 0.2439024, 0.0471656
0.9521484, -0.1318359, -0.3154297, -13.3536587, -5.609756, 0.3658537, 0.0810712
0.9536133, -0.1298828, -0.3208008, -12.9878054, -5.4268293, -0.1219512, 0.1203479
0.956543, -0.1328125, -0.3256836, -13.1707315, -4.9390244, -0.3658537, 0.1431754
0.9580078, -0.137207, -0.3310547, -14.3902445, -5.3658538, -0.7926829, 0.1532464
0.953125, -0.1474609, -0.3266602, -15.2439032, -5.3048782, -0.8536586, 0.1455253
0.9467773, -0.1577148, -0.3149414, -15.4268293, -5.0609756, -0.7926829, 0.1072557
0.9418945, -0.15625, -0.309082, -14.6341467, -4.4512196, -0.6097561, 0.0683146
0.9350586, -0.1464844, -0.3027344, -14.2073174, -4.0853658, -0.3658537, 0.0303807
0.9316406, -0.1420898, -0.3037109, -13.841464, -3.6585367, -0.6097561, -0.0005035
0.9370117, -0.1391602, -0.3032227, -13.780488, -3.9024391, -0.3048781, -0.0204776
0.9375, -0.1367188, -0.3032227, -14.8170738, -4.3292685, -0.7926829, -0.0394446
0.9433594, -0.1435547, -0.3027344, -15, -4.7560978, -0.6097561, -0.0538796
0.9462891, -0.1494141, -0.2973633, -15.4878054, -5.1219511, -0.5487805, -0.0599222
0.9472656, -0.1552734, -0.2983398, -15.5487804, -5.1829271, -0.3048781, -0.0605936
0.9428711, -0.1518555, -0.2973633, -15.4268293, -5.2439027, -0.3048781, -0.0594186
0.9443359, -0.1474609, -0.2998047, -14.8170738, -5.1219511, -0.3658537, -0.0585794
0.9443359, -0.1391602, -0.3085938, -14.5121956, -5.2439027, -0.1829268, -0.0609293
0.9462891, -0.1401367, -0.3144531, -14.9390249, -5.4268293, -0.1219512, -0.0572366
0.9458008, -0.1450195, -0.3071289, -15.1219511, -5.9146342, -0.1829268, -0.0572366
0.940918, -0.1411133, -0.3017578, -16.0975609, -6.4634147, 0, -0.0548867
0.9360352, -0.1386719, -0.2910156, -16.3414631, -6.2195125, -0.1829268, -0.0535439
0.9350586, -0.1411133, -0.2885742, -16.4024391, -6.5243902, -0.0609756, -0.0558938
0.9257812, -0.1367188, -0.277832, -16.3414631, -6.8292685, -0.1219512, -0.0558938
0.9228516, -0.1333008, -0.2788086, -16.0365849, -7.5, 0.1219512, -0.0570687
0.9228516, -0.1318359, -0.2680664, -16.4024391, -8.2926826, 0.3048781, -0.0522011
0.9204102, -0.1337891, -0.2685547, -16.3414631, -9.3902445, 0.4878049, -0.0404517
0.925293, -0.1352539, -0.2700195, -16.7073174, -10.3048782, 0.6707317, -0.0307164
0.9326172, -0.1376953, -0.2797852, -16.8292694, -10.9756098, 0.1829268, -0.0270237
0.9404297, -0.144043, -0.2836914, -16.9512196, -11.8902445, -0.0609756, -0.0109102
0.9418945, -0.1503906, -0.2915039, -16.9512196, -12.0731707, 0.0609756, 0.0381018
0.9443359, -0.159668, -0.2944336, -16.5853653, -12.560976, 0, 0.0656291
0.9482422, -0.1630859, -0.2988281, -16.280489, -12.4390249, -0.1219512, 0.072343
0.9482422, -0.1640625, -0.3037109, -15.3048782, -12.1951218, -0.0609756, 0.0777142
0.949707, -0.1625977, -0.3129883, -15.1829271, -12.1951218, 0, 0.0683146
0.9453125, -0.1630859, -0.3217773, -14.8170738, -12.0121956, 0, 0.0663005
0.9487305, -0.1582031, -0.3256836, -14.6341467, -11.6463413, -0.4268293, 0.0616007
0.9467773, -0.1538086, -0.3198242, -14.6951227, -11.280488, -0.5487805, 0.0525368
0.9506836, -0.1445312, -0.3208008, -14.7560978, -11.1585369, -0.3658537, 0.0428016
0.9501953, -0.1337891, -0.3115234, -14.9390249, -11.280488, -0.7926829, 0.0213169
0.9511719, -0.1347656, -0.3125, -15.6097565, -11.280488, -1.0365853, 0.0018463
0.9555664, -0.1381836, -0.3173828, -15.9146347, -11.0975609, -0.9756098, -0.0068818
0.9555664, -0.1401367, -0.3149414, -16.4024391, -11.1585369, -1.6463414, -0.0216526
0.9541016, -0.1459961, -0.3071289, -16.8292694, -11.0975609, -1.402439, -0.0391089
0.9511719, -0.1474609, -0.3051758, -17.2560978, -11.1585369, -1.5243902, -0.0532082
0.9438477, -0.1494141, -0.3051758, -16.9512196, -10.9756098, -1.3414634, -0.0572366
0.9394531, -0.144043, -0.3076172, -16.7073174, -10.3658543, -1.5243902, -0.0614328
0.9306641, -0.1381836, -0.3168945, -16.8292694, -10.1219511, -1.3414634, -0.0632792
0.9306641, -0.1357422, -0.3222656, -17.3780499, -10.1219511, -1.2804878, -0.057908
0.9355469, -0.1391602, -0.3286133, -17.6829281, -10.7926836, -1.2195122, -0.054551
0.9443359, -0.1376953, -0.3149414, -18.3536587, -10.9756098, -1.1585366, -0.0532082
0.9521484, -0.1357422, -0.3115234, -18.780489, -10.8536587, -1.1585366, -0.0485084
0.9550781, -0.1386719, -0.3056641, -18.9634151, -10.7926836, -1.1585366, -0.0384375
0.9560547, -0.140625, -0.3085938, -19.1463413, -9.9390249, -1.1585366, -0.0547189
0.9555664, -0.144043, -0.3168945, -18.8414631, -9.7560978, -1.097561, -0.0518654
0.9619141, -0.1474609, -0.3208008, -19.2682934, -9.8780489, -1.3414634, -0.0303807
0.9584961, -0.15625, -0.3271484, -19.3292694, -9.7560978, -1.1585366, -0.0115816
0.9628906, -0.1577148, -0.3237305, -19.3902435, -10, -1.0365853, -0.0102388
0.9711914, -0.1606445, -0.3188477, -18.8414631, -9.0243902, -0.9146342, -0.0263523
0.9697266, -0.1572266, -0.3232422, -18.1707325, -8.6585369, -0.6097561, -0.0565652
0.9785156, -0.1503906, -0.3295898, -17.6829281, -7.7439027, -1.0365853, -0.0746929
0.9819336, -0.1503906, -0.3344727, -17.5, -7.5609756, -1.097561, -0.0770428
0.9819336, -0.1499023, -0.328125, -17.560976, -7.2560978, -1.0365853, -0.0720073
0.980957, -0.1464844, -0.3154297, -17.439024, -7.1341467, -1.2804878, -0.0688182
0.9785156, -0.1503906, -0.3164062, -17.3170738, -6.9512196, -1.2804878, -0.0652934
0.9765625, -0.1518555, -0.3076172, -17.3170738, -6.8292685, -1.2195122, -0.063447
0.972168, -0.1499023, -0.2983398, -16.8292694, -6.5243902, -1.3414634, -0.0595865
0.9643555, -0.1533203, -0.2924805, -16.5243912, -6.4634147, -1.2195122, -0.0587472
0.9619141, -0.1499023, -0.293457, -16.2195129, -6.4634147, -1.402439, -0.0632792
0.9570312, -0.1538086, -0.2954102, -15.6707325, -6.9512196, -1.2195122, -0.064622
0.9560547, -0.1567383, -0.2944336, -15.5487804, -6.890244, -1.4634147, -0.0686503
0.9614258, -0.1635742, -0.2929688, -14.8170738, -7.1341467, -1.2195122, -0.0699931
0.9667969, -0.1635742, -0.2875977, -14.8780489, -7.5, -1.2195122, -0.0666361
0.96875, -0.1635742, -0.2919922, -13.6585369, -7.1951222, -1.3414634, -0.0572366
0.9794922, -0.1660156, -0.2924805, -12.9878054, -7.0121951, -1.3414634, -0.057908
0.9799805, -0.1591797, -0.296875, -12.0731707, -6.5243902, -1.402439, -0.0464942
0.9780273, -0.1450195, -0.3149414, -11.4634151, -5.9756098, -1.2804878, -0.0394446
0.9775391, -0.1464844, -0.3134766, -10.8536587, -5.4268293, -1.1585366, -0.0364233
0.9770508, -0.1362305, -0.3227539, -10.1829271, -5.4268293, -0.9146342, -0.0412909
0.9785156, -0.1376953, -0.3188477, -10.1219511, -5.3658538, -0.6097561, -0.0459907
0.9824219, -0.1313477, -0.315918, -10.2439022, -5.3048782, -0.3048781, -0.0491798
0.9833984, -0.1289062, -0.3095703, -10.3658543, -5.1219511, -0.5487805, -0.0532082
0.984375, -0.1333008, -0.2993164, -10.4878054, -4.9390244, -0.6707317, -0.0538796
0.9794922, -0.1323242, -0.296875, -10.7317076, -4.8780489, -0.6707317, -0.0540475
0.9750977, -0.1381836, -0.2988281, -10.5487804, -4.8170733, -0.3048781, -0.0582437
0.9667969, -0.1396484, -0.2998047, -10.3658543, -5, 0, -0.0525368
0.9667969, -0.1333008, -0.2988281, -10.4878054, -5.0609756, 0.3658537, -0.0397803
0.9731445, -0.1269531, -0.300293, -10.4268293, -5.0609756, 0.7926829, -0.0303807
0.9716797, -0.1235352, -0.3041992, -10, -4.5121951, 1.2804878, -0.0129244
0.9804688, -0.1166992, -0.3129883, -9.6951218, -4.4512196, 1.2195122, -0.0057069
0.9819336, -0.1162109, -0.3178711, -10.4268293, -4.6341462, 1.1585366, -0.0119173
0.980957, -0.1176758, -0.331543, -11.4634151, -4.390244, 1.5243902, -0.0102388
0.9785156, -0.1196289, -0.3354492, -12.1951218, -4.0853658, 1.5853659, -0.0092317
0.9746094, -0.1181641, -0.331543, -13.2317076, -3.7195122, 2.5609756, -0.0018463
0.9770508, -0.1176758, -0.3256836, -13.3536587, -3.5365853, 2.9878049, 0.008896
0.9726562, -0.1137695, -0.3198242, -12.8048782, -2.9878049, 3.6585367, 0.0169528
0.9775391, -0.1088867, -0.3066406, -13.1097565, -2.6829269, 3.6585367, 0.023331
0.9716797, -0.1044922, -0.3007812, -13.1097565, -2.9268293, 3.5975611, 0.0260166
0.9736328, -0.1123047, -0.2944336, -13.3536587, -2.804878, 3.3536587, 0.0209812
0.9692383, -0.1171875, -0.2895508, -13.5365858, -2.8658538, 3.2317073, 0.0179599
0.9648438, -0.1367188, -0.2973633, -13.5975609, -2.8658538, 3.2317073, 0.0172885
0.9619141, -0.1425781, -0.296875, -13.6585369, -3.4146342, 3.4146342, 0.0166171
0.9555664, -0.1494141, -0.2861328, -12.9268293, -3.5975611, 3.4756098, 0.0172885
0.9472656, -0.1474609, -0.2827148, -12.1951218, -3.2317073, 3.6585367, 0.0231632
0.9472656, -0.1513672, -0.2822266, -11.0975609, -3.4146342, 3.5975611, 0.0263523
0.9511719, -0.1513672, -0.2900391, -10.4268293, -3.8414636, 3.5365853, 0.026688
0.9560547, -0.1494141, -0.2988281, -10.060976, -3.9024391, 3.2317073, 0.0169528
0.9560547, -0.1542969, -0.2973633, -9.7560978, -4.2073174, 3.3536587, 0.0119173
0.9570312, -0.15625, -0.2963867, -9.3292685, -4.1463413, 3.4756098, 0.0199741
0.9580078, -0.1523438, -0.2949219, -9.0243902, -4.2073174, 3.2926829, 0.0250095
0.9619141, -0.1474609, -0.2963867, -8.3536587, -4.2682929, 3.5975611, 0.01561
0.9619141, -0.137207, -0.2998047, -7.8048782, -4.2682929, 3.7804878, -0.005539
0.9609375, -0.1323242, -0.3041992, -7.4390244, -4.2682929, 3.4146342, -0.0256809
0.9589844, -0.1269531, -0.3198242, -7.8658538, -4.8780489, 3.7195122, -0.0359197
0.9589844, -0.1303711, -0.3227539, -8.2317076, -5.1829271, 3.9024391, -0.051194
0.953125, -0.1308594, -0.3164062, -9.2073174, -5.609756, 4.8170733, -0.0659648
0.9472656, -0.1259766, -0.3066406, -9.3292685, -5.670732, 5.0609756, -0.0820783
0.9428711, -0.1269531, -0.3012695, -9.2073174, -5.670732, 5.4268293, -0.0743572
0.9453125, -0.121582, -0.3115234, -9.2073174, -5.1219511, 5.7926831, -0.04448
0.9501953, -0.121582, -0.3222656, -8.841464, -5.0609756, 6.3414636, -0.0015106
0.9482422, -0.1123047, -0.3408203, -9.3292685, -4.6951222, 6.8292685, 0.036759
0.9448242, -0.112793, -0.3466797, -10.7926836, -5.1219511, 7.6829271, 0.0599222
0.9370117, -0.1079102, -0.3515625, -11.280488, -5, 8.0487804, 0.0656291
0.9365234, -0.1054688, -0.3525391, -12.6219511, -4.7560978, 9.2682924, 0.0438087
0.940918, -0.1108398, -0.3457031, -14.4512196, -4.2682929, 10.1219511, 0.0112459
0.9428711, -0.1142578, -0.3452148, -15, -4.3292685, 10.2439022, -0.0182956
0.9389648, -0.1201172, -0.3457031, -16.1585369, -4.0243902, 10.7317076, -0.0438087
0.9350586, -0.1113281, -0.3520508, -16.6463413, -4.0243902, 11.0975609, -0.0587472
0.934082, -0.1020508, -0.3603516, -17.9268303, -3.7195122, 12.2560978, -0.0605936
0.9394531, -0.090332, -0.3862305, -19.1463413, -3.4146342, 12.7439032, -0.0659648
0.9423828, -0.0893555, -0.3984375, -22.9268303, -3.2317073, 14.0853662, -0.0585794
0.9467773, -0.090332, -0.4155273, -24.7560978, -3.1707318, 14.7560978, -0.0547189
0.9501953, -0.0913086, -0.4091797, -27.2560978, -3.4146342, 15.8536587, -0.0495155
0.9702148, -0.097168, -0.3994141, -28.4756107, -3.5975611, 16.280489, -0.0352483
0.9716797, -0.097168, -0.3901367, -29.3292694, -3.5365853, 16.5853653, 0.0105745
0.9716797, -0.1064453, -0.371582, -30.3048782, -2.3780489, 16.6463413, 0.0307164
0.9624023, -0.1196289, -0.3359375, -31.0365868, -2.4390244, 16.8902435, 0.0555581
0.9541016, -0.1289062, -0.3129883, -31.8902454, -3.6585367, 17.6829281, 0.0797284
0.9448242, -0.1557617, -0.2744141, -31.7682934, -4.2682929, 17.9878044, 0.0840925
0.9423828, -0.1645508, -0.2685547, -31.6463413, -5.609756, 18.5365849, 0.0797284
0.9306641, -0.1884766, -0.2744141, -31.341465, -5.9756098, 18.4756107, 0.0629435
0.9272461, -0.1938477, -0.2841797, -30.1829281, -6.5853658, 18.5365849, 0.0327306
0.9233398, -0.1933594, -0.3154297, -29.7560978, -6.4634147, 18.7195129, -0.0035248
0.9296875, -0.1923828, -0.3295898, -28.2926826, -7.3780489, 18.6585369, -0.0285344
0.9399414, -0.175293, -0.3432617, -27.3780499, -8.2317076, 18.8414631, -0.0525368
0.9511719, -0.1674805, -0.3447266, -25.4268303, -8.9634151, 19.0853672, -0.0704967
0.9760742, -0.1630859, -0.3369141, -24.3902435, -9.6951218, 18.4146347, -0.0800641
0.9936523, -0.1694336, -0.324707, -24.0243912, -9.6951218, 17.8048782, -0.0770428
0.9951172, -0.1777344, -0.3188477, -23.7195129, -9.6951218, 17.1341476, -0.0750286
0.9785156, -0.1914062, -0.3149414, -23.3536587, -9.5121956, 16.5853653, -0.0733501
0.9711914, -0.1962891, -0.3188477, -23.3536587, -9.4512196, 16.4634151, -0.0782177
0.9487305, -0.2026367, -0.3339844, -22.8658543, -9.5731707, 16.6463413, -0.0840925
0.9418945, -0.2006836, -0.3432617, -21.5853672, -10.3048782, 16.9512196, -0.0827497
0.9448242, -0.1928711, -0.3691406, -20.8536587, -10.7317076, 16.9512196, -0.0817426
0.9477539, -0.1855469, -0.375, -20.060976, -11.5243902, 16.8292694, -0.0787213
0.9663086, -0.1875, -0.3911133, -19.8780499, -11.8902445, 16.4024391, -0.0767071
0.9755859, -0.1894531, -0.4003906, -19.6341476, -12.0121956, 15.6097565, -0.0730144
0.987793, -0.1982422, -0.3920898, -19.6951218, -11.4634151, 15, -0.0639506
0.9848633, -0.2026367, -0.3696289, -19.3292694, -11.4634151, 15.1219511, -0.040116
0.9858398, -0.206543, -0.3530273, -18.4146347, -10.6707315, 15.5487804, -0.0186313
0.9760742, -0.1992188, -0.3413086, -17.6219521, -10.7317076, 15.7317076, -0.0099031
0.9697266, -0.1982422, -0.3432617, -16.9512196, -10.4268293, 15, -0.0135958
0.9526367, -0.1870117, -0.3710938, -17.0121956, -10.4268293, 14.9390249, -0.0263523
0.9438477, -0.1845703, -0.3920898, -18.1707325, -10.7317076, 15.5487804, -0.0364233
0.9384766, -0.1757812, -0.4023438, -19.2073174, -11.280488, 15.7317076, -0.0330663
0.9448242, -0.1694336, -0.4003906, -20.1829281, -13.3536587, 15.9146347, -0.0498512
0.9594727, -0.1567383, -0.3745117, -20.9756107, -14.3902445, 16.0365849, -0.0532082
0.9672852, -0.1538086, -0.3642578, -21.6463413, -15.5487804, 15.5487804, -0.049012
0.9692383, -0.1464844, -0.3613281, -22.6829281, -16.280489, 14.8170738, -0.0498512
0.9570312, -0.1533203, -0.371582, -23.2317085, -16.5243912, 14.3902445, -0.0552224
0.9458008, -0.1625977, -0.3725586, -25.060976, -17.6219521, 14.7560978, -0.0599222
0.9194336, -0.1801758, -0.3671875, -25.6707325, -18.2317085, 14.8780489, -0.0527047
0.9091797, -0.1889648, -0.3525391, -26.5853672, -20.3658543, 16.1585369, -0.0438087
0.8852539, -0.1943359, -0.3251953, -26.280489, -21.2195129, 17.0121956, -0.0428016
0.8779297, -0.1972656, -0.3129883, -25.3048782, -23.2926826, 17.5, -0.0411231
0.8759766, -0.1967773, -0.309082, -24.5731716, -24.3292694, 17.5, -0.0421302
0.8764648, -0.1972656, -0.3134766, -23.9634151, -27.0731716, 15.8536587, -0.04448
0.8764648, -0.2084961, -0.3295898, -23.9024391, -28.4146347, 15.1829271, -0.040116
0.8740234, -0.215332, -0.3325195, -24.7560978, -31.7073174, 13.7195129, -0.0404517
0.8740234, -0.234375, -0.3369141, -24.6341476, -35.2439041, 12.9268293, -0.0370947
0.8798828, -0.25, -0.3422852, -24.3292694, -36.9512215, 12.9878054, -0.0354162
0.8828125, -0.2573242, -0.3481445, -22.9268303, -38.841465, 13.1707315, -0.030045
0.8955078, -0.253418, -0.3720703, -22.1951218, -39.8780479, 13.5365858, -0.0231632
0.902832, -0.2431641, -0.3833008, -20.7926826, -41.341465, 13.9024391, -0.0283665
0.9169922, -0.2192383, -0.4047852, -20.4878044, -41.8292694, 13.841464, -0.0352483
0.921875, -0.2050781, -0.4165039, -20.3658543, -43.5975609, 13.0487804, -0.043473
0.9277344, -0.1894531, -0.4355469, -20.9146347, -44.6951218, 13.0487804, -0.0605936
0.9399414, -0.190918, -0.4370117, -22.0121956, -46.6463432, 12.6219511, -0.0733501
0.9526367, -0.1928711, -0.4370117, -22.3780499, -47.4390259, 12.7439032, -0.0693217
0.9570312, -0.1948242, -0.4301758, -23.0487804, -48.9634171, 13.3536587, -0.0693217
0.9624023, -0.1992188, -0.4204102, -22.9268303, -49.8170738, 13.3536587, -0.0641184
0.9521484, -0.2060547, -0.4169922, -23.0487804, -50.3658562, 13.1707315, -0.0555581
0.9443359, -0.2070312, -0.4204102, -23.4146347, -51.8292694, 13.4756098, -0.0381018
0.9238281, -0.2060547, -0.4277344, -23.5975609, -52.4390259, 13.2317076, -0.0028534
0.9155273, -0.2055664, -0.4301758, -24.5121956, -54.4512215, 13.1097565, 0.0414588
0.9204102, -0.203125, -0.4291992, -25, -55.6097565, 13.1707315, 0.0501869
0.925293, -0.2016602, -0.4360352, -25.1219521, -57.5609779, 12.6219511, 0.0528725
0.9345703, -0.1972656, -0.4755859, -25.4878063, -58.2317085, 12.2560978, 0.0713359
0.9379883, -0.1928711, -0.4941406, -26.8292694, -58.3536606, 12.0121956, 0.085771
0.9487305, -0.184082, -0.5258789, -27.4390259, -58.1097565, 11.9512196, 0.0981918
0.9555664, -0.1796875, -0.5366211, -28.9024391, -58.1707344, 11.9512196, 0.0941634
0.9755859, -0.1806641, -0.5351562, -29.3902454, -59.0243912, 11.5243902, 0.0515297
0.9902344, -0.1796875, -0.5302734, -29.7560978, -59.2682953, 11.4634151, 0.0159457
0.9907227, -0.1821289, -0.5205078, -30.6097565, -59.3292694, 10.9756098, -0.0142672
0.980957, -0.1899414, -0.4995117, -31.4024391, -59.3292694, 10.9146347, -0.0337377
0.9682617, -0.1899414, -0.4926758, -32.8658562, -59.5731735, 10.6707315, -0.0337377
0.9321289, -0.1870117, -0.4936523, -33.6585388, -59.6341476, 10.7317076, -0.0119173
0.9145508, -0.1831055, -0.5053711, -34.9390259, -60.4268303, 11.0975609, 0.0119173
0.890625, -0.1743164, -0.5170898, -35.1829262, -61.5243912, 11.280488, 0.0320592
0.8881836, -0.1728516, -0.5175781, -36.2804871, -64.5121994, 11.5853662, 0.0419623
0.9038086, -0.184082, -0.5092773, -36.9512215, -66.2804871, 11.5853662, 0.0354162
0.9204102, -0.1943359, -0.5039062, -37.6219521, -70.18293, 10.7926836, 0.0092317
0.9467773, -0.2158203, -0.5004883, -38.6585388, -71.9512177, 10.1219511, -0.0216526
0.9599609, -0.2294922, -0.512207, -38.841465, -72.3780518, 10.060976, -0.0471656
0.9658203, -0.2290039, -0.5195312, -38.7804871, -72.68293, 9.8170738, -0.0753643
0.96875, -0.2211914, -0.5332031, -38.6585388, -72.8658524, 10.1219511, -0.082414
0.9692383, -0.2128906, -0.5424805, -38.5365868, -74.3292694, 10.060976, -0.0864424
0.9716797, -0.1972656, -0.5610352, -38.5975609, -74.8170776, 9.9390249, -0.0877852
0.9799805, -0.1904297, -0.5688477, -39.2682953, -76.0365906, 9.8170738, -0.0928206
0.9814453, -0.184082, -0.5859375, -39.9390259, -76.3414688, 9.6341467, -0.1059129
0.9833984, -0.1787109, -0.5922852, -40.9146347, -76.4634171, 9.3902445, -0.1109483
0.9868164, -0.1733398, -0.5947266, -40.8536606, -76.646347, 9.6341467, -0.1049058
0.9829102, -0.1757812, -0.5942383, -41.5243912, -76.646347, 9.8170738, -0.0861067
0.9804688, -0.1782227, -0.6010742, -42.0731735, -76.5243912, 9.2073174, -0.0676432
0.9746094, -0.1831055, -0.6157227, -42.6829262, -76.2195129, 9.2682924, -0.0652934
0.9648438, -0.1884766, -0.6186523, -43.5975609, -76.0365906, 9.3902445, -0.0575723
0.9575195, -0.1958008, -0.6035156, -43.6585388, -76.7073212, 9.1463413, -0.0508583
0.9594727, -0.203125, -0.5859375, -43.6585388, -77.6219559, 9.5121956, -0.0458228
0.9584961, -0.2124023, -0.5473633, -43.1707344, -78.3536606, 9.3902445, -0.0468299
0.9555664, -0.2172852, -0.5317383, -42.0121956, -79.7560959, 8.4146347, -0.0491798
0.9433594, -0.2241211, -0.5214844, -41.5853653, -80.0609741, 8.2926826, -0.0491798
0.9355469, -0.2260742, -0.5209961, -40.9756088, -81.2804871, 7.5609756, -0.0500191
0.9243164, -0.2275391, -0.5273438, -40.1219521, -82.9268341, 7.0121951, -0.0532082
0.9189453, -0.2241211, -0.5258789, -39.3902435, -84.5731735, 6.6463418, -0.0498512
0.9228516, -0.2128906, -0.5405273, -38.3536606, -87.2560959, 6.0975609, -0.0493477
0.9277344, -0.1923828, -0.5751953, -37.9878044, -88.0487823, 5.9756098, -0.04448
0.9272461, -0.1796875, -0.5942383, -37.9878044, -88.7195129, 6.3414636, -0.0370947
0.9350586, -0.1479492, -0.6235352, -38.0487823, -88.6585388, 6.5243902, -0.0270237
0.9404297, -0.1352539, -0.6220703, -39.2073174, -89.5121994, 6.6463418, -0.0216526
0.9516602, -0.1166992, -0.5981445, -39.4512215, -90.4878082, 6.3414636, -0.0092317
0.953125, -0.121582, -0.5771484, -40.3658562, -93.5365906, 6.0365853, 0.0025177
0.9526367, -0.1469727, -0.543457, -40.4268303, -94.8780518, 5.5487804, 0.0219883
0.9414062, -0.1586914, -0.5375977, -41.2804871, -96.646347, 5.8536587, 0.0451514
0.9052734, -0.1767578, -0.5493164, -42.0121956, -96.7682953, 6.8292685, 0.0726787
0.8896484, -0.1826172, -0.5722656, -42.0121956, -96.5853653, 7.6829271, 0.0904707
0.8618164, -0.1855469, -0.6342773, -42.0121956, -97.3170776, 9.0243902, 0.0864424
0.8540039, -0.1801758, -0.6923828, -42.0121956, -97.8048782, 9.3292685, 0.0629435
0.8574219, -0.1689453, -0.7036133, -42.1341476, -99.5121994, 9.8780489, 0.033402
0.8896484, -0.1494141, -0.6962891, -42.5609779, -100.18293, 10.3048782, 0.0132601
0.9018555, -0.1396484, -0.6787109, -43.2317085, -101.4634171, 10.6097565, -0.0073854
0.934082, -0.1342773, -0.6411133, -43.7804871, -101.7073212, 10.6707315, -0.0258488
0.9394531, -0.1303711, -0.6225586, -44.7560997, -101.4634171, 11.219512, -0.0454871
0.9287109, -0.1357422, -0.6206055, -45.4878044, -101.2804871, 11.219512, -0.0475013
0.9145508, -0.1411133, -0.6269531, -46.5243912, -101.0365906, 11.4634151, -0.0560616
0.8867188, -0.1523438, -0.6479492, -47.2560997, -102.3170776, 12.3780489, -0.0619364
0.8706055, -0.1557617, -0.668457, -47.6219521, -102.9268341, 12.9878054, -0.0621042
0.8608398, -0.15625, -0.6914062, -47.1951218, -104.5731735, 13.780488, -0.0632792
0.862793, -0.1513672, -0.7114258, -47.2560997, -105.2439041, 14.0243902, -0.0605936
0.8681641, -0.1489258, -0.7070312, -47.5, -106.0365906, 14.6951227, -0.0619364
0.8911133, -0.1503906, -0.6860352, -47.9268303, -106.646347, 14.7560978, -0.0626078
0.8959961, -0.1538086, -0.6713867, -49.0243912, -108.1097565, 14.8780489, -0.0669718
0.9077148, -0.1660156, -0.6523438, -49.2682953, -108.5975647, 14.6951227, -0.0716716
0.902832, -0.171875, -0.6567383, -49.0853653, -108.5975647, 14.6341467, -0.0666361
0.8842773, -0.1811523, -0.6855469, -48.9024391, -108.4146347, 15.1219511, -0.0666361
0.8730469, -0.1796875, -0.6958008, -48.7195129, -108.7195129, 15.4268293, -0.0720073
0.8647461, -0.1777344, -0.7084961, -48.5365868, -110, 16.2195129, -0.0777142
0.8642578, -0.1782227, -0.7114258, -48.2926826, -110.9146347, 16.280489, -0.0753643
0.871582, -0.1723633, -0.7026367, -48.2317085, -113.0487823, 16.5243912, -0.0750286
0.8808594, -0.1801758, -0.7055664, -48.0487823, -113.8414688, 16.3414631, -0.0807355
0.8823242, -0.1860352, -0.7138672, -48.5975609, -114.0243912, 15.9146347, -0.0770428
0.8833008, -0.1928711, -0.7192383, -48.841465, -114.0243912, 16.0975609, -0.0661326
0.8823242, -0.1904297, -0.7148438, -48.6585388, -114.3902435, 16.1585369, -0.0666361
0.8759766, -0.190918, -0.7211914, -48.1097565, -114.8780518, 16.0975609, -0.0652934
0.871582, -0.1894531, -0.7280273, -46.7073174, -115.5487823, 16.4024391, -0.0533761
0.8759766, -0.1904297, -0.7407227, -46.1585388, -115.7926865, 16.7073174, -0.0357519
0.8735352, -0.1943359, -0.7514648, -45.4878044, -116.7682953, 17.5, -0.0097353
0.8764648, -0.1943359, -0.7700195, -45.7317085, -117.0121994, 18.1097565, 0.0072175
0.8701172, -0.1855469, -0.7836914, -46.0975609, -116.8902435, 18.5975609, 0.0119173
0.871582, -0.1713867, -0.7983398, -46.5853653, -116.2195129, 19.4512196, 0.0196384
0.8847656, -0.1450195, -0.7890625, -47.0731735, -116.646347, 19.4512196, 0.0276951
0.887207, -0.1391602, -0.7768555, -47.6829262, -118.9024429, 19.2682934, 0.0354162
0.8955078, -0.1489258, -0.7695312, -48.2317085, -120.36586, 19.5121956, 0.0428016
0.8930664, -0.1577148, -0.7797852, -49.1463432, -121.3414688, 20, 0.0414588
0.8857422, -0.1777344, -0.8310547, -49.6951218, -120.8536606, 20.3048782, 0.0391089
0.8779297, -0.1777344, -0.8613281, -50.0609779, -119.3292694, 21.7073174, 0.036759
0.8759766, -0.1787109, -0.8896484, -50.6097565, -118.7804871, 22.6219521, 0.0330663
0.8789062, -0.1743164, -0.878418, -50.9146347, -119.8170776, 23.5365868, 0.0276951
0.9013672, -0.1772461, -0.8305664, -50.4878044, -121.8292694, 24.0853672, 0.0193027
0.9086914, -0.1884766, -0.8051758, -50.2439041, -122.4390259, 23.9634151, 0.0206455
0.90625, -0.21875, -0.7817383, -49.4512215, -122.68293, 24.0243912, 0.0172885
0.8823242, -0.2431641, -0.7836914, -48.841465, -122.5, 24.2682934, 0.0119173
0.8662109, -0.2519531, -0.7978516, -46.9512215, -121.4634171, 24.8170738, 0.0099031
0.8310547, -0.2583008, -0.8178711, -46.4024391, -120.9146347, 25.1829281, 0.0119173
0.8168945, -0.2543945, -0.8149414, -43.7804871, -120.7926865, 25.7926826, 0.0052033
0.8076172, -0.234375, -0.8046875, -42.5, -121.5853653, 26.0975609, -0.0005035
0.809082, -0.2226562, -0.8076172, -40.7317085, -123.7804871, 26.0975609, -0.0035248
0.8139648, -0.1826172, -0.8374023, -40.6097565, -124.8170776, 26.4024391, -0.0052033
0.8144531, -0.1577148, -0.8515625, -41.6463432, -125.36586, 26.4634151, -0.005539
0.8261719, -0.1264648, -0.8671875, -42.9878044, -126.0365906, 27.1341476, 0.0001678
0.8383789, -0.1235352, -0.8642578, -43.7804871, -127.1341476, 27.0121956, -0.0015106
0.8520508, -0.1572266, -0.8505859, -45.1219521, -130.0609741, 27.6219521, -0.0031891
0.8618164, -0.2197266, -0.8349609, -45.4878044, -130.9756165, 27.6219521, -0.0129244
0.8564453, -0.2460938, -0.8349609, -45.3658562, -131.4024353, 28.3536587, -0.0203098
0.8378906, -0.2792969, -0.8417969, -44.5121956, -130.9146423, 28.4146347, -0.0231632
0.8208008, -0.2763672, -0.847168, -41.7073174, -129.0853729, 28.841465, -0.0243381
0.7802734, -0.2524414, -0.8481445, -39.8780479, -128.5975647, 28.7195129, -0.0236667
0.7641602, -0.234375, -0.8510742, -36.9512215, -128.6585388, 28.1097565, -0.0213169
0.746582, -0.1938477, -0.8730469, -36.4634171, -129.2682953, 27.6829281, -0.0216526
0.7456055, -0.1806641, -0.8955078, -36.7073174, -130.2439117, 27.4390259, -0.0209812
0.7514648, -0.1625977, -0.9394531, -38.6585388, -130.9146423, 27.2560978, -0.018967
0.7753906, -0.1635742, -0.9492188, -39.6341476, -131.4634247, 27.4390259, -0.01561
0.7871094, -0.175293, -0.934082, -41.5243912, -132.5609741, 27.6219521, -0.0099031
0.8081055, -0.2045898, -0.8955078, -41.7073174, -133.3536682, 27.8048782, -0.0052033
0.8095703, -0.2236328, -0.8754883, -41.1585388, -132.9878082, 28.2926826, -0.0008392
0.7880859, -0.2548828, -0.8505859, -40.0609779, -131.8292694, 28.5365868, 0.008896
0.7636719, -0.2607422, -0.8535156, -36.7073174, -129.2682953, 28.4756107, 0.0075532
0.7080078, -0.2646484, -0.8769531, -35, -128.0487823, 28.4146347, 0.0104067
0.6801758, -0.2568359, -0.8994141, -32.7439041, -127.0731735, 28.5365868, 0.0219883
0.6518555, -0.2270508, -0.9462891, -32.1951218, -127.4390259, 28.6585369, 0.0307164
0.6508789, -0.2133789, -0.9692383, -32.1951218, -129.0853729, 28.5975609, 0.0411231
0.6845703, -0.1943359, -0.9916992, -34.1463432, -131.8902435, 28.841465, 0.0240024
0.7368164, -0.2011719, -0.9750977, -35.1829262, -133.1097565, 28.6585369, 0.0063783
0.7602539, -0.2075195, -0.9541016, -36.341465, -133.7804871, 28.841465, 0.0045319
0.7856445, -0.2158203, -0.9038086, -36.4024391, -133.2926788, 28.841465, 0.011078
0.7832031, -0.2211914, -0.8911133, -34.6341476, -130.5487823, 28.780489, 0.0186313
0.7451172, -0.2270508, -0.9008789, -33.5365868, -128.8414612, 28.9634151, 0.0219883
0.7216797, -0.2290039, -0.9194336, -31.5243912, -126.8902435, 29.4512196, 0.018967
0.6708984, -0.2387695, -0.9619141, -30.9756107, -126.7073212, 29.4512196, 0.0129244
0.6513672, -0.237793, -0.9838867, -31.0975609, -127.9878082, 29.3902454, 0.0132601
0.637207, -0.2314453, -1.012207, -31.4024391, -128.2926788, 29.5731716, 0.0082246
0.6474609, -0.2250977, -1.0078125, -32.0121956, -129.5121918, 29.6341476, -0.0023499
0.6738281, -0.2231445, -0.9765625, -32.0121956, -131.2804871, 29.2073174, -0.0045319
0.6967773, -0.2333984, -0.9238281, -31.6463413, -132.0121918, 28.780489, -0.0043641
0.7021484, -0.2451172, -0.9140625, -31.0975609, -133.4146423, 28.2926826, 0.0005035
0.6899414, -0.2744141, -0.9213867, -30.6097565, -133.2926788, 27.9878063, -0.0018463
0.6694336, -0.2905273, -0.9428711, -29.5121956, -132.1341553, 28.780489, -0.0193027
0.628418, -0.2861328, -0.9746094, -28.780489, -131.4024353, 28.9634151, -0.0409552
0.6118164, -0.2753906, -0.984375, -27.1341476, -132.0731812, 28.7195129, -0.0532082
0.6040039, -0.2583008, -0.9804688, -26.3414631, -133.1097565, 28.1097565, -0.0555581
0.6074219, -0.2539062, -0.9755859, -25.1219521, -135.9146423, 27.0121956, -0.0533761
0.6210938, -0.2368164, -0.9892578, -25.6097565, -136.7682953, 26.9512196, -0.0572366
0.6245117, -0.230957, -1.0107422, -26.0975609, -137.0731812, 27.2560978, -0.0569009
0.6337891, -0.2285156, -1.0800781, -26.0975609, -136.0365906, 27.9268303, -0.0404517
0.6621094, -0.2324219, -1.1137695, -26.0365868, -135.4878082, 28.4756107, -0.0139315
0.6787109, -0.2260742, -1.1030273, -25.3658543, -135.4268341, 29.5731716, 0.0139315
0.7138672, -0.2182617, -1.0297852, -25.3048782, -135.5487823, 29.7560978, 0.0310521
0.7216797, -0.2182617, -0.9838867, -24.6951218, -134.0243988, 29.0243912, 0.0428016
0.6860352, -0.2226562, -0.9282227, -24.5121956, -132.86586, 28.4146347, 0.0320592
0.6445312, -0.2348633, -0.9316406, -23.6585369, -130.4878082, 27.2560978, 0.0162814
0.5541992, -0.2563477, -0.9755859, -23.2317085, -130.4268341, 27.2560978, 0.0038605
0.5146484, -0.2617188, -1.0004883, -22.3780499, -132.2561035, 27.560976, -0.0112459
0.4785156, -0.2553711, -1.0458984, -21.7073174, -133.5365906, 27.9878063, -0.0068818
0.4824219, -0.25, -1.0595703, -20.6097565, -137.0121918, 28.4146347, 0.0199741
0.5273438, -0.2250977, -1.065918, -20.7926826, -139.3902435, 28.4146347, 0.0407874
0.5932617, -0.2128906, -1.0668945, -21.5243912, -139.8780518, 28.4146347, 0.0253452
0.6220703, -0.2148438, -1.0576172, -21.8292694, -139.2682953, 28.841465, 0.0243381
0.6489258, -0.2216797, -1.0253906, -21.5853672, -138.3536682, 28.9634151, 0.0290379
0.6513672, -0.2324219, -1.0063477, -20.5487804, -136.4634247, 29.3902454, 0.0310521
0.6123047, -0.2421875, -0.9868164, -19.2682934, -135.1829224, 29.2682934, 0.030045
0.5810547, -0.2470703, -0.9887695, -17.8048782, -133.2926788, 29.0243912, 0.026688
0.5200195, -0.2382812, -1.0112305, -17.0121956, -133.1707306, 28.780489, 0.0280308
0.4902344, -0.2294922, -1.03125, -16.280489, -134.3902435, 27.9878063, 0.0263523
0.4604492, -0.2158203, -1.0664062, -16.6463413, -135.8536682, 27.560976, 0.0203098
0.4584961, -0.203125, -1.0737305, -18.0487804, -139.2682953, 27.1341476, 0.0099031
0.4819336, -0.1787109, -1.0673828, -19.6951218, -142.1951294, 26.4024391, -0.005539
0.5200195, -0.1533203, -1.0571289, -20.3048782, -142.9268341, 26.4024391, -0.0229953
0.5322266, -0.15625, -1.0649414, -21.4634151, -142.2561035, 25.6707325, -0.0404517
0.5512695, -0.1845703, -1.0961914, -22.0731716, -141.3414612, 25.9756107, -0.0458228
0.5483398, -0.2089844, -1.1054688, -22.9268303, -140.2439117, 27.0731716, -0.0592508
0.5493164, -0.25, -1.0927734, -22.8048782, -139.5731812, 27.1341476, -0.0842603
0.5463867, -0.2666016, -1.0644531, -20.9756107, -139.146347, 26.8902454, -0.0916457
0.5224609, -0.2836914, -1.0253906, -19.3902435, -138.5975647, 26.1585369, -0.0923171
0.4995117, -0.2866211, -1.0214844, -16.280489, -136.5853729, 24.6341476, -0.0881209
0.4482422, -0.2724609, -1.0292969, -15.060976, -135.9756165, 23.9634151, -0.068986
0.4238281, -0.253418, -1.0292969, -12.7439032, -136.4024353, 22.8658543, -0.0616007
0.3959961, -0.2236328, -1.0258789, -11.7682934, -139.3902435, 20.5487804, -0.0636149
0.3793945, -0.2070312, -1.0258789, -11.7682934, -140.9146423, 19.5731716, -0.0585794
0.3798828, -0.2099609, -1.0385742, -12.1951218, -143.7195129, 18.8414631, -0.0560616
0.390625, -0.2236328, -1.0703125, -12.6219511, -144.4512177, 18.7195129, -0.0431373
0.3989258, -0.2270508, -1.0947266, -12.6219511, -145.5487823, 19.2682934, -0.0347448
0.4213867, -0.2192383, -1.1499023, -12.5, -145.2439117, 19.5121956, -0.0560616
0.4350586, -0.2055664, -1.1650391, -11.7073174, -144.5731812, 19.939024, -0.0508583
0.4677734, -0.1723633, -1.1787109, -11.8902445, -144.2073212, 20.1829281, -0.0313878
0.4804688, -0.1586914, -1.1757812, -12.6219511, -142.9878082, 20.1219521, -0.0307164
0.4848633, -0.128418, -1.1611328, -13.4756098, -142.0121918, 20.3048782, -0.0411231
0.4814453, -0.1196289, -1.1508789, -16.0975609, -139.9390259, 20.2439022, -0.0605936
0.4658203, -0.1401367, -1.1035156, -18.2317085, -140.0609741, 20.3048782, -0.0743572
0.4404297, -0.2021484, -1.043457, -18.7195129, -141.4024353, 20.2439022, -0.0827497
0.4165039, -0.2421875, -1.0229492, -18.5365849, -142.9268341, 19.8170738, -0.0891279
0.3583984, -0.2949219, -1.0073242, -17.3780499, -143.1097565, 19.6951218, -0.0850996
0.3251953, -0.3105469, -1.015625, -13.1097565, -142.3780518, 18.9024391, -0.0854353
0.269043, -0.296875, -1.0629883, -10.9756098, -142.1341553, 18.2317085, -0.0894636
0.2509766, -0.2749023, -1.097168, -8.1707315, -143.1707306, 17.3780499, -0.0963455
0.2578125, -0.2158203, -1.1689453, -7.3170733, -144.3902435, 16.4024391, -0.0965133
0.2856445, -0.1777344, -1.1899414, -8.3536587, -148.1707306, 15.7926836, -0.0975204
0.359375, -0.1293945, -1.1884766, -9.5121956, -150.4268341, 15.6097565, -0.0961776
0.3979492, -0.121582, -1.1582031, -12.6829271, -153.0487823, 15.4268293, -0.096849
0.4536133, -0.1386719, -1.0844727, -14.3292685, -151.4634247, 15.9756098, -0.0928206
0.425293, -0.1640625, -1.0791016, -14.3292685, -149.0243988, 16.2195129, -0.0918135
0.3896484, -0.1791992, -1.1025391, -12.7439032, -143.7804871, 16.8902435, -0.0882887
0.3051758, -0.2026367, -1.15625, -12.0731707, -142.3780518, 17.6829281, -0.0820783
0.2753906, -0.21875, -1.1733398, -10.7317076, -142.9268341, 18.7195129, -0.0820783
0.2568359, -0.2270508, -1.1835938, -10.3048782, -144.6951294, 18.9024391, -0.0827497
0.2709961, -0.2299805, -1.1757812, -9.9390249, -147.9878082, 18.4146347, -0.0847639
0.2993164, -0.215332, -1.1518555, -9.8780489, -148.5975647, 18.1097565, -0.0795605
0.3139648, -0.1958008, -1.1469727, -10.1219511, -147.9878082, 16.8902435, -0.0639506
0.3212891, -0.1435547, -1.144043, -11.219512, -145.5487823, 15.4268293, -0.0532082
0.3144531, -0.1181641, -1.1333008, -12.1341467, -144.9390259, 14.8170738, -0.0399481
0.2749023, -0.0942383, -1.0751953, -14.9390249, -146.1585388, 13.5365858, -0.0297093
0.2114258, -0.125, -1.0336914, -16.4024391, -147.6829376, 13.1097565, -0.026688
0.175293, -0.1518555, -1.0322266, -18.1707325, -150.1829376, 14.5731707, -0.023331
0.125, -0.2045898, -1.0751953, -17.7439022, -151.0365906, 15.6097565, -0.018967
0.1123047, -0.222168, -1.1098633, -15.7926836, -152.8048859, 17.7439022, -0.0075532
0.125, -0.2329102, -1.1699219, -14.2682934, -153.6585388, 18.4146347, 0.0146029
0.1474609, -0.2353516, -1.1811523, -11.5853662, -156.8292694, 18.9634151, 0.0240024
0.2138672, -0.2041016, -1.1513672, -10.9756098, -157.9878082, 18.9634151, 0.0137636
0.2446289, -0.1870117, -1.1367188, -10.8536587, -158.4146423, 18.0487804, 0.0206455
0.2719727, -0.1503906, -1.1396484, -11.7073174, -154.6341553, 17.0121956, 0.0424659
0.2626953, -0.1362305, -1.1601562, -12.6219511, -152.5, 17.1951218, 0.072343
0.2260742, -0.1191406, -1.1860352, -13.780488, -150.36586, 18.0487804, 0.0871138
0.1958008, -0.1025391, -1.1806641, -14.3292685, -150.36586, 18.2317085, 0.0830854
0.1787109, -0.0961914, -1.1787109, -15.3658543, -150.7317047, 17.9268303, 0.0703288
0.1533203, -0.0986328, -1.190918, -16.7682934, -150.4878082, 17.8658543, 0.0542153
0.1469727, -0.1044922, -1.1928711, -19.0853672, -150.4268341, 18.7195129, 0.0414588
0.1586914, -0.1386719, -1.1630859, -20.4878044, -151.0365906, 19.2682934, 0.0354162
0.1625977, -0.1635742, -1.1542969, -21.6463413, -152.6829376, 19.4512196, 0.0290379
0.1777344, -0.2265625, -1.1577148, -21.1585369, -152.6219482, 19.939024, 0.0251774
0.175293, -0.2558594, -1.1791992, -18.7195129, -149.2682953, 21.7073174, 0.0186313
0.1791992, -0.28125, -1.1870117, -14.5731707, -145.4878082, 22.5, 0.0119173
0.1791992, -0.2670898, -1.1791992, -12.6219511, -144.0853729, 22.1341476, 0.0082246
0.1606445, -0.2026367, -1.1469727, -10.2439022, -141.5853729, 19.939024, 0.0038605
0.121582, -0.1269531, -1.1391602, -10.6097565, -140.0609741, 18.5365849, 0.0078889
0.1010742, -0.09375, -1.1396484, -14.0853662, -139.3292694, 16.8902435, 0.002182
0.0698242, -0.0585938, -1.1367188, -16.8292694, -140.36586, 16.5243912, -0.0058747
0.0566406, -0.0649414, -1.1225586, -22.5, -144.0853729, 16.7073174, -0.0193027
0.0537109, -0.1030273, -1.0947266, -24.5121956, -145.6707306, 17.1341476, -0.0260166
0.0532227, -0.1333008, -1.0913086, -26.2195129, -146.8292694, 18.5365849, -0.033402
0.0620117, -0.1875, -1.1210938, -25.8536587, -146.3414612, 19.8170738, -0.04448
0.0712891, -0.206543, -1.1333008, -23.4146347, -144.0853729, 22.3170738, -0.0518654
0.0947266, -0.2099609, -1.1191406, -21.3414631, -142.9268341, 22.6219521, -0.0555581
0.1005859, -0.1992188, -1.097168, -20.7926826, -142.5609741, 21.5853672, -0.0558938
0.0825195, -0.1796875, -1.0595703, -20.9146347, -141.7073212, 19.8170738, -0.0595865
0.0366211, -0.1665039, -1.0253906, -21.5853672, -141.5853729, 18.9634151, -0.0642863
0.0131836, -0.1582031, -1.0214844, -23.4146347, -141.9512177, 18.2317085, -0.0669718
-0.0327148, -0.1494141, -1.0478516, -23.9634151, -142.0731812, 17.9268303, -0.0679789
-0.0488281, -0.1445312, -1.0776367, -24.4512196, -143.1707306, 17.8658543, -0.0894636
-0.0463867, -0.1621094, -1.1132812, -24.6341476, -144.6341553, 18.1707325, -0.1082628
-0.0219727, -0.1748047, -1.1044922, -24.6341476, -149.0853729, 19.0243912, -0.0985275
0.0302734, -0.1938477, -1.0649414, -24.1463413, -150.4268341, 19.0853672, -0.0834211
0.0537109, -0.2055664, -1.059082, -22.9878063, -149.5731812, 18.5365849, -0.0716716
0.0527344, -0.2104492, -1.1035156, -22.0121956, -143.9634247, 19.3292694, -0.0540475
0.0429688, -0.199707, -1.1337891, -21.280489, -140.7926788, 20.1219521, -0.0243381
0.0341797, -0.1542969, -1.1689453, -20.5487804, -137.3780518, 20.060976, 0.0172885
0.0327148, -0.1166992, -1.1577148, -20.3658543, -137.3780518, 19.6341476, 0.0609293
0.0395508, -0.1040039, -1.1376953, -21.9512196, -139.5731812, 18.9634151, 0.082414
0.0522461, -0.0849609, -1.1020508, -23.8414631, -140.1219482, 18.7195129, 0.0887922
0.0473633, -0.0805664, -1.0791016, -27.560976, -139.2073212, 18.5365849, 0.0822461
0.0146484, -0.0825195, -1.0166016, -29.5121956, -138.1097565, 18.2926826, 0.0726787
-0.0092773, -0.0947266, -0.996582, -31.341465, -137.3170776, 18.2317085, 0.0327306
-0.0722656, -0.1298828, -0.9995117, -31.7073174, -137.1341553, 18.4756107, 0.0112459
-0.1020508, -0.1489258, -1.0200195, -31.4024391, -137.0731812, 20.1829281, 0.0149386
-0.1303711, -0.1748047, -1.0581055, -30.4268303, -138.1097565, 22.439024, 0.0223239
-0.1274414, -0.1791992, -1.0610352, -29.6341476, -138.9634247, 22.6829281, 0.026688
-0.1088867, -0.1582031, -1.0380859, -27.4390259, -140.4878082, 21.8292694, 0.0297093
-0.0864258, -0.1171875, -1.0126953, -27.1951218, -140.7317047, 20.7317085, 0.0179599
-0.0761719, -0.1108398, -1, -27.6219521, -141.0365906, 20.1829281, 0.0166171
-0.0629883, -0.1298828, -0.9614258, -28.1097565, -141.646347, 19.939024, 0.0219883
-0.0654297, -0.1518555, -0.940918, -29.0243912, -141.646347, 21.0975609, 0.0236667
-0.0976562, -0.2026367, -0.8969727, -28.2317085, -141.4634247, 21.5853672, 0.0146029
-0.1210938, -0.21875, -0.9072266, -24.8170738, -137.5609741, 22.0731716, 0.0075532
-0.1899414, -0.2104492, -1.0102539, -22.439024, -134.3902435, 22.1951218, 0.0052033
-0.2167969, -0.1992188, -1.0727539, -19.939024, -129.8170776, 22.9268303, 0.0025177
-0.2172852, -0.1489258, -1.1142578, -20, -133.8414612, 22.7439022, -0.0062104
-0.1904297, -0.1230469, -1.081543, -20.3658543, -138.9024353, 21.8902435, -0.0196384
-0.1118164, -0.1074219, -0.9833984, -21.5853672, -147.3170776, 19.5121956, -0.0377661
-0.0634766, -0.1333008, -0.9614258, -22.0731716, -148.1097565, 19.2682934, -0.0491798
-0.0551758, -0.1533203, -0.984375, -23.0487804, -141.3414612, 21.6463413, -0.0592508
-0.0727539, -0.1816406, -1.0615234, -23.5365868, -136.5853729, 23.5975609, -0.0632792
-0.0942383, -0.1713867, -1.0874023, -22.5, -128.1707306, 24.6341476, -0.0726787
-0.1386719, -0.1274414, -1.0805664, -21.6463413, -126.2195129, 23.8414631, -0.0780499
-0.159668, -0.1044922, -1.0595703, -20.3048782, -127.3170776, 20.9756107, -0.0827497
-0.1772461, -0.0878906, -1.0141602, -20.8536587, -130.4878082, 20.6707325, -0.0856031
-0.1704102, -0.1025391, -1.0009766, -24.1463413, -136.2195129, 22.0731716, -0.0914778
-0.1484375, -0.1269531, -0.9824219, -28.2317085, -137.5, 24.2073174, -0.0847639
-0.1547852, -0.1088867, -0.9975586, -29.4512196, -135.7926788, 24.6951218, -0.0807355
-0.1738281, -0.0859375, -1.015625, -31.280489, -130.2439117, 22.8658543, -0.0713359
-0.2226562, -0.0400391, -1.0551758, -32.8658562, -128.3536682, 22.1341476, -0.0592508
-0.2324219, -0.0322266, -1.0664062, -36.4634171, -130.3048859, 22.560976, -0.0553902
-0.206543, -0.0600586, -1.0439453, -38.841465, -133.2317047, 23.4756107, -0.040116
-0.1757812, -0.0800781, -1.0224609, -43.1707344, -139.5731812, 24.5731716, -0.0508583
-0.1269531, -0.1298828, -0.9628906, -43.9634171, -140.9756165, 25.2439022, -0.0448157
-0.1181641, -0.1518555, -0.940918, -44.4512215, -138.6585388, 24.8780499, -0.036759
-0.1425781, -0.1630859, -0.9448242, -43.9024391, -135.2439117, 24.5731716, -0.0297093
-0.1733398, -0.1557617, -0.9760742, -43.2926826, -126.646347, 24.0243912, -0.0166171
-0.2285156, -0.1376953, -1.0361328, -43.1097565, -122.2561035, 24.4512196, -0.0135958
-0.2290039, -0.137207, -1.0556641, -43.2926826, -122.9878082, 24.3292694, -0.0240024
-0.2114258, -0.1474609, -1.0405273, -42.8048782, -128.1707306, 24.2073174, -0.0327306
-0.1625977, -0.1801758, -0.9736328, -42.3780479, -130.8536682, 23.5365868, -0.0404517
-0.1430664, -0.1967773, -0.9389648, -40.3658562, -131.0365906, 22.2560978, -0.0377661
-0.137207, -0.2216797, -0.9018555, -39.1463432, -128.1097565, 21.6463413, -0.0293736
-0.1542969, -0.2167969, -0.9038086, -36.5853653, -119.3902435, 20.9146347, -0.0213169
-0.2280273, -0.190918, -0.9208984, -35.4878044, -115.2439041, 21.0365868, -0.0149386
-0.2646484, -0.1655273, -0.9179688, -33.5365868, -111.0365906, 20.6097565, -0.0082246
-0.3222656, -0.1030273, -0.9052734, -32.8658562, -111.7682953, 19.6951218, -0.0062104
-0.3427734, -0.078125, -0.9111328, -32.9268303, -116.4634171, 17.8048782, -0.0078889
-0.3466797, -0.0722656, -0.956543, -34.0853653, -121.2195129, 17.7439022, -0.0119173
-0.3007812, -0.1166992, -0.9780273, -35, -123.5975647, 18.8414631, -0.0176242
-0.265625, -0.144043, -0.9707031, -35.7926826, -125.7926865, 20.9146347, -0.0198062
-0.2089844, -0.1782227, -0.9584961, -34.9390259, -125.3048782, 21.5853672, -0.0169528
-0.1972656, -0.1791992, -0.9506836, -32.0121956, -120.0609818, 21.7682934, -0.0176242
-0.2041016, -0.1494141, -0.9492188, -30.6097565, -117.0121994, 21.8902435, -0.0182956
-0.2158203, -0.1157227, -0.9506836, -29.6341476, -112.9878082, 21.1585369, -0.0149386
-0.2470703, -0.0610352, -0.9790039, -30.7926846, -111.7682953, 20.6097565, -0.0109102
-0.2661133, -0.0458984, -0.9980469, -34.8780479, -112.0731735, 19.6951218, -0.0095674
-0.2949219, -0.0390625, -1.0014648, -37.5609779, -112.9878082, 19.6951218, -0.0196384
-0.2983398, -0.0458984, -0.9643555, -41.2804871, -116.7682953, 19.6951218, -0.0345769
-0.2910156, -0.0527344, -0.8564453, -42.9268303, -120.0609818, 18.5975609, -0.0501869
-0.3085938, -0.0629883, -0.7954102, -43.4146347, -120.5487823, 17.7439022, -0.0673075
-0.3383789, -0.0654297, -0.8041992, -43.841465, -118.1707382, 17.1951218, -0.0767071
-0.4008789, -0.0668945, -0.8691406, -44.9390259, -116.1585388, 17.439024, -0.0793927
-0.4267578, -0.0703125, -0.9077148, -47.8048782, -114.8170776, 18.9634151, -0.0710002
-0.4389648, -0.078125, -0.9404297, -49.3902435, -116.0365906, 19.5121956, -0.0626078
-0.4262695, -0.0927734, -0.9326172, -49.6951218, -121.4634171, 19.2073174, -0.0421302
-0.3823242, -0.1157227, -0.9013672, -49.1463432, -124.3292694, 18.4756107, -0.0196384
-0.3598633, -0.1230469, -0.8789062, -46.8902435, -126.4634171, 18.0487804, -0.008896
-0.3198242, -0.1162109, -0.8422852, -45.4878044, -125.2439041, 17.9878044, 0.005539
-0.3125, -0.109375, -0.8359375, -43.6585388, -119.9390259, 17.0731716, 0.0105745
-0.324707, -0.1074219, -0.831543, -42.6829262, -113.7804871, 15.7926836, 0.0213169
-0.3564453, -0.1181641, -0.8305664, -42.0121956, -111.9512253, 15.2439032, 0.0287022
-0.3813477, -0.1342773, -0.8393555, -39.8780479, -110.5487823, 15.4268293, 0.0260166
-0.4199219, -0.1621094, -0.8735352, -38.5365868, -110.18293, 15.7926836, 0.0095674
-0.4296875, -0.1660156, -0.8823242, -34.5121956, -110.1219559, 17.9268303, -0.0035248
-0.4189453, -0.15625, -0.871582, -32.5, -110.2439041, 18.7195129, -0.0112459
-0.4067383, -0.137207, -0.8515625, -28.5365868, -110.4878082, 17.8048782, -0.0179599
-0.3945312, -0.1079102, -0.8125, -26.7682934, -110.36586, 16.3414631, -0.0292058
-0.3964844, -0.0952148, -0.7988281, -24.6951218, -109.6951218, 13.1707315, -0.0332341
-0.4003906, -0.1049805, -0.7861328, -24.5121956, -109.6951218, 12.9268293, -0.036759
-0.4072266, -0.1142578, -0.8022461, -24.8780499, -110.2439041, 13.2317076, -0.0384375
-0.4282227, -0.1132812, -0.8564453, -25.8536587, -109.4512253, 14.4512196, -0.0391089
-0.4482422, -0.0844727, -0.8852539, -25.7317085, -109.6951218, 15.4878054, -0.0424659
-0.4550781, -0.0605469, -0.8691406, -25.6097565, -110.7317123, 16.6463413, -0.0354162
-0.4487305, 0.0014648, -0.8447266, -25.3658543, -111.7682953, 16.6463413, -0.0377661
-0.4487305, 0.0361328, -0.8442383, -26.9512196, -112.5609818, 15.1829271, -0.0354162
-0.4619141, 0.0849609, -0.8374023, -29.3292694, -112.3780518, 14.5121956, -0.0350805
-0.4667969, 0.0908203, -0.8291016, -36.5853653, -112.2561035, 14.6341467, -0.0320592
-0.46875, 0.0561523, -0.7617188, -40.7317085, -113.6585388, 14.6951227, -0.0297093
-0.4692383, 0.0214844, -0.7255859, -47.0731735, -118.2317123, 15.2439032, -0.0317235
-0.4760742, -0.0605469, -0.7050781, -49.3292694, -120.1219559, 15.7926836, -0.0276951
-0.4882812, -0.0957031, -0.7207031, -50.5487823, -119.8170776, 17.6219521, -0.0219883
-0.5283203, -0.1210938, -0.7680664, -49.8780518, -115.7926865, 20.1219521, -0.018967
-0.5625, -0.0991211, -0.7441406, -49.5121956, -114.2682953, 20.2439022, -0.0256809
-0.5766602, -0.0708008, -0.7104492, -48.4146347, -113.6585388, 18.1097565, -0.0243381
-0.6035156, -0.0175781, -0.6469727, -48.5975609, -114.8170776, 15.7317076, -0.018967
-0.6171875, 0.0009766, -0.6279297, -49.6341476, -117.9268341, 12.7439032, -0.0179599
-0.6362305, -0.0097656, -0.6015625, -51.4634171, -120, 12.4390249, -0.01561
-0.6357422, -0.0283203, -0.5922852, -54.5121956, -123.7804871, 13.7195129, -0.0176242
-0.6298828, -0.0844727, -0.590332, -55.9756126, -125.7926865, 14.7560978, -0.0330663
-0.6210938, -0.1088867, -0.5966797, -55.8536606, -126.9512253, 16.4024391, -0.043473
-0.6176758, -0.1318359, -0.6518555, -54.2073174, -125.6097565, 16.6463413, -0.0592508
-0.612793, -0.1313477, -0.6958008, -49.3292694, -119.7561035, 17.3780499, -0.064622
-0.6000977, -0.105957, -0.7543945, -44.7560997, -113.4146347, 16.7073174, -0.0605936
-0.5585938, -0.0869141, -0.7226562, -42.4390259, -112.0731735, 15.6097565, -0.0480049
-0.53125, -0.0839844, -0.6806641, -38.7195129, -112.0731735, 12.3170738, -0.0384375
-0.4921875, -0.090332, -0.590332, -37.5609779, -112.0731735, 10.5487804, -0.0062104
-0.4838867, -0.1010742, -0.574707, -36.0365868, -109.6951218, 7.8658538, 0.0411231
-0.5092773, -0.1225586, -0.605957, -35.7926826, -106.2804871, 8.0487804, 0.0891279
-0.5327148, -0.1308594, -0.6464844, -35.9146347, -97.1341476, 10.1219511, 0.1394827
-0.578125, -0.1132812, -0.703125, -35.3048782, -92.8048782, 11.4634151, 0.1681849
-0.5932617, -0.0957031, -0.7197266, -33.1097565, -87.1951218, 11.6463413, 0.1562676
-0.6103516, -0.0371094, -0.7441406, -31.341465, -85.6097565, 10.6097565, 0.142504
-0.6074219, -0.0112305, -0.7470703, -29.2682934, -85.6097565, 7.9268293, 0.1253834
-0.578125, 0.0029297, -0.730957, -29.9390259, -89.2073212, 7.0121951, 0.0981918
-0.5039062, -0.0307617, -0.6708984, -31.0365868, -90.9756088, 7.1951222, 0.0745251
-0.4716797, -0.0576172, -0.644043, -32.6219521, -92.0731735, 7.5, 0.0501869
-0.449707, -0.0786133, -0.6381836, -33.1097565, -89.9390259, 7.6829271, 0.0219883
-0.4677734, -0.0585938, -0.6567383, -33.9024391, -79.6951218, 8.6585369, -0.0062104
-0.5336914, 0.0039062, -0.706543, -34.0853653, -73.3536606, 9.4512196, -0.0203098
-0.5708008, 0.0375977, -0.7133789, -35, -65.3048782, 10.060976, -0.0263523
-0.6103516, 0.046875, -0.6904297, -35.9146347, -65.2439041, 10.3048782, -0.0340734
-0.6113281, 0.03125, -0.6635742, -38.4146347, -72.3780518, 11.219512, -0.0493477
-0.5844727, -0.0146484, -0.6362305, -40.8536606, -78.9634171, 12.0731707, -0.0619364
-0.5722656, -0.0297852, -0.6381836, -42.2560997, -78.7195129, 12.3780489, -0.0706645
-0.5644531, -0.0361328, -0.6396484, -43.5975609, -73.5975647, 12.0731707, -0.0800641
-0.5791016, -0.0302734, -0.5878906, -44.0243912, -70.9146347, 11.7073174, -0.0874495
-0.5961914, -0.0263672, -0.5473633, -44.1463432, -69.4512177, 10.1219511, -0.0864424
-0.6333008, -0.0214844, -0.515625, -44.2073174, -69.9390259, 9.3902445, -0.0814069
-0.6621094, -0.0180664, -0.5400391, -45.7317085, -71.0975647, 9.3292685, -0.0834211
-0.7094727, -0.0087891, -0.6328125, -47.0121956, -71.3414688, 9.5731707, -0.0904707
-0.7167969, -0.0087891, -0.659668, -50.3658562, -71.5853653, 12.0121956, -0.0887922
-0.6962891, -0.0219727, -0.637207, -51.2804909, -73.4146347, 12.1951218, -0.0921492
-0.6743164, -0.0385742, -0.6010742, -50.4268303, -78.6585388, 10.5487804, -0.0941634
-0.6235352, -0.0693359, -0.5615234, -48.1097565, -81.4024429, 9.0243902, -0.0998703
-0.6123047, -0.0834961, -0.5825195, -46.7073174, -80.3048782, 8.841464, -0.103563
-0.6000977, -0.0800781, -0.6606445, -46.0365868, -73.1707306, 10.2439022, -0.1055772
-0.5957031, -0.0546875, -0.6796875, -45.3048782, -69.2682953, 11.0975609, -0.0941634
-0.5961914, -0.0336914, -0.6572266, -43.7804871, -64.5731735, 10.060976, -0.0686503
-0.6025391, -0.019043, -0.5771484, -42.8048782, -64.2682953, 8.719512, -0.0558938
-0.6108398, -0.0263672, -0.5507812, -39.8780479, -64.9390259, 6.9512196, -0.0558938
-0.640625, -0.0395508, -0.5537109, -39.2073174, -65.1219559, 7.3780489, -0.0498512
-0.6591797, -0.0375977, -0.5805664, -38.5365868, -63.2926826, 9.2682924, -0.0354162
-0.6816406, -0.0234375, -0.6508789, -38.7804871, -60.4878044, 10.3658543, -0.0191348
-0.6904297, -0.0112305, -0.6689453, -38.841465, -55.4878044, 10.8536587, -0.0172885
-0.6953125, -0.0029297, -0.652832, -37.8658562, -54.5121956, 9.9390249, -0.0115816
-0.684082, -0.0029297, -0.6220703, -37.0121956, -55.4268303, 9.3292685, -0.0077211
-0.6591797, -0.003418, -0.5610352, -34.4512215, -57.5609779, 7.9268293, -0.0068818
-0.644043, -0.0170898, -0.534668, -33.5975609, -57.7439041, 7.8658538, -0.0078889
-0.640625, -0.0166016, -0.5307617, -32.5, -54.7560997, 8.1097565, -0.0135958
-0.659668, -0.0073242, -0.5366211, -32.1341476, -52.5609779, 8.5365858, -0.0176242
-0.6777344, 0.0014648, -0.5419922, -31.280489, -47.2560997, 8.9634151, -0.0219883
-0.7036133, 0.0234375, -0.5766602, -30.7926846, -45.7317085, 9.0243902, -0.0253452
-0.7197266, 0.0292969, -0.597168, -30.4268303, -45.1829262, 9.3292685, -0.0250095
-0.7387695, 0.0576172, -0.5966797, -30.9756107, -45.6707344, 9.6951218, -0.0297093
-0.7324219, 0.0727539, -0.5649414, -31.4634151, -48.9024391, 10.1219511, -0.0310521
-0.715332, 0.0756836, -0.4648438, -31.6463413, -52.3780518, 8.2926826, -0.0287022
-0.7055664, 0.065918, -0.4262695, -31.7073174, -53.6585388, 7.3170733, -0.0253452
-0.7011719, 0.0239258, -0.4116211, -32.2560997, -54.2682953, 5.670732, -0.0196384
-0.7294922, -0.0126953, -0.5014648, -32.9268303, -53.2926826, 5.9146342, -0.0149386
-0.7509766, -0.0126953, -0.5634766, -34.5731697, -49.5731735, 7.3780489, -0.0209812
-0.7822266, -0.0019531, -0.6308594, -34.8170738, -48.4756126, 8.9634151, -0.0256809
-0.7763672, 0.0083008, -0.6152344, -32.9268303, -50.7317085, 10.9756098, -0.0292058
-0.7402344, 0.0273438, -0.5219727, -31.1585369, -53.5365868, 11.0975609, -0.0327306
-0.7207031, 0.0366211, -0.4848633, -27.9268303, -59.0853691, 9.4512196, -0.0310521
-0.6928711, 0.0415039, -0.4716797, -27.2560978, -59.6951218, 8.3536587, -0.014435
-0.6879883, 0.0375977, -0.4980469, -28.6585369, -56.5243912, 7.1341467, 0.0052033
-0.6899414, 0.0283203, -0.5649414, -31.8902454, -50.6707344, 7.5609756, -0.0068818
-0.6918945, 0.0151367, -0.5800781, -32.6829262, -48.7195129, 8.2317076, -0.0149386
-0.6865234, -0.0126953, -0.5566406, -30.5487804, -48.6585388, 7.8048782, -0.0083925
-0.6855469, -0.0307617, -0.5180664, -28.5365868, -49.5121956, 7.3170733, 0.0001678
-0.6865234, -0.0341797, -0.5102539, -24.1463413, -49.7560997, 7.1951222, 0.0065461
-0.6938477, -0.034668, -0.5024414, -22.6219521, -48.5975609, 7.6829271, 0.0075532
-0.6938477, -0.0371094, -0.4980469, -19.6341476, -45.4878044, 8.9024391, 0.0031891
-0.6855469, -0.0322266, -0.5, -18.9634151, -43.9024391, 8.719512, -0.0008392
-0.6958008, -0.0307617, -0.5146484, -17.9878044, -41.0365868, 6.9512196, -0.0102388
-0.7124023, -0.0078125, -0.5571289, -17.2560978, -39.7560997, 5.9146342, -0.023331
-0.7216797, -0.0009766, -0.5668945, -17.439024, -38.1707344, 4.4512196, -0.0354162
-0.7236328, 0.0263672, -0.565918, -17.7439022, -38.9024391, 3.8414636, -0.0394446
-0.7177734, 0.0361328, -0.5449219, -17.9878044, -40.1219521, 3.4756098, -0.0337377
-0.6958008, 0.0507812, -0.5053711, -18.9024391, -40.8536606, 2.3780489, -0.0412909
-0.6889648, 0.0625, -0.4682617, -19.3292694, -40.7317085, 1.7682927, -0.047837
-0.6923828, 0.0600586, -0.4511719, -20.9146347, -38.9024391, 0.7926829, -0.043473
-0.7026367, 0.0410156, -0.4243164, -21.0365868, -37.9268303, 0.6097561, -0.0303807
-0.715332, 0.0268555, -0.4233398, -22.0731716, -36.5243912, 0.7317073, -0.0203098
-0.7456055, 0.0048828, -0.4482422, -22.2560978, -35.8536606, 1.2195122, -0.0172885
-0.762207, 0.003418, -0.4643555, -22.3170738, -35.4878044, 2.6829269, -0.0226596
-0.7797852, 0.0073242, -0.487793, -22.0121956, -35.6707344, 3.0487804, -0.0310521
-0.7758789, 0.0175781, -0.484375, -21.7073174, -36.5853653, 3.3536587, -0.0424659
-0.7675781, 0.0288086, -0.4604492, -21.280489, -38.2926826, 2.3170731, -0.0406195
-0.7607422, 0.0322266, -0.4492188, -21.2195129, -38.841465, 1.8292683, -0.0471656
-0.7460938, 0.0170898, -0.4438477, -21.4634151, -39.2073174, 1.3414634, -0.0500191
-0.7255859, -0.0102539, -0.4448242, -21.4634151, -38.6585388, 1.9512196, -0.0535439
-0.7167969, -0.0268555, -0.4453125, -20.7926826, -36.8292694, 2.7439024, -0.0656291
-0.7041016, -0.0556641, -0.4648438, -20.1829281, -35.4268303, 3.4146342, -0.0746929
-0.7021484, -0.0595703, -0.4824219, -18.4756107, -32.1341476, 3.6585367, -0.0850996
-0.7133789, -0.0380859, -0.4985352, -17.6219521, -30.1219521, 3.5975611, -0.0941634
-0.7197266, -0.0234375, -0.4912109, -15.9756098, -25.8536587, 3.1097562, -0.0978561
-0.7314453, 0.0039062, -0.4453125, -15.1219511, -24.5121956, 2.7439024, -0.0958419
-0.7255859, -0.0019531, -0.4228516, -13.2926836, -24.6951218, 1.3414634, -0.0882887
-0.7250977, -0.0195312, -0.3950195, -11.9512196, -24.9390259, 0.6707317, -0.0733501
-0.7260742, -0.0288086, -0.3964844, -11.0975609, -24.3292694, 1.0365853, -0.0619364
-0.7387695, -0.0415039, -0.4130859, -9.5121956, -21.0975609, 2.4390244, -0.0515297
-0.7475586, -0.0385742, -0.3974609, -8.2926826, -19.5731716, 2.804878, -0.0424659
-0.753418, -0.034668, -0.3745117, -4.7560978, -16.7682934, 2.5, -0.0350805
-0.7636719, -0.0234375, -0.3237305, -2.6829269, -15.9146347, 2.0121951, -0.0297093
-0.7670898, -0.015625, -0.3188477, 0.1829268, -15.1829271, 1.1585366, -0.0330663
-0.7924805, 0.0239258, -0.3710938, 0.8536586, -14.4512196, 0.4878049, -0.0357519
-0.8076172, 0.0449219, -0.4121094, -0.6097561, -11.8902445, 1.097561, -0.0283665
-0.8222656, 0.074707, -0.4584961, -1.5853659, -11.219512, 0.9756098, -0.0236667
-0.8139648, 0.0712891, -0.453125, -4.0853658, -13.0487804, 1.3414634, -0.0218204
-0.7753906, 0.043457, -0.3999023, -3.9024391, -17.3170738, 0.8536586, 0.0149386
-0.7368164, 0.0058594, -0.3525391, -3.7195122, -18.3536587, 0.9146342, 0.0565652
-0.7207031, -0.0063477, -0.3461914, -2.0121951, -16.5243912, 1.3414634, 0.1045701
-0.7172852, -0.0048828, -0.3823242, -1.097561, -12.9268293, 1.7682927, 0.1690242
-0.7250977, 0.0097656, -0.4116211, 0.2439024, -4.5731707, 2.4390244, 0.2046082
-0.7504883, 0.0371094, -0.4404297, 0.4878049, -1.1585366, 2.5, 0.2146792
-0.762207, 0.0424805, -0.4282227, 0.6097561, 0.3048781, 2.0121951, 0.2032654
-0.7739258, 0.0405273, -0.3618164, 0.9756098, -0.6707317, 1.8292683, 0.1730526
-0.7724609, 0.0366211, -0.3354492, 1.8902439, -3.1707318, 1.5243902, 0.124712
-0.7758789, 0.0180664, -0.3100586, 2.4390244, -3.2926829, 1.6463414, 0.0683146
-0.7827148, 0.0117188, -0.3261719, 3.7195122, -0.4268293, 1.9512196, 0.0250095
-0.7939453, 0.0234375, -0.4008789, 3.3536587, 3.9634147, 2.5, -0.0109102
-0.8081055, 0.0512695, -0.4804688, 2.3170731, 6.0975609, 2.5, -0.0404517
-0.8085938, 0.0595703, -0.4970703, 0.8536586, 6.9512196, 2.9268293, -0.0569009
-0.7871094, 0.0551758, -0.4658203, 0.6707317, 5.670732, 3.1707318, -0.0733501
-0.762207, 0.0463867, -0.4282227, 1.5243902, 2.0731707, 3.2317073, -0.0854353
-0.7026367, 0.0185547, -0.3671875, 2.2560976, 1.402439, 3.2926829, -0.0961776
-0.6855469, 0.0092773, -0.3618164, 3.7804878, 5.4268293, 2.3170731, -0.1018845
-0.6962891, 0.0107422, -0.4038086, 3.6585367, 9.2682924, 2.1341465, -0.1065843
-0.7133789, 0.0166016, -0.4306641, 3.3536587, 17.9268303, 2.5609756, -0.1178302
-0.7524414, 0.0336914, -0.4394531, 3.2317073, 20.6707325, 2.5609756, -0.1210193
-0.7636719, 0.0429688, -0.4291992, 3.7195122, 21.4024391, 2.6829269, -0.1290761
-0.7763672, 0.050293, -0.4023438, 4.390244, 19.6951218, 2.3170731, -0.1245441
-0.7758789, 0.0581055, -0.3935547, 4.0243902, 19.0853672, 1.8902439, -0.1210193
-0.7705078, 0.0556641, -0.3999023, 3.4146342, 19.8780499, 2.1341465, -0.110277
-0.7705078, 0.046875, -0.418457, 2.6219513, 21.0975609, 1.9512196, -0.1062486
-0.762207, 0.0332031, -0.4345703, 1.8292683, 23.1707325, 2.6219513, -0.1143053
-0.7539062, 0.0205078, -0.4609375, 1.7073171, 23.9634151, 2.6829269, -0.1198444
-0.7451172, 0.0136719, -0.4736328, 2.195122, 25.2439022, 3.2317073, -0.1193408
-0.7285156, 0.0107422, -0.4946289, 2.4390244, 25.7926826, 3.8414636, -0.1196765
-0.7167969, 0.0131836, -0.496582, 2.9268293, 28.0487804, 4.0243902, -0.1132982
-0.7075195, 0.0283203, -0.4790039, 2.7439024, 29.2073174, 3.9634147, -0.1003738
-0.7045898, 0.0356445, -0.4682617, 2.6829269, 32.0731697, 2.9268293, -0.0864424
-0.7021484, 0.0361328, -0.4458008, 2.8658538, 34.6341476, 1.7073171, -0.0720073
-0.7099609, 0.0209961, -0.4594727, 2.7439024, 36.0365868, 1.6463414, -0.054551
-0.715332, 0.0141602, -0.4682617, 2.6829269, 39.3902435, 1.7073171, -0.0354162
-0.7324219, -0.0043945, -0.4931641, 3.1097562, 40.7317085, 1.7682927, -0.0256809
-0.7333984, -0.0151367, -0.5043945, 4.8780489, 42.1341476, 2.804878, -0.01561
-0.734375, -0.0166016, -0.5112305, 6.4634147, 42.4390259, 3.5365853, -0.0082246
-0.7250977, -0.0087891, -0.5043945, 9.2682924, 43.4756126, 4.3292685, -0.0001678
-0.7104492, 0.0214844, -0.503418, 9.9390249, 44.3292694, 3.7804878, 0.0062104
-0.7084961, 0.0322266, -0.5068359, 10.3658543, 47.3170738, 3.0487804, 0.0102388
-0.7055664, 0.046875, -0.5229492, 9.5731707, 48.9634171, 2.6219513, 0.0142672
-0.7060547, 0.0522461, -0.5268555, 8.4146347, 50.8536606, 2.2560976, 0.0203098
-0.7094727, 0.0454102, -0.5200195, 7.9878049, 51.5853653, 2.9268293, 0.0253452
-0.703125, 0.0385742, -0.5048828, 7.8658538, 52.1341476, 2.9878049, 0.0297093
-0.7021484, 0.0307617, -0.4970703, 8.5365858, 54.0853653, 3.4756098, 0.0384375
-0.7026367, 0.0180664, -0.503418, 9.2682924, 55.2439041, 3.1707318, 0.0433051
-0.7041016, 0.0141602, -0.5200195, 9.3292685, 58.1707344, 3.0487804, 0.040116
-0.7128906, 0.0136719, -0.5561523, 9.0243902, 59.6341476, 3.1707318, 0.0370947
-0.7192383, 0.0083008, -0.5605469, 9.0243902, 61.341465, 3.4756098, 0.0414588
-0.7163086, 0.0048828, -0.5532227, 9.2682924, 61.0365868, 3.5975611, 0.0485084
-0.7148438, 0.0019531, -0.5512695, 10.060976, 60.6097565, 3.9024391, 0.0518654
-0.7021484, 0.0136719, -0.5595703, 10.4268293, 60.6097565, 3.7195122, 0.0520333
-0.6987305, 0.0214844, -0.5688477, 11.341464, 62.0121956, 4.0243902, 0.0569009
-0.6948242, 0.0449219, -0.5830078, 10.9146347, 64.8780518, 4.4512196, 0.0592508
-0.6821289, 0.0571289, -0.5839844, 10.5487804, 65.8536606, 4.0243902, 0.0562295
-0.6762695, 0.0639648, -0.5834961, 8.9024391, 67.3170776, 3.1097562, 0.0498512
-0.6738281, 0.0664062, -0.5942383, 8.2317076, 67.6219559, 2.7439024, 0.0428016
-0.6694336, 0.0673828, -0.6005859, 5.7317076, 68.6585388, 2.5609756, 0.0397803
-0.675293, 0.0556641, -0.6010742, 4.5121951, 69.0243912, 2.9878049, 0.0320592
-0.6762695, 0.0463867, -0.5952148, 3.5975611, 69.2073212, 3.2926829, 0.0290379
-0.6704102, 0.0195312, -0.5605469, 4.0243902, 69.2682953, 3.6585367, 0.0172885
-0.6660156, 0.0029297, -0.5454102, 5.5487804, 69.7560959, 3.7195122, 0.0065461
-0.6630859, -0.0087891, -0.5522461, 6.1585369, 70.6097565, 3.4146342, -0.0030213
-0.6694336, -0.0117188, -0.5791016, 7.5, 74.1463394, 3.3536587, -0.0085603
-0.6894531, -0.0087891, -0.6367188, 7.5, 78.0487823, 4.2073174, -0.0162814
-0.6992188, -0.0058594, -0.6586914, 7.9268293, 78.7804871, 4.6951222, -0.0209812
-0.690918, -0.0078125, -0.6386719, 9.4512196, 76.8292694, 5.1219511, -0.0149386
-0.6655273, -0.0087891, -0.5854492, 10.7317076, 75, 4.8780489, -0.0078889
-0.6542969, -0.003418, -0.5751953, 13.1097565, 73.1707306, 3.7804878, -0.0169528
-0.6425781, 0.0073242, -0.59375, 13.780488, 73.9024429, 3.3536587, -0.01561
-0.6435547, 0.0219727, -0.6098633, 13.2926836, 78.4146347, 2.7439024, -0.0001678
-0.6508789, 0.0214844, -0.6367188, 12.6219511, 80.6707306, 3.1097562, 0.0065461
-0.6479492, 0.0200195, -0.6416016, 12.1341467, 82.1341476, 2.9268293, 0.0058747
-0.6469727, 0.012207, -0.6533203, 12.0731707, 81.8292694, 2.7439024, 0.0045319
-0.6425781, 0.0102539, -0.6728516, 12.1951218, 80.3658524, 2.7439024, -0.0028534
-0.6425781, 0.0180664, -0.7094727, 11.5853662, 80.6097565, 3.5975611, -0.0159457
-0.6333008, 0.0522461, -0.7021484, 11.0365858, 81.2195129, 3.9634147, -0.0276951
-0.6240234, 0.0668945, -0.6772461, 9.3292685, 81.8292694, 3.8414636, -0.0391089
-0.6137695, 0.0825195, -0.612793, 8.5365858, 81.646347, 3.1097562, -0.0475013
-0.6118164, 0.0756836, -0.5917969, 7.3170733, 80.9756088, 1.0365853, -0.0525368
-0.612793, 0.043457, -0.6000977, 6.5243902, 81.2804871, 0.1219512, -0.057908
-0.621582, 0.0180664, -0.6196289, 5, 81.7682953, 0.3658537, -0.0619364
-0.6347656, -0.0371094, -0.6362305, 5.0609756, 81.9512177, 0.7926829, -0.0679789
-0.6357422, -0.059082, -0.6245117, 5.9756098, 81.8292694, 1.402439, -0.0713359
-0.6381836, -0.0791016, -0.6108398, 9.4512196, 80.3048782, 0.7926829, -0.0741894
-0.6386719, -0.0771484, -0.6201172, 11.4634151, 80.6707306, -0.4268293, -0.0693217
-0.6503906, -0.0390625, -0.6816406, 12.8658543, 81.5243912, -1.4634147, -0.0619364
-0.6542969, 0.0102539, -0.7294922, 12.3170738, 81.5853653, -1.5853659, -0.0552224
-0.6469727, 0.0302734, -0.7275391, 9.8170738, 79.8170776, -1.8902439, -0.0491798
-0.6132812, 0.0517578, -0.7104492, 8.9634151, 77.9878082, -2.3170731, -0.0370947
-0.5981445, 0.059082, -0.706543, 7.2560978, 75.1219559, -4.0243902, -0.0283665
-0.574707, 0.0463867, -0.7485352, 6.3414636, 75.2439041, -4.390244, -0.01561
-0.5732422, 0.0395508, -0.7797852, 4.7560978, 77.7439041, -3.4146342, -0.0099031
-0.5561523, 0.0161133, -0.8120117, 4.0853658, 79.4512177, -1.6463414, -0.0001678
-0.5395508, 0.015625, -0.8110352, 3.2317073, 82.1951218, 1.7682927, 0.0146029
-0.5102539, 0.0195312, -0.7861328, 3.6585367, 85.2439041, 2.3780489, 0.0095674
-0.5068359, 0.0229492, -0.7709961, 4.3292685, 87.1951218, 1.8902439, -0.008896
-0.5078125, 0.0200195, -0.7363281, 4.390244, 90.7926865, -0.1829268, -0.0246738
-0.5307617, -0.0107422, -0.7001953, 4.0853658, 91.646347, -0.7926829, -0.0216526
-0.5380859, -0.0380859, -0.684082, 3.7195122, 91.5243912, -1.8902439, -0.0035248
-0.5615234, -0.0776367, -0.6655273, 3.7195122, 91.1585388, -1.8902439, 0.0159457
-0.5776367, -0.0976562, -0.668457, 5.609756, 90.4878082, -3.1097562, 0.0196384
-0.6035156, -0.1196289, -0.7167969, 6.8292685, 91.0975647, -3.3536587, 0.0146029
-0.6171875, -0.1254883, -0.7548828, 10.6707315, 92.1951218, -2.9268293, 0.0213169
-0.6225586, -0.1137695, -0.8310547, 12.3780489, 92.5609741, -2.6219513, 0.0387732
-0.6083984, -0.1025391, -0.8505859, 13.9024391, 91.7073212, -2.3780489, 0.0642863
-0.5673828, -0.0717773, -0.8266602, 14.9390249, 88.7804871, -3.5975611, 0.0703288
-0.5356445, -0.0649414, -0.7929688, 15.1829271, 87.0121994, -5.1219511, 0.0733501
-0.4824219, -0.0571289, -0.715332, 16.4024391, 85.1219559, -8.2317076, 0.0733501
-0.4541016, -0.0615234, -0.6826172, 17.0121956, 85.6097565, -9.8170738, 0.0501869
-0.4560547, -0.0703125, -0.6870117, 18.7195129, 89.146347, -11.9512196, 0.0219883
-0.4746094, -0.0761719, -0.7104492, 19.6951218, 91.3414688, -12.5, -0.0038605
-0.4897461, -0.0727539, -0.7363281, 20.3048782, 95.9756088, -13.4146347, -0.033402
-0.5307617, -0.0439453, -0.8266602, 20.3658543, 97.4390259, -13.9634151, -0.0527047
-0.5507812, -0.0214844, -0.8789062, 18.9634151, 98.9634171, -14.8170738, -0.0585794
-0.5776367, 0.0249023, -0.9311523, 16.9512196, 98.7195129, -14.7560978, -0.064622
-0.5634766, 0.034668, -0.9155273, 13.5365858, 94.2682953, -14.6951227, -0.0666361
-0.5141602, 0.0244141, -0.8129883, 11.219512, 86.7682953, -15.7317076, -0.0639506
-0.4819336, 0.0102539, -0.7646484, 10.6097565, 84.0243912, -16.6463413, -0.0626078
-0.4418945, -0.0292969, -0.7368164, 9.9390249, 84.0243912, -18.1707325, -0.0632792
-0.4516602, -0.0610352, -0.7929688, 8.9024391, 86.9512253, -17.9878044, -0.0666361
-0.4741211, -0.0639648, -0.8344727, 6.6463418, 94.7561035, -16.0365849, -0.0673075
-0.5102539, -0.0576172, -0.8950195, 5.7926831, 97.9878082, -14.3902445, -0.0773785
-0.5219727, -0.0493164, -0.9111328, 4.4512196, 100.1219559, -12.2560978, -0.0770428
-0.5258789, -0.0488281, -0.9155273, 4.2682929, 99.2682953, -11.5853662, -0.0706645
-0.5136719, -0.0551758, -0.9047852, 4.6951222, 94.5731735, -10.6707315, -0.0679789
-0.4741211, -0.0820312, -0.8623047, 5.1219511, 92.2561035, -10.9146347, -0.0595865
-0.4462891, -0.0957031, -0.8496094, 5.8536587, 90.3658524, -11.4634151, -0.0565652
-0.4140625, -0.1132812, -0.8554688, 6.6463418, 92.7439041, -12.5, -0.0528725
-0.4052734, -0.1137695, -0.8681641, 6.9512196, 94.8780518, -12.560976, -0.0468299
-0.3930664, -0.1069336, -0.8959961, 7.9878049, 98.7195129, -12.7439032, -0.0317235
-0.3969727, -0.0737305, -0.9121094, 8.3536587, 100.4878082, -13.1097565, -0.0152743
-0.3999023, -0.059082, -0.9121094, 8.5975609, 101.9512253, -13.5975609, 0.0018463
-0.4008789, -0.034668, -0.9052734, 8.4756098, 102.5609818, -14.2073174, 0.0172885
-0.402832, -0.0297852, -0.8881836, 6.890244, 102.3780518, -14.6951227, 0.018967
-0.4003906, -0.0375977, -0.8603516, 6.7682929, 102.0121994, -14.8780489, 0.0199741
-0.402832, -0.043457, -0.8642578, 5.2439027, 101.2804871, -15.2439032, 0.0159457
-0.4091797, -0.0488281, -0.890625, 3.9634147, 101.4634171, -15.7926836, 0.0112459
-0.4130859, -0.050293, -0.8994141, 1.402439, 102.4390259, -16.9512196, 0.0072175
-0.4199219, -0.0600586, -0.8671875, -0.7317073, 101.5853653, -19.0243912, -0.0035248
-0.4233398, -0.0644531, -0.8354492, -1.0365853, 99.8780518, -20.4878044, 0.002182
-0.4257812, -0.0737305, -0.784668, 0.0609756, 96.646347, -23.0487804, 0.0025177
-0.4394531, -0.0908203, -0.7900391, 1.0365853, 96.0975647, -24.0243912, -0.0166171
-0.4477539, -0.097168, -0.8071289, 2.5609756, 96.0365906, -25.1219521, -0.0243381
-0.4487305, -0.1210938, -0.8422852, 2.8658538, 96.3414688, -25.1219521, -0.0243381
-0.4462891, -0.1357422, -0.8637695, 3.4146342, 95.6097565, -25.1829281, -0.0112459
-0.421875, -0.1669922, -0.9238281, 4.1463413, 95.0609741, -25.2439022, 0.0102388
-0.4038086, -0.1855469, -0.9604492, 6.7682929, 95.1219559, -25.2439022, 0.0318914
-0.359375, -0.2128906, -0.9907227, 8.780488, 95.2439041, -25, 0.0320592
-0.328125, -0.2216797, -0.9667969, 13.6585369, 94.8780518, -24.2682934, 0.0236667
-0.2661133, -0.2226562, -0.8979492, 19.6341476, 96.2195129, -24.5121956, 0.0065461
-0.2470703, -0.2099609, -0.8686523, 22.439024, 98.8414688, -24.6951218, -0.0102388
-0.2475586, -0.1547852, -0.8500977, 26.5243912, 108.1707306, -25.5487804, -0.0243381
-0.3115234, -0.0844727, -0.921875, 27.3780499, 113.3536606, -25.8536587, -0.0345769
-0.355957, -0.0439453, -0.980957, 24.0243912, 120.0609818, -25.4268303, -0.0448157
-0.4267578, 0.0073242, -1.0883789, 19.939024, 120.7317123, -24.8170738, -0.0471656
-0.4404297, 0.0180664, -1.1142578, 11.9512196, 114.9390259, -22.0731716, -0.0565652
-0.4057617, 0.0151367, -1.0839844, 9.0243902, 110.3048782, -20.6097565, -0.0699931
-0.3676758, -0.0039062, -1.0405273, 5.670732, 100.6097565, -19.2073174, -0.0760357
-0.269043, -0.0742188, -0.9243164, 5.8536587, 97.0731735, -19.3292694, -0.0753643
-0.2241211, -0.1171875, -0.8793945, 7.4390244, 94.2073212, -20, -0.0713359
-0.1845703, -0.1679688, -0.8393555, 8.9024391, 97.9878082, -19.7560978, -0.0659648
-0.1918945, -0.1748047, -0.8442383, 9.4512196, 101.8902435, -19.6951218, -0.0565652
-0.2456055, -0.1308594, -0.8774414, 10.060976, 110.0609818, -19.6341476, -0.047837
-0.3286133, -0.0473633, -0.9467773, 9.9390249, 112.9268341, -19.7560978, -0.040116
-0.359375, -0.0063477, -0.9858398, 7.5, 113.5975647, -20.3658543, -0.0310521
-0.3901367, 0.0483398, -1.0249023, 4.6341462, 110.5487823, -20.6707325, -0.0209812
-0.3789062, 0.0517578, -1.0078125, -2.8658538, 99.4512253, -21.0975609, -0.0182956
-0.3129883, 0.0141602, -0.9223633, -7.0731707, 92.5, -21.5243912, -0.0152743
-0.2680664, -0.0166016, -0.8789062, -14.0853662, 81.8902435, -23.2926826, -0.0181277
-0.2084961, -0.0791016, -0.8637695, -16.3414631, 80.0609741, -24.0853672, -0.0216526
-0.1987305, -0.1108398, -0.8842773, -19.0853672, 83.5365906, -24.5121956, -0.023331
-0.1992188, -0.1479492, -0.9243164, -17.9268303, 89.9390259, -23.780489, -0.0231632
-0.2202148, -0.1660156, -0.9179688, -16.5243912, 92.0731735, -23.4146347, -0.01561
-0.2275391, -0.1689453, -0.8896484, -12.1341467, 92.5, -23.4146347, -0.0062104
-0.2333984, -0.1650391, -0.824707, -9.5731707, 90.8536606, -24.0853672, -0.0052033
-0.2338867, -0.1669922, -0.8095703, -4.6341462, 88.6585388, -25.4878063, -0.002182
-0.2529297, -0.1713867, -0.847168, -2.3780489, 88.9024429, -26.4024391, 0.002182
-0.2617188, -0.1748047, -0.8994141, 0.3658537, 91.7682953, -27.5, 0.0008392
-0.2675781, -0.1933594, -1.0239258, 1.5853659, 94.0243912, -27.7439022, -0.0025177
-0.2631836, -0.2026367, -1.0673828, 4.6341462, 96.5853653, -27.0731716, -0.0031891
-0.2216797, -0.2133789, -1.0668945, 6.6463418, 96.7073212, -26.3414631, -0.0112459
-0.1821289, -0.2128906, -1.0170898, 12.9268293, 93.8414688, -25.060976, -0.01561
-0.1010742, -0.1958008, -0.8857422, 21.1585369, 92.8048782, -25.4268303, -0.0182956
-0.0551758, -0.1669922, -0.8237305, 24.8780499, 94.9390259, -26.280489, -0.0169528
-0.0585938, -0.1557617, -0.8417969, 29.0243912, 104.4512253, -28.1707325, -0.0162814
-0.1142578, -0.1435547, -0.9580078, 29.3292694, 109.8780518, -28.841465, -0.0176242
-0.1582031, -0.1386719, -1.0219727, 26.0365868, 117.5, -29.0243912, -0.0193027
-0.215332, -0.128418, -1.1176758, 23.8414631, 118.2317123, -28.2317085, -0.0218204
-0.2211914, -0.1181641, -1.1401367, 18.8414631, 113.1707306, -27.6829281, -0.0149386
-0.1875, -0.0966797, -1.1362305, 17.0731716, 109.146347, -27.2560978, -0.0193027
-0.1513672, -0.0810547, -1.1108398, 14.0853662, 102.0121994, -27.1341476, -0.0387732
-0.0581055, -0.0634766, -1.0561523, 12.6829271, 99.8780518, -27.3780499, -0.0468299
-0.019043, -0.0595703, -1.0473633, 9.1463413, 100.4268341, -28.1097565, -0.0480049
0.0336914, -0.0629883, -1.1240234, 2.8658538, 105.8536606, -28.7195129, -0.0360876
0.0493164, -0.0839844, -1.2387695, -0.9756098, 109.3902435, -28.1097565, -0.030045
0.0556641, -0.097168, -1.2739258, -8.2317076, 113.1707306, -26.5853672, -0.0303807
0.0698242, -0.1103516, -1.2490234, -11.7073174, 112.9268341, -25.9146347, -0.0330663
0.0849609, -0.1015625, -1.2080078, -16.5243912, 109.4512253, -25.3658543, -0.0325628
0.1079102, -0.078125, -1.1523438, -17.6829281, 108.9024429, -25.9756107, -0.0406195
0.1088867, -0.0629883, -1.1479492, -20.1219521, 112.1341476, -27.560976, -0.0391089
0.0693359, -0.0283203, -1.1538086, -21.8902435, 114.7561035, -27.9878063, -0.0428016
0.0439453, -0.019043, -1.1455078, -27.4390259, 118.4756088, -27.560976, -0.0520333
-0.0014648, -0.0322266, -1.0942383, -30.4878063, 118.1097565, -26.9512196, -0.0599222
-0.0200195, -0.0483398, -1.0649414, -35.3048782, 113.4756088, -26.7682934, -0.057908
-0.0493164, -0.1132812, -1.0380859, -37.1341476, 109.8780518, -26.4024391, -0.0424659
-0.0766602, -0.2099609, -1.0737305, -36.5853653, 108.9634171, -26.2195129, -0.0251774
-0.0776367, -0.2607422, -1.0932617, -33.7195129, 107.7439041, -23.9024391, -0.0082246
-0.0537109, -0.3452148, -1.0888672, -31.0365868, 106.646347, -22.6829281, 0.002182
-0.0351562, -0.3828125, -1.0581055, -23.5975609, 102.8048782, -21.3414631, 0.0045319
0.012207, -0.4155273, -0.9892578, -18.6585369, 101.4634171, -21.3414631, 0.0011749
0.0317383, -0.4145508, -0.9824219, -8.2926826, 103.2926865, -22.9878063, -0.005539
0.0395508, -0.3818359, -1.0239258, -2.8658538, 106.5243912, -24.0243912, -0.0223239
0.0253906, -0.347168, -1.0629883, 5.3658538, 114.6341476, -25.4268303, -0.0381018
0.0024414, -0.2597656, -1.1264648, 8.3536587, 117.3170776, -25.6707325, -0.0495155
-0.0078125, -0.2133789, -1.140625, 11.5243902, 118.7195129, -25.4878063, -0.0730144
-0.0019531, -0.1240234, -1.1484375, 12.6829271, 116.3414688, -25.2439022, -0.094667
0.0288086, -0.0751953, -1.121582, 12.3780489, 114.5731735, -25.1829281, -0.1138018
0.046875, -0.0649414, -1.0986328, 10.4268293, 111.5853653, -24.5731716, -0.1203479
0.0820312, -0.0708008, -1.0541992, 9.4512196, 110.3048782, -24.3902435, -0.1099413
0.0942383, -0.0834961, -1.0449219, 7.1341467, 110.18293, -24.1463413, -0.0743572
0.0981445, -0.1274414, -1.0410156, 6.3414636, 110.4268341, -23.9634151, -0.0297093
0.0854492, -0.1547852, -1.0405273, 6.1585369, 111.5243912, -23.780489, 0.0129244
0.0585938, -0.2055664, -1.0390625, 6.9512196, 111.4634171, -23.4146347, 0.0441444
0.0527344, -0.2285156, -1.0473633, 8.4146347, 109.6951218, -23.3536587, 0.0555581
0.0400391, -0.2504883, -1.0991211, 9.2073174, 109.0853653, -23.4146347, 0.0428016
0.0366211, -0.2548828, -1.1264648, 10.3048782, 108.2926865, -23.5365868, 0.033402
0.0605469, -0.2412109, -1.1328125, 10.1829271, 106.8902435, -24.5731716, 0.0260166
0.1000977, -0.2016602, -1.0986328, 9.6951218, 105.4878082, -25.3658543, 0.0159457
0.1240234, -0.1660156, -1.0878906, 7.5609756, 104.0243912, -27.0121956, 0.0065461
0.1455078, -0.0830078, -1.0986328, 6.2195125, 104.7561035, -27.9268303, -0.0082246
0.1484375, -0.0419922, -1.1113281, 1.5853659, 107.3170776, -30, -0.017792
0.1357422, 0.0200195, -1.121582, -1.2804878, 108.1097565, -31.2195129, -0.0258488
0.1308594, 0.0297852, -1.1166992, -8.719512, 106.7073212, -32.7439041, -0.0303807
0.1220703, 0.0083008, -1.0986328, -12.6219511, 104.3292694, -32.8658562, -0.0327306
0.1245117, -0.0180664, -1.0917969, -18.9024391, 99.6951218, -32.1341476, -0.0263523
0.1240234, -0.0854492, -1.0776367, -21.0365868, 98.5365906, -31.2195129, -0.0258488
0.1196289, -0.1181641, -1.0600586, -21.6463413, 100.2439041, -28.1097565, -0.026688
0.1210938, -0.1728516, -1.0229492, -19.0853672, 104.6341476, -25.9756107, -0.0276951
0.1152344, -0.2060547, -1.0439453, -16.7073174, 107.3780518, -25.2439022, -0.0246738
0.1108398, -0.2177734, -1.0810547, -12.6219511, 113.2317123, -24.8170738, -0.027863
0.1015625, -0.230957, -1.1845703, -11.7682934, 115.9146347, -25.1829281, -0.0307164
0.0986328, -0.2294922, -1.2207031, -11.0975609, 118.5365906, -25.4268303, -0.0330663
0.1279297, -0.2260742, -1.2109375, -11.0975609, 117.5609818, -25.3048782, -0.0327306
0.1621094, -0.2177734, -1.1762695, -11.0975609, 113.6585388, -24.9390259, -0.0303807
0.2319336, -0.2036133, -1.0834961, -10.6707315, 112.0731735, -25.1219521, -0.0092317
0.2558594, -0.1967773, -1.0532227, -8.780488, 113.5365906, -25.6097565, 0.0099031
0.2788086, -0.1899414, -1.012207, -7.5609756, 115.9756088, -25.8536587, 0.0327306
0.2675781, -0.1870117, -1.0136719, -5.5487804, 122.2561035, -27.3170738, 0.04448
0.2148438, -0.1762695, -1.0634766, -5.0609756, 126.4024429, -27.9268303, 0.0699931
0.1630859, -0.1601562, -1.1621094, -5.1219511, 127.5609818, -27.6219521, 0.1065843
0.1445312, -0.1459961, -1.1987305, -7.1341467, 126.4634171, -25.7926826, 0.1267262
0.1411133, -0.1171875, -1.1953125, -8.1097565, 124.2073212, -24.6341476, 0.1263905
0.1572266, -0.1049805, -1.1586914, -10.6097565, 117.3170776, -22.6829281, 0.1092699
0.2070312, -0.0942383, -1.0576172, -11.6463413, 114.2073212, -21.5243912, 0.0965133
0.2319336, -0.097168, -1.0141602, -13.9024391, 111.2804871, -20.5487804, 0.0830854
0.2587891, -0.1123047, -0.965332, -14.5121956, 111.5243912, -20.6707325, 0.0736858
0.253418, -0.1259766, -0.9526367, -15, 112.1951218, -21.4634151, 0.0622721
0.21875, -0.1625977, -0.9462891, -14.6341467, 111.5853653, -22.0121956, 0.0374304
0.1953125, -0.1865234, -0.9472656, -14.2682934, 107.9268341, -22.3780499, 0.0105745
0.1523438, -0.2192383, -0.953125, -12.3780489, 102.8658524, -21.2195129, -0.0112459
0.1264648, -0.2290039, -0.9492188, -11.219512, 100.18293, -20.3658543, -0.0310521
0.1264648, -0.2338867, -0.9511719, -8.1097565, 96.1585388, -18.6585369, -0.0518654
0.1606445, -0.21875, -1.0014648, -6.7682929, 94.8170776, -18.2317085, -0.0699931
0.184082, -0.2133789, -1.0454102, -5.3048782, 93.7195129, -18.6585369, -0.0842603
0.234375, -0.1958008, -1.144043, -5.4878049, 93.5365906, -19.2073174, -0.0991989
0.2695312, -0.1855469, -1.1811523, -7.1341467, 92.7439041, -19.1463413, -0.1042344
0.3393555, -0.1645508, -1.206543, -8.2926826, 92.3780518, -19.2682934, -0.1116197
0.3764648, -0.1499023, -1.1889648, -10.3048782, 91.2804871, -18.5975609, -0.1169909
0.4394531, -0.1318359, -1.1010742, -10.2439022, 91.2804871, -18.1097565, -0.1153124
0.4614258, -0.1337891, -1.0361328, -9.6951218, 91.8292694, -18.4146347, -0.1176623
0.4643555, -0.1542969, -0.9291992, -7.3780489, 94.5121994, -19.6951218, -0.1232013
0.3964844, -0.1791992, -0.9208984, -5.8536587, 97.0121994, -20.9756107, -0.1198444
0.3388672, -0.1835938, -0.9550781, -2.7439024, 102.8048782, -22.2560978, -0.1237049
0.2202148, -0.1801758, -1.0551758, -1.7682927, 104.9390259, -22.1341476, -0.1307546
0.171875, -0.1801758, -1.1025391, -0.7317073, 105.1219559, -20.7926826, -0.1346151
0.1357422, -0.1704102, -1.1542969, -1.097561, 102.9268341, -19.3902435, -0.1351186
0.152832, -0.1655273, -1.1538086, -2.9878049, 96.5853653, -16.8292694, -0.1438468
0.2407227, -0.1645508, -1.1352539, -3.9634147, 93.7804871, -16.5853653, -0.1522393
0.2958984, -0.171875, -1.1166992, -5.609756, 91.5243912, -16.7073174, -0.1562676
0.4008789, -0.1865234, -1.0908203, -7.1951222, 92.6219559, -18.1097565, -0.1497215
0.4399414, -0.1962891, -1.0844727, -7.5609756, 94.4512253, -18.3536587, -0.1326009
0.4897461, -0.2094727, -1.0795898, -7.5, 98.7804871, -18.780489, -0.1153124
0.4907227, -0.2089844, -1.0458984, -7.4390244, 100.6097565, -18.4756107, -0.0955062
0.4760742, -0.2075195, -1.0126953, -5.1219511, 103.5975647, -18.5365849, -0.0743572
0.4287109, -0.1987305, -0.9448242, -3.6585367, 104.2073212, -18.7195129, -0.0525368
0.3950195, -0.1914062, -0.9287109, -0.4268293, 105.18293, -19.2073174, -0.0344091
0.3188477, -0.1879883, -0.9375, 0.6707317, 105.8536606, -19.2073174, -0.0139315
0.2817383, -0.1801758, -0.9570312, 1.2804878, 105.9756088, -20.1219521, -0.0023499
0.2192383, -0.1567383, -0.9863281, 0.4268293, 105.1219559, -20.1219521, 0.0075532
0.1987305, -0.140625, -0.9941406, -1.9512196, 100.8536606, -20.6097565, 0.0139315
0.2075195, -0.1274414, -0.9775391, -5.1829271, 94.3292694, -20.3658543, 0.0172885
0.230957, -0.128418, -0.9736328, -6.0975609, 91.3414688, -20.3658543, 0.0196384
0.2817383, -0.1396484, -0.9765625, -9.4512196, 87.7439041, -20.1219521, 0.0209812
0.3452148, -0.1552734, -0.9707031, -11.1585369, 86.5853653, -19.7560978, 0.023331
0.3725586, -0.1635742, -0.9555664, -13.4146347, 85.1219559, -19.1463413, 0.0293736
0.4125977, -0.1762695, -0.9384766, -13.4146347, 85.0609741, -18.780489, 0.026688
0.4262695, -0.1855469, -0.9580078, -12.1341467, 87.1341476, -18.1707325, 0.0166171
0.4379883, -0.2138672, -1.0429688, -11.4634151, 89.0853653, -17.8048782, 0.0072175
0.4467773, -0.2294922, -1.0981445, -10.9146347, 92.0121994, -16.9512196, 0.0078889
0.4667969, -0.2597656, -1.1762695, -11.5243902, 93.5365906, -15.9146347, 0.0119173
0.4882812, -0.2666016, -1.1855469, -12.5, 94.3292694, -15.4878054, 0.0146029
0.5405273, -0.2592773, -1.1552734, -12.8048782, 95.9146347, -15.7926836, 0.0216526
0.5625, -0.25, -1.1279297, -12.0121956, 98.1097565, -16.4634151, 0.0240024
0.5893555, -0.2285156, -1.0673828, -10, 103.9634171, -17.7439022, 0.0253452
0.5795898, -0.2036133, -1.0039062, -8.9024391, 106.5853653, -18.2926826, 0.018967
0.5644531, -0.1899414, -0.9785156, -7.6829271, 110.5487823, -20, 0.0057069
0.5117188, -0.1650391, -0.984375, -7.5, 111.8902435, -20.5487804, -0.0016785
0.4785156, -0.1611328, -1.0141602, -8.2926826, 114.2073212, -21.280489, -0.0062104
0.4213867, -0.1655273, -1.0805664, -9.2682924, 114.6951218, -21.1585369, -0.0162814
0.4072266, -0.1708984, -1.0942383, -12.2560978, 112.9878082, -19.939024, -0.026688
0.4145508, -0.1860352, -1.0522461, -13.5365858, 110.18293, -19.0243912, -0.0310521
0.4399414, -0.1889648, -1.0097656, -15.1829271, 104.146347, -17.6219521, -0.0357519
0.4873047, -0.1977539, -0.9370117, -14.8170738, 101.8902435, -16.9512196, -0.0318914
0.5112305, -0.199707, -0.9208984, -14.2073174, 102.8048782, -16.5853653, -0.0290379
0.5297852, -0.1953125, -0.9370117, -13.2926836, 107.3780518, -15.7317076, -0.0330663
0.5200195, -0.1791992, -0.9873047, -12.9878054, 109.4512253, -15.5487804, -0.0399481
0.512207, -0.1699219, -1.0097656, -12.5, 111.0365906, -13.6585369, -0.0417945
0.5117188, -0.1513672, -1.0483398, -12.6829271, 110.36586, -12.7439032, -0.0491798
0.5175781, -0.1435547, -1.0527344, -14.2073174, 108.1707306, -10.9756098, -0.070161
0.5463867, -0.1396484, -1.0454102, -15.3048782, 107.2561035, -10, -0.0767071
0.5629883, -0.1425781, -1.0263672, -17.1951218, 105.6097565, -9.0243902, -0.0626078
0.59375, -0.1557617, -0.9702148, -18.1707325, 105.0609818, -8.9634151, -0.026688
0.6088867, -0.1660156, -0.9326172, -19.2682934, 103.6585388, -9.6341467, 0.0270237
0.6181641, -0.1928711, -0.8798828, -19.3292694, 102.3170776, -10.2439022, 0.0616007
0.609375, -0.2016602, -0.8623047, -18.4146347, 102.3170776, -10.4878054, 0.082414
0.5776367, -0.2192383, -0.8476562, -16.2195129, 101.7073212, -10.3658543, 0.0810712
0.5273438, -0.2192383, -0.8447266, -14.7560978, 100.9146347, -10.1829271, 0.0575723
0.5092773, -0.2104492, -0.8525391, -10.6097565, 99.146347, -9.5731707, 0.0287022
0.4838867, -0.1982422, -0.8666992, -8.5365858, 97.4390259, -9.2682924, -0.0016785
0.4814453, -0.1987305, -0.8696289, -5.1829271, 93.9634171, -8.4756098, -0.0297093
0.5087891, -0.2026367, -0.8847656, -4.390244, 92.0731735, -8.1707315, -0.04448
0.5253906, -0.2075195, -0.8945312, -3.4756098, 88.4146347, -7.8048782, -0.0538796
0.5742188, -0.2119141, -0.940918, -3.4146342, 87.7439041, -8.0487804, -0.0558938
0.5966797, -0.2099609, -0.9667969, -3.8414636, 87.7439041, -8.6585369, -0.0565652
0.6357422, -0.2001953, -1.0146484, -4.1463413, 88.7804871, -9.3902445, -0.0595865
0.6601562, -0.1918945, -1.0292969, -4.5731707, 89.4512253, -9.3902445, -0.0498512
0.6962891, -0.175293, -1.0371094, -4.3292685, 90.3048782, -9.0853662, -0.0412909
0.7329102, -0.1699219, -1.0087891, -3.9024391, 90.7317123, -8.9024391, -0.0426337
0.7475586, -0.1738281, -0.9868164, -3.3536587, 92.1951218, -8.5975609, -0.0384375
0.7592773, -0.1835938, -0.9399414, -2.804878, 92.9268341, -8.719512, -0.0229953
0.7553711, -0.1904297, -0.9360352, -1.4634147, 95.9146347, -9.0853662, -0.0063783
0.7211914, -0.1757812, -0.9916992, -0.9146342, 98.5365906, -9.3292685, -0.0062104
0.6904297, -0.159668, -1.043457, -0.4878049, 105.2439041, -8.841464, -0.0082246
0.637207, -0.1171875, -1.1201172, -0.7926829, 108.4756088, -7.9878049, -0.0043641
0.6201172, -0.0942383, -1.1245117, -2.2560976, 110.2439041, -5.9756098, 0.0085603
0.6264648, -0.0605469, -1.0400391, -5.3048782, 105.3048782, -4.2682929, 0.0166171
0.6767578, -0.0556641, -0.9091797, -7.0731707, 102.0731735, -4.0853658, 0.01561
0.6987305, -0.065918, -0.8608398, -10.6097565, 98.7195129, -5, 0.0172885
0.7114258, -0.0981445, -0.8237305, -11.4024391, 99.2682953, -5.9146342, 0.0112459
0.7016602, -0.1196289, -0.8334961, -13.841464, 102.1341476, -7.1951222, 0.0077211
0.6518555, -0.1699219, -0.8666992, -14.4512196, 102.68293, -7.9268293, -0.0008392
0.6269531, -0.1870117, -0.8764648, -14.6341467, 100.6097565, -7.8658538, -0.0082246
0.5976562, -0.215332, -0.8544922, -14.5121956, 97.6219559, -7.3170733, -0.0169528
0.5976562, -0.2241211, -0.8388672, -12.9878054, 91.4634171, -5.609756, -0.0246738
0.6157227, -0.2280273, -0.8408203, -11.9512196, 89.3292694, -5.1829271, -0.0313878
0.6254883, -0.2236328, -0.8520508, -10.7317076, 88.5975647, -4.6951222, -0.0280308
0.6445312, -0.2026367, -0.8779297, -10, 88.7804871, -4.390244, -0.0172885
0.6679688, -0.1806641, -0.8608398, -9.9390249, 88.1707306, -4.8780489, -0.0001678
0.6826172, -0.1694336, -0.8378906, -9.5731707, 84.7560959, -5.9756098, -0.0082246
0.715332, -0.1616211, -0.8100586, -9.3292685, 82.3170776, -6.4024391, -0.0157778
0.7285156, -0.159668, -0.8212891, -8.5365858, 80.2439041, -7.2560978, -0.0157778
0.7431641, -0.1699219, -0.8945312, -8.4756098, 80.4268341, -7.7439027, -0.0290379
0.7456055, -0.1801758, -0.9326172, -8.841464, 82.0121994, -7.9268293, -0.0159457
0.7441406, -0.199707, -0.9741211, -9.6951218, 82.0731735, -7.7439027, 0.0052033
0.7480469, -0.2094727, -0.9594727, -9.9390249, 80.4268341, -7.1951222, 0.0172885
0.7666016, -0.2109375, -0.8920898, -9.6951218, 79.2682953, -6.890244, 0.0226596
0.7749023, -0.2075195, -0.8461914, -7.1951222, 77.5, -6.5853658, 0.0146029
0.7768555, -0.1992188, -0.7788086, -3.7195122, 78.5975647, -7.1341467, -0.0085603
0.7514648, -0.1904297, -0.7749023, -2.195122, 79.6341476, -7.6829271, -0.0344091
0.7299805, -0.1855469, -0.8027344, -0.1219512, 81.8292694, -8.1707315, -0.0525368
0.6850586, -0.1865234, -0.9067383, 0.3658537, 82.6219559, -8.2926826, -0.0599222
0.6650391, -0.1845703, -0.9672852, -0.1219512, 83.7804871, -7.6829271, -0.0619364
0.6772461, -0.1821289, -1.0400391, -0.4878049, 83.4146347, -6.5243902, -0.0673075
0.6982422, -0.1806641, -1.0512695, -1.6463414, 81.7073212, -4.390244, -0.0703288
0.7631836, -0.1630859, -1.0151367, -1.7073171, 80.6097565, -3.4146342, -0.0726787
0.8037109, -0.1533203, -0.9794922, -2.0121951, 80.9146347, -2.5609756, -0.0746929
0.8696289, -0.1313477, -0.90625, -2.0121951, 82.6219559, -2.3170731, -0.0713359
0.8857422, -0.1220703, -0.8803711, -2.0121951, 88.5365906, -2.9878049, -0.0626078
0.8798828, -0.1230469, -0.8422852, -2.6219513, 93.3536606, -4.4512196, -0.0562295
0.828125, -0.1489258, -0.8164062, -2.8658538, 93.9634171, -4.8780489, -0.0516976
0.7998047, -0.1635742, -0.8149414, -3.5975611, 92.5609741, -4.6341462, -0.0438087
0.7514648, -0.1982422, -0.8286133, -3.4756098, 91.4024429, -4.3292685, -0.0323949
0.7299805, -0.206543, -0.8452148, -4.0243902, 89.6341476, -3.5975611, -0.0209812
0.7055664, -0.2055664, -0.8681641, -3.7804878, 89.3902435, -2.9268293, -0.0203098
0.7045898, -0.1958008, -0.8706055, -3.1707318, 89.2073212, -2.0121951, -0.0146029
0.7250977, -0.159668, -0.8510742, -2.7439024, 88.7195129, -1.6463414, -0.0115816
0.7397461, -0.144043, -0.8334961, -3.4146342, 86.7073212, -2.0731707, -0.012253
0.7744141, -0.1171875, -0.7880859, -3.6585367, 85.6707306, -2.3780489, -0.0152743
0.784668, -0.1157227, -0.7763672, -5.4878049, 83.6585388, -3.2926829, -0.0283665
0.7954102, -0.1269531, -0.7709961, -7.9878049, 82.8658524, -3.9024391, -0.0350805
0.7910156, -0.1459961, -0.8061523, -9.0243902, 82.5, -3.8414636, -0.0330663
0.7875977, -0.1572266, -0.831543, -11.7073174, 81.4634171, -3.1097562, -0.0283665
0.7836914, -0.1762695, -0.871582, -12.4390249, 80.6707306, -2.4390244, -0.0226596
0.7895508, -0.1806641, -0.8774414, -12.6829271, 79.146347, -0.9146342, -0.0162814
0.8178711, -0.1831055, -0.8623047, -12.8048782, 77.9878082, -0.5487805, -0.0075532
0.8369141, -0.1816406, -0.8427734, -12.3170738, 76.7073212, -0.6097561, -0.0065461
0.8706055, -0.1914062, -0.7978516, -12.3170738, 76.7073212, -1.0365853, 0.0025177
0.8789062, -0.1972656, -0.7739258, -11.7073174, 76.8292694, -2.3170731, 0.0109102
0.8764648, -0.2148438, -0.7236328, -11.4634151, 77.0121994, -3.2317073, 0.0139315
0.8652344, -0.2255859, -0.7070312, -9.6951218, 76.7682953, -4.4512196, 0.0253452
0.8217773, -0.2358398, -0.6967773, -7.3170733, 75.6097565, -4.9390244, 0.0330663
0.7871094, -0.2368164, -0.699707, -6.0365853, 74.8170776, -4.7560978, 0.0414588
0.769043, -0.2333984, -0.7060547, -2.9268293, 73.1097565, -4.5731707, 0.0394446
0.7573242, -0.2197266, -0.7182617, -1.5853659, 71.8902435, -4.6951222, 0.0307164
0.7583008, -0.2104492, -0.7241211, 0.2439024, 69.4512177, -4.6951222, 0.0280308
0.7832031, -0.1904297, -0.7470703, 0.1829268, 68.2317123, -5, 0.0263523
0.7944336, -0.1816406, -0.7700195, 0.3048781, 67.0121994, -5.4268293, 0.021149
0.8198242, -0.1625977, -0.8305664, -0.1829268, 67.6219559, -5.7317076, 0.0085603
0.8310547, -0.1484375, -0.8588867, -2.195122, 69.5731735, -5.670732, -0.0011749
0.859375, -0.1333008, -0.8774414, -3.5365853, 70.2439041, -5.4878049, -0.005539
0.8735352, -0.125, -0.862793, -5.0609756, 70.9146347, -5.2439027, -0.0206455
0.9077148, -0.1171875, -0.8061523, -6.2195125, 70.6707306, -5.1829271, -0.0236667
0.9233398, -0.1176758, -0.7460938, -6.7682929, 70.9756088, -5.3048782, -0.0260166
0.9262695, -0.1254883, -0.7265625, -7.3170733, 72.9878082, -5.4878049, -0.0303807
0.8945312, -0.1337891, -0.7255859, -7.5609756, 74.6951218, -5.7926831, -0.0303807
0.8725586, -0.1396484, -0.7490234, -8.5365858, 77.7439041, -6.3414636, -0.0280308
0.8217773, -0.1601562, -0.800293, -9.3292685, 78.6585388, -6.3414636, -0.0276951
0.8066406, -0.168457, -0.8105469, -10.8536587, 77.7439041, -6.0975609, -0.0223239
0.7983398, -0.1791992, -0.8056641, -11.4024391, 76.7073212, -5.3048782, -0.0003357
0.8095703, -0.1860352, -0.777832, -10.9756098, 73.9024429, -4.5121951, 0.0102388
0.847168, -0.1948242, -0.7182617, -9.6951218, 72.9268341, -4.2682929, 0.0025177
0.8671875, -0.1938477, -0.6889648, -7.6219516, 72.7439041, -4.3292685, -0.002182
0.8896484, -0.1899414, -0.6640625, -5.9756098, 74.4512177, -4.6341462, -0.0062104
0.878418, -0.190918, -0.6601562, -5.8536587, 75.2439041, -4.8780489, -0.0142672
0.8681641, -0.1875, -0.6591797, -5.670732, 76.0975647, -5.5487804, -0.0219883
0.8442383, -0.1870117, -0.6572266, -5.2439027, 75.5487823, -5.4878049, -0.0344091
0.831543, -0.1865234, -0.6601562, -4.4512196, 73.0487823, -5.1219511, -0.0485084
0.8232422, -0.175293, -0.6713867, -4.2682929, 72.2560959, -4.7560978, -0.0394446
0.8261719, -0.1621094, -0.6787109, -3.4756098, 69.6951218, -4.390244, -0.0068818
0.8505859, -0.140625, -0.6889648, -3.2317073, 69.0243912, -4.2073174, 0.0318914
0.8642578, -0.1328125, -0.6904297, -3.6585367, 67.5609741, -4.3292685, 0.0649577
0.894043, -0.1274414, -0.6958008, -4.2682929, 66.8292694, -4.8780489, 0.0753643
0.9106445, -0.1293945, -0.6953125, -5.3658538, 65.4268341, -5.3658538, 0.0803998
0.9262695, -0.140625, -0.6767578, -6.6463418, 64.5121994, -5.670732, 0.0642863
0.9379883, -0.1533203, -0.6538086, -6.890244, 64.3292694, -5.670732, 0.04448
0.9345703, -0.1635742, -0.6401367, -6.7073174, 64.3292694, -5.3658538, 0.0193027
0.9140625, -0.1625977, -0.6342773, -6.4024391, 64.4512177, -5.4268293, -0.0075532
0.9057617, -0.1640625, -0.6435547, -5.4268293, 65.18293, -4.7560978, -0.0223239
0.8833008, -0.1650391, -0.6679688, -5.609756, 65.3658524, -4.4512196, -0.0354162
0.8779297, -0.1591797, -0.6689453, -5.3658538, 64.5121994, -4.2682929, -0.0461585
0.8759766, -0.1616211, -0.6503906, -5.3048782, 63.2926826, -4.4512196, -0.0505226
0.8803711, -0.1635742, -0.6235352, -5.5487804, 60.4878044, -5.1219511, -0.063447
0.8945312, -0.1708984, -0.5766602, -5, 58.2926826, -6.1585369, -0.0716716
0.8959961, -0.1791992, -0.5654297, -4.3292685, 58.0487823, -6.7682929, -0.0760357
0.8925781, -0.1967773, -0.5893555, -3.9634147, 59.1463432, -7.2560978, -0.0856031
0.8745117, -0.1948242, -0.6474609, -4.0853658, 60.2439041, -7.1341467, -0.0965133
0.8710938, -0.190918, -0.6748047, -4.2682929, 61.2804909, -6.2195125, -0.1008774
0.8696289, -0.1640625, -0.706543, -4.1463413, 61.4024391, -5.8536587, -0.10692
0.8808594, -0.1503906, -0.7050781, -3.2317073, 59.3292694, -5.4878049, -0.1015488
0.9194336, -0.1362305, -0.6674805, -2.8658538, 58.2926826, -5.4878049, -0.0753643
0.9394531, -0.1313477, -0.6386719, -2.0121951, 56.7682953, -6.2195125, -0.0565652
0.9672852, -0.1264648, -0.5917969, -1.8902439, 57.0731735, -6.4634147, -0.054551
0.9716797, -0.1328125, -0.5761719, -2.6829269, 58.3536606, -7.1341467, -0.0532082
0.953125, -0.1342773, -0.574707, -3.9024391, 60.8536606, -7.1951222, -0.0595865
0.9355469, -0.1303711, -0.5908203, -4.0853658, 61.7073174, -7.0731707, -0.0528725
0.9023438, -0.1298828, -0.6367188, -4.9390244, 61.2804909, -5.9756098, -0.0498512
0.8916016, -0.128418, -0.6577148, -5.3658538, 60, -5.2439027, -0.0485084
0.8925781, -0.1298828, -0.6503906, -5.9146342, 57.0121956, -4.4512196, -0.0431373
0.9204102, -0.1303711, -0.6171875, -5.8536587, 55.9756126, -4.3292685, -0.0384375
0.9321289, -0.1347656, -0.5927734, -6.0975609, 55.7926826, -4.5121951, -0.0417945
0.9394531, -0.1362305, -0.5625, -5.7926831, 56.4634171, -4.7560978, -0.0508583
0.9360352, -0.1416016, -0.5507812, -5.4878049, 57.8048782, -4.9390244, -0.0518654
0.9223633, -0.1455078, -0.5483398, -5.609756, 57.9878044, -5.4268293, -0.0485084
0.9121094, -0.1479492, -0.5493164, -6.0365853, 56.7073174, -5.7926831, -0.0424659
0.8901367, -0.1552734, -0.5512695, -6.4634147, 54.5121956, -5.4878049, -0.0347448
0.8837891, -0.1635742, -0.5541992, -6.4024391, 52.9878044, -5.1219511, -0.0280308
0.8896484, -0.1635742, -0.5527344, -5.9146342, 50.9146347, -5.1829271, -0.0263523
0.9042969, -0.1694336, -0.5498047, -5.0609756, 50.1829262, -5.1829271, -0.0290379
0.9155273, -0.1674805, -0.5537109, -3.9024391, 49.2682953, -5.1829271, -0.0320592
0.9306641, -0.1474609, -0.565918, -3.3536587, 49.3292694, -5.7317076, -0.0317235
0.9375, -0.1386719, -0.5703125, -3.3536587, 49.8780518, -5.4878049, -0.0339055
0.9477539, -0.1137695, -0.5913086, -3.4756098, 50.2439041, -5.3048782, -0.0391089
0.9501953, -0.1132812, -0.6010742, -4.6951222, 50.1219521, -5.3658538, -0.0370947
0.9628906, -0.1147461, -0.612793, -5.4268293, 49.8780518, -5.4268293, -0.0354162
0.9619141, -0.1191406, -0.6123047, -6.3414636, 49.2682953, -5.7926831, -0.0297093
0.9628906, -0.1425781, -0.5898438, -6.4634147, 48.841465, -6.0365853, -0.0135958
0.9624023, -0.1538086, -0.574707, -6.2195125, 49.0853653, -5.9146342, -0.012253
0.9589844, -0.1669922, -0.5405273, -4.5121951, 50.1219521, -6.0365853, -0.0297093
0.9472656, -0.1923828, -0.5288086, -3.3536587, 50.7317085, -6.4024391, -0.0317235
0.9365234, -0.2021484, -0.5332031, -1.5853659, 51.0975609, -7.0731707, -0.0243381
0.9106445, -0.206543, -0.5288086, -0.9146342, 51.1585388, -7.1951222, -0.0025177
0.9023438, -0.1982422, -0.5170898, -0.1219512, 49.8170738, -7.0731707, 0.0105745
0.8925781, -0.1796875, -0.4765625, 0.4268293, 49.3292694, -6.7073174, 0.0119173
0.8916016, -0.1625977, -0.4584961, 1.9512196, 47.0731735, -6.5853658, 0.0072175
0.9086914, -0.1293945, -0.4589844, 2.6219513, 45.9756126, -6.890244, -0.0003357
0.9155273, -0.1235352, -0.4697266, 2.9878049, 44.3292694, -8.0487804, -0.0028534
0.9287109, -0.1240234, -0.4956055, 1.3414634, 42.2560997, -9.3292685, -0.0129244
0.9326172, -0.1367188, -0.5048828, 0.3048781, 40.8536606, -9.3902445, -0.018967
0.9418945, -0.1523438, -0.5063477, -1.0365853, 39.3292694, -9.7560978, -0.0216526
0.9462891, -0.1665039, -0.4951172, -0.7926829, 38.7804871, -9.8170738, -0.0297093
0.9467773, -0.1660156, -0.4921875, 0.3048781, 38.9024391, -9.6951218, -0.0310521
0.9472656, -0.1586914, -0.5097656, 1.2195122, 39.5121956, -9.2073174, -0.0310521
0.9443359, -0.1503906, -0.5258789, 2.0121951, 40.7926826, -9.4512196, -0.0330663
0.9331055, -0.1279297, -0.5664062, 2.1341465, 41.5853653, -9.5121956, -0.0354162
0.934082, -0.1181641, -0.5932617, 0.9146342, 42.7439041, -8.9024391, -0.0287022
0.934082, -0.0849609, -0.6279297, -0.3048781, 43.2926826, -8.1707315, -0.0236667
0.9443359, -0.0732422, -0.6308594, -2.6829269, 44.0243912, -7.6219516, -0.0196384
0.9541016, -0.0625, -0.6083984, -4.1463413, 44.6341476, -7.4390244, -0.0095674
0.9589844, -0.0600586, -0.5849609, -4.8170733, 45.1219521, -7.3780489, -0.0048676
0.96875, -0.0742188, -0.5253906, -5.9756098, 45.4878044, -7.6219516, 0.0005035
0.956543, -0.105957, -0.4829102, -6.4024391, 45.9146347, -7.8658538, 0.0119173
0.9467773, -0.121582, -0.4726562, -7.3170733, 46.1585388, -8.1097565, 0.0365911
0.9165039, -0.1416016, -0.4794922, -7.8658538, 46.0365868, -8.1097565, 0.0379339
0.902832, -0.1503906, -0.4995117, -8.9024391, 46.0365868, -7.4390244, 0.0337377
0.8911133, -0.1518555, -0.5507812, -9.1463413, 45.8536606, -6.7682929, 0.024506
0.8950195, -0.1494141, -0.5698242, -9.7560978, 45.4878044, -5.670732, 0.0117494
0.9116211, -0.1386719, -0.5756836, -9.8170738, 44.9390259, -5.3048782, -0.0005035
0.9208984, -0.1318359, -0.5556641, -9.2682924, 43.9024391, -4.5731707, -0.0176242
0.9443359, -0.1132812, -0.487793, -8.2926826, 43.2317085, -4.4512196, -0.0307164
0.9492188, -0.105957, -0.4492188, -7.5, 43.1707344, -4.8780489, -0.0399481
0.9414062, -0.1044922, -0.4008789, -7.4390244, 42.8658562, -4.9390244, -0.0374304
0.9174805, -0.1162109, -0.3818359, -7.7439027, 42.1341476, -4.8170733, -0.0323949
0.9033203, -0.1289062, -0.3833008, -9.6951218, 39.2073174, -4.5731707, -0.026688
0.8779297, -0.1459961, -0.4101562, -10.1219511, 37.2560997, -4.4512196, -0.0203098
0.8735352, -0.1518555, -0.4331055, -10.9146347, 33.1097565, -3.4756098, -0.0243381
0.8847656, -0.1479492, -0.4726562, -10.8536587, 31.1585369, -2.5609756, -0.0370947
0.8979492, -0.1484375, -0.4868164, -9.8780489, 28.2926826, -2.195122, -0.0441444
0.9311523, -0.1430664, -0.4990234, -9.5731707, 26.9512196, -1.9512196, -0.0501869
0.9516602, -0.1430664, -0.4921875, -8.4756098, 25.2439022, -1.5853659, -0.0525368
0.9814453, -0.1430664, -0.4570312, -7.6219516, 24.6951218, -1.7682927, -0.0454871
0.9814453, -0.1411133, -0.4272461, -7.3780489, 25.1829281, -1.8902439, -0.04448
0.9760742, -0.137207, -0.425293, -6.4634147, 25.4268303, -2.195122, -0.0424659
0.949707, -0.1411133, -0.4335938, -6.280488, 24.7560978, -2.5, -0.0404517
0.9399414, -0.1435547, -0.4418945, -6.280488, 22.3780499, -2.7439024, -0.0419623
0.9277344, -0.1547852, -0.4570312, -6.7682929, 20.9146347, -2.804878, -0.0438087
0.9208984, -0.1577148, -0.4584961, -7.3780489, 17.6219521, -2.195122, -0.0532082
0.925293, -0.1508789, -0.4521484, -7.1951222, 16.8292694, -1.8292683, -0.0673075
0.9326172, -0.1455078, -0.4575195, -5.3658538, 16.4024391, -1.2195122, -0.0773785
0.9453125, -0.1186523, -0.4814453, -4.8170733, 16.8292694, -1.3414634, -0.0767071
0.9521484, -0.1152344, -0.5009766, -4.2073174, 16.8902435, -1.7682927, -0.0721752
0.9575195, -0.1040039, -0.5273438, -5.609756, 16.6463413, -1.9512196, -0.0693217
0.9604492, -0.1054688, -0.519043, -6.7073174, 16.2195129, -1.9512196, -0.0663005
0.9648438, -0.109375, -0.5141602, -8.9634151, 15.8536587, -1.5243902, -0.0599222
0.965332, -0.1171875, -0.5083008, -9.8780489, 16.2195129, -1.5243902, -0.0552224
0.9619141, -0.1186523, -0.5151367, -10.3048782, 17.0731716, -1.3414634, -0.0491798
0.9555664, -0.1191406, -0.5244141, -10.6707315, 17.6219521, -1.097561, -0.040116
0.9487305, -0.1142578, -0.5317383, -11.280488, 18.1707325, -0.6097561, -0.0391089
0.9453125, -0.1074219, -0.5288086, -12.3170738, 17.9878044, -0.7317073, -0.0404517
0.949707, -0.1005859, -0.5234375, -12.9878054, 17.7439022, -0.1219512, -0.043473
0.956543, -0.0976562, -0.5063477, -13.2317076, 17.439024, -0.0609756, -0.0498512
0.9545898, -0.1020508, -0.4960938, -13.780488, 17.0121956, -0.6097561, -0.054551
0.9575195, -0.1132812, -0.4794922, -14.5731707, 16.5243912, -0.7926829, -0.0532082
0.9477539, -0.1245117, -0.4667969, -15.1829271, 16.4634151, -0.3048781, -0.057908
0.9379883, -0.1298828, -0.4648438, -15.8536587, 16.0365849, -0.1829268, -0.0424659
0.9238281, -0.144043, -0.4746094, -15.8536587, 15.6707325, -0.1219512, -0.0083925
0.9169922, -0.1445312, -0.4833984, -16.0975609, 14.4512196, -0.1219512, 0.033402
0.9155273, -0.1499023, -0.4907227, -16.1585369, 13.7195129, 0, 0.068986
0.9174805, -0.152832, -0.4936523, -16.4024391, 11.7073174, 0.0609756, 0.0919814
0.9321289, -0.1538086, -0.4868164, -16.3414631, 11.0365858, 0.3048781, 0.0985275
0.9375, -0.1499023, -0.4897461, -16.0365849, 10.4268293, 0.5487805, 0.0864424
0.9418945, -0.1328125, -0.4897461, -15.7317076, 10.3048782, 0.5487805, 0.0642863
0.9462891, -0.1264648, -0.4848633, -15.4878054, 9.8780489, 1.1585366, 0.0394446
0.9458008, -0.1240234, -0.4775391, -15.3048782, 8.5365858, 1.2804878, 0.0293736
0.9458008, -0.1245117, -0.4619141, -15.3658543, 7.7439027, 1.2804878, 0.0240024
0.9438477, -0.1289062, -0.4521484, -15.7926836, 5.4878049, 1.4634147, 0.0117494
0.940918, -0.1435547, -0.4394531, -15.9146347, 4.390244, 1.5243902, 0.0065461
0.9355469, -0.1494141, -0.4365234, -15.5487804, 2.6219513, 1.4634147, -0.002182
0.9272461, -0.152832, -0.4379883, -15.3658543, 1.7073171, 1.6463414, -0.0139315
0.9262695, -0.1577148, -0.4472656, -14.9390249, -0.1219512, 1.8292683, -0.0265202
0.9145508, -0.1547852, -0.4716797, -14.9390249, -0.4268293, 1.8292683, -0.0317235
0.9101562, -0.1538086, -0.4863281, -14.8170738, -2.0121951, 2.5609756, -0.0317235
0.9106445, -0.1362305, -0.5, -15, -2.5, 2.8658538, -0.0344091
0.918457, -0.1254883, -0.5039062, -14.6951227, -3.7195122, 3.4756098, -0.0352483
0.9389648, -0.1176758, -0.5102539, -14.4512196, -4.8780489, 3.1707318, -0.0370947
0.9536133, -0.1210938, -0.5087891, -14.8780489, -5.8536587, 2.9268293, -0.0350805
0.9624023, -0.1308594, -0.5058594, -16.1585369, -6.9512196, 2.2560976, -0.0298772
0.9614258, -0.1489258, -0.4892578, -16.5853653, -6.9512196, 2.4390244, -0.0317235
0.9589844, -0.1538086, -0.4799805, -16.9512196, -7.1341467, 2.6829269, -0.0303807
0.9423828, -0.1665039, -0.4790039, -16.8902435, -7.1951222, 2.8658538, -0.0303807
0.9335938, -0.1713867, -0.487793, -16.2195129, -8.0487804, 2.6829269, -0.0270237
0.921875, -0.1743164, -0.5019531, -16.5243912, -8.719512, 2.9878049, -0.01561
0.9179688, -0.1728516, -0.5078125, -16.4634151, -10.1219511, 3.5975611, -0.0085603
0.9101562, -0.1577148, -0.5058594, -16.4024391, -10.4878054, 3.8414636, -0.0005035
0.9145508, -0.1479492, -0.5024414, -16.3414631, -11.4024391, 4.7560978, 0.0035248
0.9262695, -0.1235352, -0.5146484, -16.2195129, -11.7682934, 4.5121951, 0.0025177
0.9370117, -0.1196289, -0.5258789, -16.8902435, -12.560976, 4.0243902, 0.0010071
0.9360352, -0.1210938, -0.5361328, -19.1463413, -13.7195129, 4.0853658, 0.0038605
0.940918, -0.1230469, -0.527832, -20.4268303, -14.1463413, 4.2682929, 0.0142672
0.9394531, -0.1206055, -0.5166016, -22.0121956, -15.4268293, 5.1219511, 0.023331
0.9370117, -0.1269531, -0.4980469, -21.8902435, -15.8536587, 5.609756, 0.0377661
0.9350586, -0.1313477, -0.4980469, -22.0731716, -16.7682934, 5.670732, 0.0575723
0.9213867, -0.1430664, -0.4921875, -22.1341476, -17.439024, 5.670732, 0.0572366
0.9150391, -0.1518555, -0.4892578, -22.439024, -18.4756107, 5.609756, 0.0575723
0.90625, -0.1674805, -0.4838867, -22.560976, -19.4512196, 5.609756, 0.0381018
0.9033203, -0.1738281, -0.4863281, -23.2317085, -21.2195129, 5.609756, 0.0280308
0.9047852, -0.1728516, -0.4892578, -22.8658543, -22.3780499, 5.9756098, 0.0297093
0.9013672, -0.1616211, -0.4892578, -22.560976, -22.6829281, 6.1585369, 0.040116
0.902832, -0.1538086, -0.4848633, -21.2195129, -23.8414631, 7.3170733, 0.0419623
0.9165039, -0.1308594, -0.484375, -20.6097565, -24.2073174, 7.4390244, 0.0360876
0.9248047, -0.1235352, -0.4892578, -20.7317085, -26.0365868, 7.4390244, 0.017792
0.9316406, -0.125, -0.5200195, -21.4634151, -26.4024391, 7.1951222, 0.0011749
0.9306641, -0.121582, -0.5390625, -24.0853672, -26.8292694, 7.1951222, -0.0102388
0.9287109, -0.1220703, -0.5683594, -25.4878063, -26.5243912, 7.9878049, -0.0223239
0.9316406, -0.1254883, -0.5664062, -27.1341476, -27.3780499, 9.0243902, -0.0357519
0.940918, -0.1259766, -0.5463867, -27.6219521, -28.1707325, 8.9634151, -0.0448157
0.9462891, -0.128418, -0.5268555, -27.3170738, -30, 9.0853662, -0.0525368
