Application:, Trigno Discover (1.6.5)
Date/Time:, 18/02/2025 16:24:33
Collection Length (seconds):, 36.099
wrist (81457), , , , , , bicep (81139)
sensor mode: 609, , , , , , sensor mode: 40
ACC X (G), ACC Y (G), ACC Z (G), GYRO X (deg/s), GYRO Y (deg/s), GYRO Z (deg/s), EMG 1 (mV)
370.3704 Hz, 370.3704 Hz, 370.3704 Hz, 370.3704 Hz, 370.3704 Hz, 370.3704 Hz, 2148.1481 Hz
-0.4921875, 0.7167969, -0.4462891, -22.3170738, -14.7560978, -11.5853662, -0.0441444
-0.5004883, 0.71875, -0.4570312, -21.7682934, -14.5121956, -11.7682934, -0.0488441
-0.5131836, 0.7285156, -0.4882812, -20.9756107, -14.2073174, -11.4634151, -0.064622
-0.5361328, 0.7299805, -0.5053711, -20.8536587, -13.9634151, -11.6463413, -0.0767071
-0.5595703, 0.7285156, -0.5029297, -21.4024391, -13.6585369, -13.1707315, -0.0837568
-0.5957031, 0.7290039, -0.4829102, -21.7682934, -15, -13.9024391, -0.0837568
-0.6103516, 0.7304688, -0.4726562, -21.3414631, -15.9146347, -13.4756098, -0.0649577
-0.6162109, 0.7280273, -0.4584961, -19.2073174, -17.560976, -12.1341467, -0.0330663
-0.6171875, 0.7202148, -0.4560547, -18.4146347, -18.2317085, -11.4634151, -0.0169528
-0.6108398, 0.7050781, -0.4746094, -17.0731716, -18.5365849, -10.1219511, -0.0253452
-0.6074219, 0.6972656, -0.4853516, -16.7073174, -18.3536587, -9.5731707, -0.0347448
-0.6103516, 0.6894531, -0.4833984, -15.6707325, -18.3536587, -8.4146347, -0.0471656
-0.6142578, 0.6967773, -0.4858398, -15.2439032, -18.9634151, -7.6219516, -0.0498512
-0.6147461, 0.7050781, -0.4775391, -14.5731707, -20.7317085, -7.0731707, -0.0468299
-0.6123047, 0.7099609, -0.46875, -13.841464, -22.3780499, -6.5853658, -0.0303807
-0.6083984, 0.71875, -0.4589844, -13.4756098, -23.0487804, -6.5243902, 0.0008392
-0.6025391, 0.7246094, -0.4487305, -12.560976, -23.7195129, -6.0365853, 0.0253452
-0.59375, 0.7250977, -0.449707, -11.9512196, -23.9634151, -5.1829271, 0.0377661
-0.5649414, 0.7358398, -0.4545898, -10.6097565, -24.0243912, -4.2073174, 0.0384375
-0.5512695, 0.737793, -0.4545898, -10.3658543, -24.2682934, -4.2073174, 0.0332341
-0.5385742, 0.7324219, -0.4570312, -10.8536587, -23.9634151, -5.1829271, 0.023331
-0.5415039, 0.7304688, -0.4614258, -11.1585369, -23.780489, -5.7926831, 0.0184634
-0.5424805, 0.734375, -0.4619141, -10.7926836, -23.4756107, -6.7073174, 0.0527047
-0.5537109, 0.7446289, -0.4643555, -10.3048782, -23.4146347, -6.6463418, 0.0847639
-0.550293, 0.7661133, -0.4814453, -9.5121956, -24.0243912, -6.4024391, 0.1072557
-0.5380859, 0.7758789, -0.4892578, -10.4878054, -24.2682934, -6.1585369, 0.0803998
-0.5371094, 0.7719727, -0.4882812, -11.0975609, -24.2073174, -6.7073174, 0.0209812
-0.5444336, 0.7456055, -0.4741211, -12.3780489, -24.0243912, -7.9268293, -0.0260166
-0.5478516, 0.7363281, -0.4633789, -12.5, -24.2073174, -8.5975609, -0.0639506
-0.565918, 0.722168, -0.4394531, -11.8902445, -24.4512196, -8.9634151, -0.082414
-0.5732422, 0.7250977, -0.4331055, -11.1585369, -24.6341476, -8.5365858, -0.0810712
-0.5717773, 0.7368164, -0.4311523, -9.6341467, -24.6951218, -7.6219516, -0.0721752
-0.5717773, 0.737793, -0.4345703, -9.5731707, -23.9634151, -6.8292685, -0.064622
-0.5585938, 0.7338867, -0.4536133, -9.6951218, -22.6829281, -6.4634147, -0.0619364
-0.5541992, 0.7246094, -0.4594727, -9.8780489, -21.8292694, -6.1585369, -0.0636149
-0.5649414, 0.7207031, -0.4658203, -9.5121956, -21.1585369, -6.2195125, -0.0686503
-0.5712891, 0.7280273, -0.4628906, -9.0243902, -22.0731716, -6.1585369, -0.0726787
-0.5742188, 0.7324219, -0.4575195, -8.9634151, -22.6829281, -6.3414636, -0.0800641
-0.581543, 0.737793, -0.449707, -9.0243902, -23.2926826, -6.7682929, -0.0914778
-0.5834961, 0.7338867, -0.4462891, -9.0243902, -22.7439022, -7.1341467, -0.0961776
-0.5878906, 0.7368164, -0.4453125, -9.1463413, -21.6463413, -6.8292685, -0.0904707
-0.5874023, 0.7373047, -0.4506836, -8.9634151, -21.280489, -6.7073174, -0.0726787
-0.5849609, 0.7431641, -0.4541016, -8.4146347, -20.8536587, -5.7926831, -0.0592508
-0.5795898, 0.7460938, -0.4550781, -8.1097565, -20.9146347, -5.9146342, -0.051194
-0.5830078, 0.7397461, -0.4516602, -8.2317076, -20.4878044, -6.3414636, -0.0552224
-0.5874023, 0.7387695, -0.4453125, -8.2926826, -20.4268303, -6.7073174, -0.064622
-0.59375, 0.7431641, -0.4350586, -7.5, -20.5487804, -6.2195125, -0.0753643
-0.5800781, 0.7441406, -0.4326172, -6.1585369, -20.6097565, -5.3048782, -0.0783856
-0.5751953, 0.7431641, -0.4345703, -5.9146342, -20.7317085, -5.0609756, -0.0827497
-0.5600586, 0.7397461, -0.4335938, -6.4634147, -20.060976, -5.1219511, -0.0877852
-0.5546875, 0.734375, -0.4326172, -6.7682929, -19.2682934, -5, -0.0783856
-0.5566406, 0.7299805, -0.4360352, -6.9512196, -18.4756107, -4.9390244, -0.0721752
-0.5532227, 0.7319336, -0.4394531, -7.0731707, -18.2317085, -4.6951222, -0.0647898
-0.5581055, 0.7412109, -0.4477539, -6.9512196, -17.6219521, -4.2682929, -0.051194
-0.5576172, 0.7387695, -0.4545898, -7.2560978, -17.3780499, -4.6341462, -0.0337377
-0.5732422, 0.7451172, -0.4594727, -7.5609756, -16.8292694, -5.5487804, -0.0223239
-0.5878906, 0.7524414, -0.4555664, -7.8658538, -16.8292694, -5.9146342, -0.0176242
-0.6074219, 0.7573242, -0.4589844, -7.7439027, -17.0731716, -5.5487804, -0.01561
-0.609375, 0.7490234, -0.4736328, -7.1341467, -17.9878044, -4.9390244, -0.018967
-0.6113281, 0.7446289, -0.4863281, -7.0121951, -18.4146347, -4.6951222, -0.0206455
-0.6088867, 0.7285156, -0.5039062, -6.280488, -19.1463413, -4.6341462, -0.0236667
-0.6157227, 0.71875, -0.5024414, -6.1585369, -19.6951218, -5.1219511, -0.0273594
-0.6279297, 0.7172852, -0.4863281, -6.280488, -21.4634151, -4.6341462, -0.0135958
-0.6230469, 0.7207031, -0.4702148, -5.9146342, -22.560976, -4.2073174, 0.0213169
-0.6132812, 0.7304688, -0.4433594, -5.2439027, -24.1463413, -3.0487804, 0.0327306
-0.5942383, 0.7299805, -0.4379883, -4.5731707, -24.6951218, -2.804878, 0.0260166
-0.5712891, 0.7260742, -0.4350586, -4.390244, -24.3292694, -2.5, 0.023331
-0.5654297, 0.7255859, -0.440918, -4.1463413, -23.6585369, -2.7439024, 0.0407874
-0.5678711, 0.7255859, -0.4418945, -4.2682929, -22.560976, -3.1097562, 0.0407874
-0.5761719, 0.737793, -0.4414062, -4.5121951, -21.7073174, -2.8658538, 0.0132601
-0.5791016, 0.7426758, -0.4418945, -4.6341462, -22.0121956, -2.6219513, -0.0075532
-0.5786133, 0.7524414, -0.4428711, -4.6341462, -22.8658543, -2.195122, -0.0196384
-0.5712891, 0.7460938, -0.4414062, -4.5121951, -22.8048782, -2.0121951, -0.0169528
-0.5708008, 0.7387695, -0.4433594, -5.1829271, -22.5, -2.7439024, -0.0008392
-0.5771484, 0.7314453, -0.4414062, -5.609756, -22.560976, -3.2317073, 0.0199741
-0.5825195, 0.7236328, -0.4453125, -6.0365853, -22.0731716, -3.2317073, 0.0360876
-0.59375, 0.7241211, -0.4492188, -5.7317076, -22.1341476, -3.2926829, 0.0830854
-0.6035156, 0.7280273, -0.4584961, -5.609756, -22.6219521, -2.9268293, 0.1153124
-0.6088867, 0.7314453, -0.4609375, -5.4878049, -22.9268303, -2.804878, 0.0495155
-0.6171875, 0.7373047, -0.4541016, -6.280488, -23.6585369, -2.7439024, -0.0699931
-0.6147461, 0.7373047, -0.4311523, -7.0121951, -24.3902435, -3.1707318, -0.1559319
-0.6088867, 0.7412109, -0.4194336, -6.8292685, -24.6341476, -2.8658538, -0.1807736
-0.5878906, 0.7475586, -0.4121094, -6.5853658, -24.8780499, -1.6463414, -0.1616388
-0.5732422, 0.7416992, -0.4223633, -5.7317076, -24.8780499, -0.9146342, -0.1129625
-0.5395508, 0.7304688, -0.456543, -6.5853658, -24.0243912, -0.2439024, -0.0485084
-0.5292969, 0.7236328, -0.4692383, -7.2560978, -23.5975609, -0.6707317, 0.0219883
-0.5449219, 0.7250977, -0.4741211, -9.8170738, -22.8048782, -2.2560976, 0.0757
-0.5620117, 0.7275391, -0.4609375, -10.4878054, -22.8658543, -3.2317073, 0.10692
-0.5932617, 0.7431641, -0.4262695, -11.280488, -24.0243912, -4.0243902, 0.1257191
-0.5996094, 0.7470703, -0.4091797, -10.9756098, -24.5731716, -3.9024391, 0.1300832
-0.597168, 0.7402344, -0.3964844, -10.1219511, -25.1829281, -2.9878049, 0.111284
-0.5922852, 0.7172852, -0.3950195, -10.060976, -23.5365868, -3.2317073, 0.0461585
-0.5922852, 0.7114258, -0.4008789, -10.060976, -22.439024, -3.2926829, -0.0016785
-0.597168, 0.7055664, -0.4125977, -10.3048782, -21.0975609, -2.9878049, 0.0028534
-0.6000977, 0.7089844, -0.4155273, -9.9390249, -21.0975609, -2.804878, 0.0216526
-0.6015625, 0.7202148, -0.418457, -9.2073174, -21.5243912, -2.3780489, 0.0495155
-0.6010742, 0.7265625, -0.4125977, -9.3902445, -21.8292694, -2.6219513, 0.1482109
-0.6005859, 0.7373047, -0.4082031, -9.2073174, -21.8292694, -2.4390244, 0.2279393
-0.5981445, 0.7382812, -0.4091797, -9.5121956, -21.9512196, -2.0121951, 0.2207218
-0.6000977, 0.7231445, -0.4086914, -8.780488, -21.3414631, -2.0731707, 0.1606317
-0.5996094, 0.7167969, -0.4150391, -8.2926826, -21.0365868, -2.0121951, 0.0958419
-0.6069336, 0.7128906, -0.4423828, -7.3170733, -20.9756107, -1.2195122, -0.0028534
-0.6166992, 0.7089844, -0.4716797, -7.2560978, -21.7073174, -0.5487805, -0.1373007
-0.6269531, 0.7080078, -0.4829102, -7.1951222, -21.8902435, -0.1829268, -0.205951
-0.6577148, 0.7011719, -0.4741211, -7.5, -23.5365868, -0.4268293, -0.2096437
-0.6713867, 0.7016602, -0.4599609, -7.5609756, -24.6951218, -0.6707317, -0.1801022
-0.6865234, 0.6977539, -0.4213867, -7.3780489, -27.3780499, -0.1829268, -0.1433433
-0.6899414, 0.6962891, -0.4067383, -6.4634147, -28.2926826, 0.4268293, -0.0918135
-0.6640625, 0.7026367, -0.3916016, -3.7195122, -29.6951218, 1.8292683, -0.0330663
-0.6479492, 0.7104492, -0.3955078, -3.1097562, -29.6341476, 2.7439024, 0.0011749
-0.6044922, 0.7338867, -0.4145508, -1.7073171, -28.780489, 3.6585367, -0.0095674
-0.5864258, 0.7363281, -0.4228516, -2.0731707, -27.9268303, 3.9634147, -0.0360876
-0.5605469, 0.7338867, -0.4287109, -3.9634147, -26.1585369, 4.0243902, -0.0619364
-0.5366211, 0.7202148, -0.4238281, -5.5487804, -25.4878063, 3.4146342, -0.0864424
-0.5336914, 0.7172852, -0.4160156, -6.3414636, -25.1219521, 2.9268293, -0.1089342
-0.5283203, 0.7167969, -0.4067383, -8.0487804, -24.6341476, 1.7073171, -0.1122911
-0.5263672, 0.7246094, -0.3999023, -8.841464, -24.3292694, 1.097561, -0.1129625
-0.5268555, 0.7441406, -0.3955078, -10.060976, -23.1707325, 0.4268293, -0.1117876
-0.5297852, 0.7504883, -0.3920898, -10.7317076, -22.3170738, 0.0609756, -0.1055772
-0.5288086, 0.7543945, -0.3920898, -12.5, -20.1829281, -0.8536586, -0.0941634
-0.5307617, 0.7495117, -0.3950195, -13.0487804, -19.3292694, -1.3414634, -0.0753643
-0.5478516, 0.7407227, -0.4057617, -14.6951227, -17.7439022, -1.7682927, -0.0716716
-0.5634766, 0.7211914, -0.4130859, -15.1219511, -16.8902435, -2.0731707, -0.0830854
-0.5756836, 0.7177734, -0.4204102, -16.0975609, -16.0365849, -2.6829269, -0.0908064
-0.6054688, 0.7104492, -0.4375, -16.4024391, -16.1585369, -3.1707318, -0.0911421
-0.6166992, 0.7055664, -0.4462891, -16.3414631, -16.4024391, -3.2926829, -0.0773785
-0.6445312, 0.7016602, -0.4604492, -15.2439032, -17.8658543, -2.3780489, -0.0246738
-0.6518555, 0.6972656, -0.4628906, -14.8780489, -18.9634151, -2.2560976, 0.0505226
-0.6586914, 0.6884766, -0.440918, -14.3292685, -21.1585369, -2.3170731, 0.0626078
-0.6625977, 0.6943359, -0.421875, -13.9634151, -22.0121956, -2.3170731, 0.0458228
-0.6435547, 0.6972656, -0.3935547, -12.8658543, -24.0243912, -1.097561, 0.0184634
-0.6230469, 0.6967773, -0.3857422, -12.3780489, -24.4512196, 0, -0.0095674
-0.5751953, 0.6914062, -0.3916016, -11.1585369, -24.0853672, 2.0121951, -0.0317235
-0.5390625, 0.6801758, -0.40625, -11.5853662, -22.8658543, 2.0121951, -0.0468299
-0.5395508, 0.6816406, -0.4091797, -12.5, -20.1829281, 1.6463414, -0.0594186
-0.5551758, 0.684082, -0.4091797, -12.9878054, -19.0243912, 0.7317073, -0.0713359
-0.5722656, 0.6938477, -0.4038086, -13.1707315, -18.9634151, 0.8536586, -0.0827497
-0.5991211, 0.7041016, -0.4057617, -12.2560978, -19.6951218, 0.7317073, -0.0921492
-0.609375, 0.7099609, -0.4111328, -11.8902445, -20.060976, 0.7926829, -0.0891279
-0.6098633, 0.7177734, -0.4111328, -11.8902445, -19.939024, 0.3658537, -0.0881209
-0.6137695, 0.7182617, -0.4091797, -11.8292685, -19.6951218, 0.2439024, -0.0874495
-0.6132812, 0.7158203, -0.4121094, -11.5853662, -19.6341476, 0.5487805, -0.0817426
-0.6054688, 0.7138672, -0.4125977, -11.0365858, -20.060976, 0.7926829, -0.079057
-0.5776367, 0.7104492, -0.4287109, -10.3048782, -20.6097565, 1.7073171, -0.0793927
-0.546875, 0.7158203, -0.4375, -10.4878054, -20.4878044, 2.1341465, -0.0775463
-0.5429688, 0.7167969, -0.4379883, -11.6463413, -20.060976, 1.1585366, -0.0767071
-0.5400391, 0.7255859, -0.4277344, -12.6829271, -19.7560978, -0.3048781, -0.0753643
-0.5371094, 0.730957, -0.4257812, -13.1097565, -19.8170738, -0.4878049, -0.0775463
-0.5498047, 0.7236328, -0.4248047, -12.9878054, -20.3658543, -1.7682927, -0.0803998
-0.5610352, 0.7163086, -0.4287109, -12.9268293, -20.3658543, -2.0121951, -0.0708324
-0.5742188, 0.7036133, -0.4365234, -12.9268293, -20.060976, -2.3170731, -0.0206455
-0.5844727, 0.6987305, -0.434082, -13.1707315, -19.8780499, -2.3170731, 0.0085603
-0.5878906, 0.7026367, -0.4331055, -12.8658543, -20.2439022, -1.7682927, -0.0041962
-0.5810547, 0.7114258, -0.4311523, -12.8048782, -20.7317085, -1.097561, -0.0350805
-0.5595703, 0.7265625, -0.421875, -12.1951218, -21.4634151, -1.0365853, -0.064622
-0.5424805, 0.7387695, -0.4189453, -12.6219511, -21.3414631, -1.3414634, -0.0777142
-0.5385742, 0.7382812, -0.4194336, -13.5365858, -19.7560978, -2.3780489, -0.0854353
-0.5488281, 0.7324219, -0.4326172, -13.9024391, -18.1707325, -3.1097562, -0.064622
-0.5556641, 0.7358398, -0.4394531, -14.1463413, -17.6219521, -2.9878049, -0.0229953
-0.5654297, 0.7333984, -0.4521484, -14.2682934, -17.8658543, -2.7439024, 0.0065461
-0.5722656, 0.7255859, -0.449707, -14.9390249, -18.1097565, -2.9878049, 0.0164492
-0.5854492, 0.7094727, -0.440918, -16.4024391, -18.2317085, -4.0243902, 0.0323949
-0.5986328, 0.7080078, -0.4296875, -16.9512196, -18.2926826, -4.4512196, 0.0480049
-0.6225586, 0.7026367, -0.4047852, -16.7682934, -18.3536587, -4.3292685, 0.0679789
-0.6269531, 0.7001953, -0.4033203, -16.0365849, -18.4756107, -3.4146342, 0.1381399
-0.6225586, 0.7026367, -0.4248047, -14.3902445, -18.5365849, -1.3414634, 0.1905089
-0.6171875, 0.6958008, -0.4526367, -13.4756098, -18.2926826, -0.6097561, 0.1824521
-0.6162109, 0.6948242, -0.4594727, -13.7195129, -18.1707325, -0.3658537, 0.1676814
-0.621582, 0.6875, -0.4511719, -14.6341467, -18.6585369, -1.097561, 0.1378042
-0.6318359, 0.6914062, -0.4384766, -14.6341467, -19.7560978, -1.2195122, 0.1059129
-0.6269531, 0.7114258, -0.4150391, -13.7195129, -21.9512196, -0.6097561, 0.0877852
-0.6118164, 0.7275391, -0.4135742, -12.7439032, -22.6829281, 0.1219512, 0.0575723
-0.565918, 0.7426758, -0.4140625, -12.1951218, -22.9268303, 0.7317073, 0.0219883
-0.5458984, 0.7495117, -0.4189453, -12.3780489, -22.1951218, 0.4878049, -0.008896
-0.5234375, 0.7504883, -0.4321289, -14.1463413, -19.939024, -0.3048781, -0.0246738
-0.5219727, 0.7524414, -0.4370117, -14.6341467, -19.1463413, -0.7926829, -0.0229953
-0.527832, 0.7431641, -0.4462891, -15.9756098, -17.9878044, -1.7073171, -0.0045319
-0.5581055, 0.7416992, -0.4477539, -16.5853653, -17.0731716, -2.5, -0.0015106
-0.5722656, 0.7431641, -0.4467773, -17.1341476, -17.0121956, -2.9878049, -0.0028534
-0.6030273, 0.7402344, -0.4423828, -17.8048782, -17.9878044, -3.3536587, -0.0008392
-0.6103516, 0.7387695, -0.4365234, -17.7439022, -18.2926826, -3.4146342, -0.0092317
-0.6220703, 0.734375, -0.4394531, -17.0731716, -18.5975609, -2.8658538, -0.0236667
-0.6206055, 0.7373047, -0.4370117, -16.4634151, -18.5975609, -2.195122, -0.0365911
-0.6035156, 0.730957, -0.4379883, -15.7317076, -19.2073174, -1.4634147, -0.0522011
-0.5947266, 0.722168, -0.4355469, -15.4878054, -19.3292694, -1.402439, -0.0619364
-0.5893555, 0.7041016, -0.4399414, -15.7926836, -18.9024391, -1.9512196, -0.0753643
-0.5942383, 0.6948242, -0.4394531, -15.7317076, -18.4756107, -2.195122, -0.0871138
-0.612793, 0.7001953, -0.4404297, -15.4268293, -18.6585369, -1.5243902, -0.0975204
-0.6181641, 0.7226562, -0.4394531, -15, -18.9024391, -0.7317073, -0.1079271
-0.6137695, 0.7329102, -0.4399414, -14.8780489, -18.780489, -0.3658537, -0.1230335
-0.6035156, 0.7387695, -0.4399414, -15.3658543, -18.4146347, -0.4268293, -0.1344472
-0.6025391, 0.7421875, -0.4404297, -15.4878054, -18.2317085, -0.5487805, -0.1384756
-0.5947266, 0.7475586, -0.4291992, -15.5487804, -17.8658543, -0.8536586, -0.1334401
-0.5976562, 0.7446289, -0.4301758, -15.6097565, -17.5, -0.8536586, -0.1149767
-0.5942383, 0.7407227, -0.4331055, -15.5487804, -17.0731716, -0.7926829, -0.093492
-0.5908203, 0.7358398, -0.4384766, -15.5487804, -16.7073174, -0.6097561, -0.0797284
-0.5932617, 0.7265625, -0.4516602, -16.2195129, -15.8536587, -0.3048781, -0.0330663
-0.5996094, 0.7250977, -0.4536133, -16.5243912, -15.4268293, -0.4878049, 0.0038605
-0.612793, 0.7192383, -0.4472656, -16.7073174, -15.4268293, -0.4268293, 0.0293736
-0.6259766, 0.7177734, -0.4384766, -15.9146347, -16.7073174, -0.4878049, 0.0112459
-0.6298828, 0.7133789, -0.4384766, -15.4878054, -17.6219521, -0.3048781, -0.0481727
-0.6318359, 0.7041016, -0.4311523, -14.3292685, -19.0243912, -0.5487805, -0.0867781
-0.6328125, 0.706543, -0.434082, -13.780488, -19.1463413, -0.3658537, -0.0706645
-0.6259766, 0.7167969, -0.4301758, -13.2317076, -19.3902435, 0.7317073, -0.0270237
-0.6123047, 0.7202148, -0.4228516, -13.4146347, -19.1463413, 0.9756098, -0.0182956
-0.5908203, 0.7333984, -0.4106445, -13.6585369, -18.5975609, 1.097561, -0.0182956
-0.5795898, 0.7387695, -0.402832, -13.6585369, -18.0487804, 1.1585366, -0.024506
-0.5512695, 0.7387695, -0.3979492, -14.2073174, -16.8902435, 1.7073171, -0.023331
-0.5444336, 0.7333984, -0.4038086, -14.0853662, -16.3414631, 1.7073171, -0.0114137
-0.5410156, 0.71875, -0.4194336, -14.8780489, -14.8780489, 1.097561, 0.0058747
-0.5615234, 0.706543, -0.421875, -15.6707325, -12.8658543, 0, 0.0213169
-0.5795898, 0.7050781, -0.4145508, -16.2195129, -12.6829271, -0.4878049, 0.0246738
-0.6142578, 0.7104492, -0.3950195, -16.5243912, -12.6829271, -0.7926829, 0.0159457
-0.6181641, 0.7148438, -0.3823242, -15.6707325, -13.2926836, -0.5487805, 0.0050355
-0.6176758, 0.7197266, -0.3823242, -14.5121956, -13.7195129, 0, -0.0073854
-0.6103516, 0.7241211, -0.3935547, -13.7195129, -12.9268293, 0.1219512, -0.0196384
-0.5981445, 0.7280273, -0.4213867, -13.4756098, -11.4634151, 0.5487805, -0.0330663
-0.5947266, 0.7324219, -0.4291992, -14.0853662, -10.3658543, 0.7317073, -0.0458228
-0.5874023, 0.7348633, -0.449707, -15.060976, -8.9634151, 1.2804878, -0.0533761
-0.5898438, 0.7324219, -0.4511719, -15.6097565, -8.6585369, 1.2804878, -0.047837
-0.6000977, 0.7250977, -0.4404297, -17.1951218, -8.3536587, 0.4878049, 0.0045319
-0.6201172, 0.7294922, -0.4204102, -17.9878044, -7.9268293, -0.2439024, 0.0441444
-0.6279297, 0.730957, -0.418457, -17.8048782, -8.0487804, -0.2439024, 0.0399481
-0.6430664, 0.7270508, -0.4257812, -16.8292694, -8.2926826, 1.3414634, 0.0151064
-0.6425781, 0.7207031, -0.4394531, -15.9756098, -8.1707315, 1.8902439, -0.0090639
-0.6464844, 0.6992188, -0.4594727, -15.7926836, -7.8048782, 2.6829269, -0.0198062
-0.6503906, 0.7006836, -0.4589844, -16.1585369, -7.6829271, 2.3170731, -0.0191348
-0.6733398, 0.7021484, -0.4443359, -16.5243912, -8.5365858, 2.0731707, -0.0226596
-0.6791992, 0.7075195, -0.4404297, -16.0975609, -9.5121956, 2.3170731, -0.0344091
-0.668457, 0.7285156, -0.4301758, -14.6341467, -11.219512, 3.9634147, -0.0619364
-0.6577148, 0.7382812, -0.4350586, -14.0243902, -11.5243902, 4.5731707, -0.100206
-0.637207, 0.7338867, -0.4550781, -13.780488, -10.7926836, 5.1829271, -0.1015488
-0.637207, 0.7260742, -0.4638672, -14.0853662, -10.4878054, 5.3658538, -0.0787213
-0.6347656, 0.7202148, -0.4604492, -14.0853662, -10.6097565, 5.1219511, -0.0485084
-0.6396484, 0.7197266, -0.4331055, -13.7195129, -12.2560978, 4.8170733, -0.0099031
-0.6455078, 0.7211914, -0.4165039, -13.7195129, -12.9878054, 4.3292685, 0.0196384
-0.6469727, 0.7275391, -0.3789062, -12.6219511, -13.3536587, 4.390244, 0.0491798
-0.6391602, 0.730957, -0.3676758, -12.0731707, -12.9878054, 4.7560978, 0.0871138
-0.612793, 0.7285156, -0.3745117, -10.4268293, -11.7682934, 5.7317076, 0.1200122
-0.5961914, 0.7211914, -0.3833008, -9.7560978, -10.6097565, 6.7073174, 0.1270619
-0.5703125, 0.7167969, -0.409668, -9.5731707, -8.780488, 6.9512196, 0.1414969
-0.5620117, 0.7192383, -0.4208984, -10.1219511, -8.0487804, 7.0121951, 0.1690242
-0.5786133, 0.7202148, -0.4296875, -11.8902445, -6.890244, 5.4878049, 0.1589532
-0.6010742, 0.7255859, -0.4121094, -12.9878054, -6.280488, 3.8414636, 0.1408255
-0.6132812, 0.7333984, -0.3994141, -12.9878054, -5.9756098, 3.1097562, 0.1171588
-0.6274414, 0.7436523, -0.3740234, -12.560976, -6.0975609, 2.6219513, 0.0787213
-0.6254883, 0.7460938, -0.3652344, -11.7682934, -5.670732, 2.6829269, 0.0414588
-0.5898438, 0.7504883, -0.3789062, -10.7926836, -4.7560978, 4.1463413, 0.005539
-0.5683594, 0.7431641, -0.3896484, -10.6097565, -4.0853658, 5.0609756, -0.0256809
-0.5288086, 0.722168, -0.4179688, -11.7073174, -1.7073171, 4.6951222, -0.04448
-0.5273438, 0.7109375, -0.4282227, -12.9268293, -0.3658537, 3.9024391, -0.054551
-0.5605469, 0.6962891, -0.4306641, -14.7560978, 1.5243902, 2.1341465, -0.0632792
-0.5820312, 0.7001953, -0.4296875, -14.8780489, 1.8292683, 1.8292683, -0.0780499
-0.6401367, 0.7143555, -0.4287109, -13.780488, 1.4634147, 1.6463414, -0.0881209
-0.6811523, 0.7353516, -0.4472656, -11.8292685, -0.2439024, 2.804878, -0.0924849
-0.6914062, 0.7358398, -0.4550781, -11.341464, -0.7926829, 3.3536587, -0.0861067
-0.6914062, 0.7246094, -0.4638672, -10.8536587, -1.7682927, 4.1463413, -0.0703288
-0.6879883, 0.7104492, -0.4589844, -10.9146347, -2.2560976, 4.3292685, -0.0310521
-0.6767578, 0.6977539, -0.4394531, -10.7926836, -2.9268293, 4.7560978, 0.0146029
-0.6630859, 0.6948242, -0.4291992, -10.2439022, -3.9024391, 5.1829271, 0.0575723
-0.6323242, 0.7011719, -0.4316406, -8.2317076, -4.5731707, 6.6463418, 0.0936599
-0.6123047, 0.7055664, -0.4379883, -7.5609756, -4.390244, 7.2560978, 0.0916457
-0.5947266, 0.7060547, -0.4663086, -7.2560978, -3.4146342, 8.1097565, 0.0639506
-0.6010742, 0.6977539, -0.4750977, -7.6829271, -3.1707318, 7.7439027, 0.0293736
-0.6254883, 0.6967773, -0.4672852, -9.0243902, -2.9268293, 7.1951222, -0.0058747
-0.6660156, 0.699707, -0.4492188, -8.5365858, -4.1463413, 7.1341467, -0.0337377
-0.675293, 0.7045898, -0.4350586, -8.1097565, -5.3048782, 7.2560978, -0.0558938
-0.6855469, 0.7099609, -0.4165039, -6.3414636, -6.6463418, 8.1097565, -0.0867781
-0.6787109, 0.715332, -0.4165039, -5.670732, -7.1341467, 8.4146347, -0.1164874
-0.6499023, 0.7163086, -0.4199219, -4.3292685, -7.5, 9.6341467, -0.1341115
-0.6313477, 0.7133789, -0.4204102, -3.6585367, -7.5609756, 10.2439022, -0.1374685
-0.5830078, 0.7128906, -0.4331055, -2.804878, -7.8048782, 10.8536587, -0.1332723
-0.5639648, 0.7084961, -0.4311523, -2.9878049, -7.6829271, 10.6097565, -0.1196765
-0.5327148, 0.7026367, -0.4233398, -3.5975611, -6.9512196, 9.8780489, -0.0955062
-0.5341797, 0.7001953, -0.4169922, -3.8414636, -6.3414636, 9.0243902, -0.0760357
-0.5410156, 0.7060547, -0.4165039, -4.1463413, -5.3658538, 7.9878049, -0.0666361
-0.5585938, 0.730957, -0.4223633, -3.6585367, -4.5731707, 7.3780489, -0.0632792
-0.5634766, 0.7446289, -0.4282227, -3.0487804, -4.2682929, 7.2560978, -0.057908
-0.5727539, 0.7568359, -0.4370117, -3.4146342, -4.0243902, 6.8292685, -0.0419623
-0.5771484, 0.7563477, -0.4331055, -4.1463413, -3.5365853, 6.280488, -0.0713359
-0.5908203, 0.7319336, -0.4414062, -5.1829271, -2.804878, 5.1829271, -0.0995346
-0.5966797, 0.7241211, -0.4399414, -5.0609756, -2.4390244, 5.1219511, -0.1203479
-0.597168, 0.715332, -0.4458008, -4.2682929, -2.0731707, 5.1829271, -0.1243763
-0.5898438, 0.7148438, -0.4511719, -3.7195122, -2.3170731, 5.1829271, -0.109102
-0.5834961, 0.7177734, -0.4594727, -3.2317073, -2.5, 5.4878049, -0.0931563
-0.5722656, 0.7114258, -0.4609375, -3.0487804, -2.804878, 5.3658538, -0.0740215
-0.5688477, 0.7104492, -0.4614258, -3.1707318, -2.195122, 5, -0.0547189
-0.5722656, 0.722168, -0.4506836, -2.5609756, -1.8902439, 3.9634147, -0.0290379
-0.5805664, 0.7299805, -0.4472656, -2.0731707, -1.6463414, 3.5975611, -0.0149386
-0.6025391, 0.734375, -0.4462891, -1.8902439, -1.3414634, 3.4146342, -0.0142672
-0.6142578, 0.7363281, -0.4506836, -1.5243902, -0.7317073, 3.4146342, -0.0112459
-0.6381836, 0.7290039, -0.4672852, -0.6707317, 0.4878049, 4.0853658, -0.0072175
-0.6474609, 0.7290039, -0.4785156, -0.5487805, 0.7317073, 4.5121951, -0.0135958
-0.659668, 0.7202148, -0.4892578, 0.4268293, 0.4268293, 5.2439027, -0.0203098
-0.6674805, 0.7197266, -0.4926758, 0.7926829, 0, 6.0365853, -0.0162814
-0.6689453, 0.7124023, -0.4926758, 2.3170731, -1.402439, 7.3780489, -0.0082246
-0.6625977, 0.6987305, -0.4804688, 2.5609756, -2.0121951, 7.9878049, -0.0052033
-0.6552734, 0.6870117, -0.4770508, 3.0487804, -2.804878, 8.3536587, -0.0095674
-0.6489258, 0.6787109, -0.4658203, 4.5121951, -3.7195122, 9.1463413, -0.0109102
-0.6464844, 0.6772461, -0.4619141, 5.3658538, -4.1463413, 9.8780489, -0.0129244
-0.6391602, 0.6630859, -0.4560547, 7.3780489, -5.4878049, 11.1585369, -0.0162814
-0.6352539, 0.6606445, -0.4477539, 7.9268293, -6.1585369, 10.9756098, -0.0203098
-0.6162109, 0.6635742, -0.4316406, 9.2073174, -6.4634147, 11.8292685, -0.0216526
-0.6123047, 0.6704102, -0.421875, 9.3292685, -6.6463418, 12.2560978, -0.023331
-0.5859375, 0.690918, -0.4204102, 10.4878054, -6.6463418, 13.5975609, -0.0209812
-0.5649414, 0.6958008, -0.4257812, 10.9756098, -6.3414636, 14.4512196, -0.0203098
-0.519043, 0.7084961, -0.4526367, 11.4024391, -4.6341462, 15.6097565, -0.0149386
-0.4980469, 0.7211914, -0.4750977, 10.5487804, -3.5975611, 15.3658543, -0.0135958
-0.5024414, 0.7265625, -0.4819336, 8.5975609, -1.9512196, 13.780488, -0.0182956
-0.5234375, 0.730957, -0.4804688, 6.7073174, -0.7317073, 11.9512196, -0.0162814
-0.5244141, 0.7387695, -0.4707031, 6.0975609, -0.3048781, 11.5853662, 0.0186313
-0.5483398, 0.7412109, -0.4506836, 6.0365853, -0.4878049, 10.7926836, 0.04448
-0.5551758, 0.7416992, -0.4394531, 6.1585369, -0.5487805, 10.4268293, 0.0439765
-0.5717773, 0.71875, -0.4213867, 6.5853658, 0.3658537, 10, 0.0394446
-0.5800781, 0.6962891, -0.4189453, 6.9512196, 0.8536586, 9.6951218, 0.0310521
-0.5893555, 0.6606445, -0.4282227, 9.0243902, 2.3170731, 10.6097565, 0.0357519
-0.5966797, 0.6499023, -0.4370117, 10.2439022, 2.5609756, 11.0975609, 0.0741894
-0.6074219, 0.6645508, -0.4599609, 12.5, 2.0731707, 12.1341467, 0.1596246
-0.5947266, 0.7021484, -0.487793, 13.5365858, 1.3414634, 12.9878054, 0.1911803
-0.5771484, 0.7163086, -0.5092773, 14.1463413, 0.7317073, 14.5121956, 0.1925231
-0.5581055, 0.715332, -0.5498047, 13.780488, 0.7317073, 13.9024391, 0.1555962
-0.5581055, 0.7143555, -0.5571289, 13.3536587, 0.7317073, 12.8658543, 0.1193408
-0.5766602, 0.7080078, -0.5556641, 13.1097565, -0.4268293, 11.4634151, 0.093492
-0.5849609, 0.7089844, -0.5473633, 13.5975609, -2.0731707, 11.0365858, 0.0817426
-0.5961914, 0.699707, -0.5053711, 15.3048782, -5.4268293, 10.2439022, 0.0793927
-0.5986328, 0.6977539, -0.480957, 16.5243912, -6.4634147, 9.5121956, 0.072343
-0.5986328, 0.7026367, -0.4360352, 18.780489, -7.6219516, 9.4512196, 0.0575723
-0.5908203, 0.6992188, -0.4277344, 20.2439022, -7.6829271, 10.2439022, 0.036759
-0.5571289, 0.7045898, -0.4448242, 22.560976, -5.3048782, 12.4390249, 0.0112459
-0.5244141, 0.7177734, -0.4799805, 23.7195129, -2.1341465, 13.1707315, -0.0162814
-0.519043, 0.7177734, -0.4921875, 23.780489, -0.4268293, 12.8658543, -0.0448157
-0.5224609, 0.7392578, -0.4907227, 22.1341476, 1.097561, 11.5243902, -0.070161
-0.5341797, 0.7426758, -0.4814453, 22.0731716, 1.4634147, 10.8536587, -0.0955062
-0.5541992, 0.730957, -0.4609375, 21.3414631, 1.8902439, 9.0853662, -0.1200122
-0.5600586, 0.7163086, -0.4536133, 21.3414631, 2.5609756, 8.780488, -0.1431754
-0.5825195, 0.7026367, -0.4453125, 21.8902435, 4.7560978, 8.5365858, -0.1609674
-0.5869141, 0.703125, -0.4482422, 22.7439022, 5.7926831, 8.5975609, -0.1616388
-0.5908203, 0.7236328, -0.4580078, 23.780489, 6.890244, 9.4512196, -0.1629816
-0.5849609, 0.7348633, -0.4692383, 24.4512196, 7.7439027, 9.8780489, -0.1613031
-0.5742188, 0.7539062, -0.5014648, 24.9390259, 9.3902445, 9.5731707, -0.1626459
-0.5766602, 0.7680664, -0.53125, 24.1463413, 11.280488, 9.1463413, -0.1586175
-0.5791016, 0.7700195, -0.5351562, 23.1097565, 11.8292685, 8.9634151, -0.1559319
-0.5732422, 0.7744141, -0.5332031, 21.4634151, 12.6829271, 8.5975609, -0.1478752
-0.5761719, 0.7729492, -0.527832, 20.2439022, 13.0487804, 7.9878049, -0.1367971
-0.5810547, 0.7617188, -0.53125, 18.9634151, 13.6585369, 7.4390244, -0.0938277
-0.5844727, 0.7558594, -0.5341797, 18.4756107, 14.3902445, 7.3170733, -0.0515297
-0.5927734, 0.746582, -0.5424805, 17.9878044, 15.7317076, 7.3170733, -0.040116
-0.6049805, 0.7446289, -0.5576172, 17.560976, 16.5853653, 7.3170733, -0.0231632
-0.6147461, 0.7587891, -0.5634766, 16.7073174, 17.1341476, 7.4390244, 0.0332341
-0.6201172, 0.7612305, -0.5620117, 16.0365849, 17.3170738, 7.9268293, 0.0381018
-0.6186523, 0.7509766, -0.543457, 14.5121956, 17.3170738, 7.9268293, -0.0018463
-0.6181641, 0.7138672, -0.5351562, 14.4512196, 17.0731716, 7.9878049, -0.0428016
-0.6225586, 0.6948242, -0.5380859, 14.8780489, 17.6219521, 8.3536587, -0.0693217
-0.6342773, 0.6826172, -0.5546875, 16.5243912, 18.2317085, 8.4756098, -0.0894636
-0.6401367, 0.6953125, -0.5644531, 17.1951218, 17.8048782, 9.0853662, -0.0981918
-0.6577148, 0.7363281, -0.5844727, 18.5365849, 17.6219521, 10.4878054, -0.0956741
-0.6552734, 0.7602539, -0.5874023, 18.2317085, 17.2560978, 11.0365858, -0.0834211
-0.6416016, 0.7851562, -0.5864258, 16.9512196, 16.8902435, 11.4634151, -0.0609293
-0.6289062, 0.7807617, -0.5927734, 16.4634151, 16.7682934, 11.7073174, -0.0223239
-0.5957031, 0.7490234, -0.605957, 15.8536587, 16.5853653, 12.6219511, -0.0052033
-0.574707, 0.7338867, -0.6113281, 15.4878054, 16.7682934, 12.8658543, -0.002182
-0.5561523, 0.715332, -0.6113281, 14.3292685, 16.8902435, 11.7073174, -0.0095674
-0.5668945, 0.7080078, -0.59375, 13.5365858, 16.0365849, 10.2439022, -0.0471656
-0.5800781, 0.7094727, -0.578125, 13.7195129, 15.2439032, 9.9390249, -0.0639506
-0.5927734, 0.7172852, -0.5541992, 14.2073174, 14.5121956, 9.7560978, -0.0652934
-0.5942383, 0.7182617, -0.5444336, 14.8170738, 14.3902445, 9.8780489, -0.0572366
-0.5878906, 0.7104492, -0.5463867, 15.7317076, 15.5487804, 10.5487804, -0.0461585
-0.5810547, 0.7070312, -0.5551758, 16.4634151, 16.4024391, 10.8536587, -0.0347448
-0.565918, 0.7080078, -0.5942383, 17.8658543, 17.560976, 12.2560978, -0.0216526
-0.5605469, 0.7094727, -0.6137695, 18.1707325, 17.7439022, 12.8048782, -0.0115816
-0.5424805, 0.7246094, -0.6362305, 17.9268303, 17.9268303, 13.1707315, -0.0018463
-0.5419922, 0.7294922, -0.637207, 17.3780499, 17.9268303, 12.9878054, -0.0005035
-0.5527344, 0.7304688, -0.6254883, 15.9146347, 17.1951218, 12.0731707, -0.0041962
-0.5649414, 0.7060547, -0.5991211, 16.0365849, 16.6463413, 12.2560978, -0.0112459
-0.5654297, 0.6889648, -0.5893555, 16.5243912, 16.0365849, 11.8292685, -0.018967
-0.5717773, 0.6591797, -0.5859375, 18.5365849, 16.280489, 12.0731707, -0.0263523
-0.5810547, 0.6557617, -0.5898438, 19.8170738, 16.5853653, 12.0731707, -0.0307164
-0.5859375, 0.6831055, -0.6088867, 22.6219521, 16.8292694, 13.2926836, -0.0285344
-0.5834961, 0.7109375, -0.6235352, 23.8414631, 16.8292694, 14.1463413, -0.0310521
-0.5688477, 0.7587891, -0.6386719, 25, 17.560976, 15.1219511, -0.0297093
-0.5600586, 0.7685547, -0.6362305, 25.1219521, 17.9268303, 15.1829271, -0.0270237
-0.5478516, 0.7480469, -0.6132812, 25, 18.4756107, 14.6341467, -0.0240024
-0.5439453, 0.7143555, -0.597168, 25.1829281, 18.4756107, 14.5121956, -0.0176242
-0.5415039, 0.6640625, -0.5703125, 27.0121956, 18.5365849, 13.6585369, -0.0152743
-0.5454102, 0.6586914, -0.5556641, 30.5487804, 19.4512196, 13.7195129, -0.0135958
-0.5478516, 0.6665039, -0.5595703, 32.1951218, 20.060976, 14.6951227, -0.0176242
-0.5322266, 0.684082, -0.5839844, 34.5731697, 22.0731716, 16.7073174, -0.0176242
-0.5317383, 0.6889648, -0.5952148, 34.9390259, 23.4756107, 16.8292694, -0.0184634
-0.5361328, 0.7080078, -0.6069336, 35.6097565, 26.4634151, 16.5243912, -0.014435
-0.5390625, 0.7197266, -0.6108398, 36.1585388, 27.4390259, 16.7682934, -0.0115816
-0.5253906, 0.7456055, -0.6308594, 37.8658562, 28.1097565, 18.4146347, -0.0048676
-0.5151367, 0.7514648, -0.6386719, 38.2317085, 28.6585369, 18.2926826, 0.0011749
-0.5058594, 0.7382812, -0.6450195, 37.6219521, 29.9390259, 16.7682934, 0.014435
-0.5117188, 0.7197266, -0.6435547, 37.1951218, 30.7926846, 15.6097565, 0.0263523
-0.5361328, 0.6865234, -0.6313477, 36.7682953, 32.2560997, 14.3902445, 0.0330663
-0.5576172, 0.6845703, -0.6328125, 38.841465, 32.3780479, 15.1829271, 0.0381018
-0.5537109, 0.6889648, -0.6391602, 40.0609779, 32.6219521, 15.9146347, 0.0414588
-0.5463867, 0.6918945, -0.6699219, 40.6097565, 33.7804871, 17.2560978, 0.0481727
-0.5458984, 0.6948242, -0.6899414, 40.6707344, 34.3902435, 17.3780499, 0.0562295
-0.5644531, 0.6850586, -0.7363281, 40.8536606, 35.4878044, 18.2926826, 0.0515297
-0.5771484, 0.6845703, -0.7553711, 41.0975609, 35.2439041, 18.9024391, 0.0431373
-0.6044922, 0.6816406, -0.7631836, 41.7682953, 33.7804871, 20.6707325, 0.0327306
-0.6181641, 0.6762695, -0.7539062, 41.9512215, 32.5, 20.4878044, 0.0250095
-0.6430664, 0.6699219, -0.7329102, 42.6219521, 29.5731716, 20.6707325, 0.0129244
-0.644043, 0.6811523, -0.7246094, 42.9878044, 28.1707325, 21.5243912, -0.0015106
-0.6035156, 0.6962891, -0.7250977, 44.8780479, 26.9512196, 24.3292694, -0.0082246
-0.5595703, 0.7084961, -0.7426758, 45.9756126, 27.560976, 25.8536587, -0.0149386
-0.543457, 0.7104492, -0.7504883, 45.4268303, 28.6585369, 25.8536587, -0.0184634
-0.5229492, 0.7250977, -0.7490234, 44.5121956, 29.4512196, 25.5487804, -0.0226596
-0.5161133, 0.71875, -0.7470703, 44.2682953, 29.2682934, 25.6707325, -0.0283665
-0.5048828, 0.6982422, -0.7543945, 44.1463432, 29.0243912, 25.4878063, -0.0285344
-0.5014648, 0.6855469, -0.7602539, 43.841465, 29.0853672, 25, -0.0115816
-0.5141602, 0.6713867, -0.7387695, 43.3536606, 29.7560978, 23.8414631, 0.026688
-0.5273438, 0.6733398, -0.722168, 43.2317085, 29.6341476, 23.4756107, 0.0377661
-0.5292969, 0.6796875, -0.6918945, 43.6585388, 29.3292694, 24.3902435, 0.033402
-0.5180664, 0.6889648, -0.6914062, 44.5121956, 29.6951218, 25.1219521, 0.0240024
-0.4819336, 0.6899414, -0.6987305, 46.1585388, 32.1341476, 26.4634151, 0.0283665
-0.4584961, 0.675293, -0.7099609, 46.341465, 35.1219521, 26.8902454, 0.0864424
-0.4614258, 0.6650391, -0.7026367, 46.2804871, 36.6463432, 26.4024391, 0.1545892
-0.4799805, 0.6455078, -0.6767578, 46.341465, 38.1097565, 25.2439022, 0.1811093
-0.4921875, 0.6396484, -0.6699219, 47.2560997, 38.2926826, 25.1829281, 0.1381399
-0.4936523, 0.6582031, -0.6894531, 50.2439041, 39.0853653, 25.9756107, 0.0760357
-0.4853516, 0.6708984, -0.7128906, 51.2804909, 40.2439041, 27.2560978, 0.0078889
-0.4584961, 0.6967773, -0.7446289, 51.6463432, 42.8048782, 28.3536587, -0.0391089
-0.4482422, 0.7026367, -0.753418, 50.8536606, 43.9024391, 27.9268303, -0.0639506
-0.456543, 0.6791992, -0.7456055, 48.9024391, 45.9756126, 26.9512196, -0.0619364
-0.4667969, 0.6630859, -0.7387695, 48.9024391, 46.2804871, 26.7682934, -0.0391089
-0.480957, 0.6279297, -0.7441406, 50.3048782, 46.341465, 27.0121956, -0.0169528
-0.5004883, 0.6069336, -0.7670898, 52.7439041, 46.8902435, 27.3780499, -0.0179599
-0.5107422, 0.6049805, -0.7749023, 53.4756126, 46.7682953, 27.5, -0.0421302
-0.5366211, 0.6191406, -0.7797852, 54.5121956, 46.5853653, 27.8658543, -0.0594186
-0.5517578, 0.6259766, -0.7822266, 55, 45.7926826, 28.6585369, -0.0656291
-0.5356445, 0.6606445, -0.8032227, 55.9146347, 45.0609779, 31.9512196, -0.0649577
-0.5205078, 0.6723633, -0.8183594, 56.4634171, 45.5487823, 33.4756088, -0.0664683
-0.4951172, 0.6708984, -0.855957, 56.0365868, 47.1951218, 34.7560997, -0.0632792
-0.4902344, 0.6635742, -0.8574219, 54.8780518, 48.0487823, 34.5121956, -0.0666361
-0.5, 0.6582031, -0.8457031, 53.841465, 47.9878044, 33.841465, -0.0787213
-0.5058594, 0.659668, -0.8310547, 53.9024391, 47.1951218, 34.0853653, -0.0908064
-0.4975586, 0.6557617, -0.8276367, 54.9390259, 45.7317085, 34.3292694, -0.0944991
-0.4907227, 0.6567383, -0.8168945, 55.9756126, 45.1829262, 34.2682953, -0.0955062
-0.4882812, 0.6518555, -0.8105469, 56.5853653, 45.2439041, 34.3292694, -0.090135
-0.4794922, 0.6367188, -0.8105469, 57.3170738, 45.4878044, 35.5487823, -0.1122911
-0.4682617, 0.6264648, -0.8168945, 57.3780518, 45.9756126, 36.2804871, -0.1277333
-0.4545898, 0.6313477, -0.8305664, 57.9878044, 47.6219521, 36.9512215, -0.1169909
-0.4550781, 0.6425781, -0.8359375, 58.4146347, 48.1097565, 37.1951218, -0.1037308
-0.4506836, 0.6679688, -0.8359375, 58.2926826, 48.2926826, 38.1097565, -0.0938277
-0.4414062, 0.6743164, -0.8261719, 57.68293, 48.4756126, 37.9878044, -0.0837568
-0.4238281, 0.6699219, -0.793457, 56.7682953, 48.9024391, 37.0731697, -0.0740215
-0.4038086, 0.6469727, -0.7773438, 56.8292694, 49.4512215, 36.8292694, -0.0688182
-0.3959961, 0.6411133, -0.7685547, 57.3780518, 51.8292694, 36.341465, -0.0659648
-0.3740234, 0.6308594, -0.7871094, 58.9634171, 55.2439041, 37.0121956, -0.0753643
-0.3579102, 0.6342773, -0.8134766, 59.3292694, 56.7682953, 37.3780479, -0.090135
-0.3491211, 0.6416016, -0.8544922, 59.4512215, 60.0609779, 37.0121956, -0.1381399
-0.3637695, 0.6494141, -0.8618164, 59.2073174, 61.5853691, 36.0365868, -0.1663386
-0.4135742, 0.6635742, -0.8540039, 58.5365868, 62.8658562, 34.7560997, -0.1633173
-0.4321289, 0.6542969, -0.8505859, 58.3536606, 62.3170738, 34.6951218, -0.1334401
-0.4555664, 0.6411133, -0.8432617, 60.0609779, 61.7682953, 34.7560997, -0.087953
-0.453125, 0.637207, -0.84375, 60.9146347, 61.7682953, 35.1219521, -0.030045
-0.4345703, 0.6411133, -0.8588867, 62.3780518, 62.5609779, 35.8536606, 0.0140993
-0.4042969, 0.6508789, -0.8798828, 62.7439041, 63.1097565, 36.5243912, 0.0506905
-0.3896484, 0.6518555, -0.9013672, 62.5609779, 65.18293, 37.7439041, 0.0454871
-0.3681641, 0.6484375, -0.9560547, 61.6463432, 67.2560959, 37.8048782, 0.0115816
-0.3754883, 0.6401367, -0.96875, 61.341465, 67.8048782, 37.4390259, -0.0149386
-0.4208984, 0.6435547, -0.9594727, 60.3048782, 67.1341476, 36.2804871, -0.0317235
-0.4394531, 0.6435547, -0.940918, 60.4268303, 66.0975647, 35.4268303, -0.0417945
-0.4633789, 0.6479492, -0.8955078, 61.5853691, 63.0487823, 34.7560997, -0.047837
-0.4589844, 0.6489258, -0.8813477, 62.7439041, 62.1951218, 35.1829262, -0.0384375
-0.4145508, 0.6430664, -0.9067383, 64.6341476, 62.4390259, 37.0121956, -0.0276951
-0.3886719, 0.6337891, -0.9370117, 64.8780518, 63.6585388, 37.9878044, -0.023331
-0.3549805, 0.6201172, -0.9858398, 63.1707344, 66.8292694, 38.9024391, -0.0199741
-0.3666992, 0.6420898, -0.9848633, 62.2560997, 67.9268341, 38.7804871, -0.0219883
-0.3779297, 0.6547852, -0.9770508, 60.0609779, 67.1951218, 38.7195129, -0.0219883
-0.3735352, 0.6757812, -0.9560547, 59.0853691, 65.7317123, 39.0243912, -0.0209812
-0.3676758, 0.6801758, -0.9492188, 58.5365868, 65.7317123, 38.7804871, -0.0270237
-0.3544922, 0.6674805, -0.9350586, 57.4390259, 68.2926865, 37.8048782, -0.0605936
-0.3461914, 0.6591797, -0.9316406, 57.3780518, 69.4512177, 37.1341476, -0.0783856
-0.3339844, 0.6313477, -0.9394531, 56.6463432, 70.6097565, 37.3170738, -0.0800641
-0.3286133, 0.6162109, -0.9399414, 56.6463432, 71.2195129, 37.4390259, -0.0703288
-0.3227539, 0.5922852, -0.9414062, 56.8902435, 71.8292694, 37.1341476, -0.0555581
-0.3266602, 0.5874023, -0.9384766, 57.0731735, 72.0731735, 36.7073174, -0.0285344
-0.3510742, 0.5859375, -0.9492188, 57.68293, 71.8902435, 36.341465, -0.0078889
-0.3608398, 0.6074219, -0.9414062, 58.4756126, 71.6463394, 37.4390259, 0.0347448
-0.3554688, 0.6254883, -0.9365234, 58.7195129, 71.7073212, 37.9268303, 0.0896315
-0.3359375, 0.6518555, -0.9179688, 58.7195129, 72.9878082, 38.9024391, 0.0877852
-0.3085938, 0.6523438, -0.9135742, 58.841465, 74.0243912, 39.3292694, 0.0626078
-0.2626953, 0.6186523, -0.9233398, 58.2926826, 76.4634171, 39.0243912, 0.0574044
-0.2495117, 0.597168, -0.9375, 58.3536606, 77.8658524, 38.5365868, 0.0562295
-0.2558594, 0.5678711, -0.9599609, 58.3536606, 79.8780518, 37.6219521, 0.0528725
-0.2680664, 0.5615234, -0.9648438, 58.9024391, 80.1219559, 37.3170738, 0.0475013
-0.3007812, 0.5708008, -0.9663086, 60.6097565, 78.7804871, 36.341465, 0.0414588
-0.3208008, 0.5805664, -0.9633789, 61.4024391, 78.3536606, 35.6707344, 0.033402
-0.3476562, 0.6064453, -0.984375, 62.3780518, 77.2560959, 35.5487823, 0.0253452
-0.3432617, 0.625, -1.0073242, 63.4756126, 77.7439041, 37.1951218, 0.0159457
-0.331543, 0.6240234, -1.0092773, 63.0487823, 77.6219559, 37.7439041, 0.0058747
-0.2963867, 0.597168, -0.9760742, 61.2804909, 76.7073212, 37.3780479, -0.0068818
-0.2841797, 0.5727539, -0.9604492, 60.3658562, 76.2804871, 36.8902435, -0.0119173
-0.2597656, 0.5522461, -0.9580078, 61.2195129, 76.7073212, 36.7682953, -0.0184634
-0.2524414, 0.5546875, -0.9702148, 62.2560997, 77.3170776, 37.0731697, -0.0198062
-0.2373047, 0.5888672, -1.0151367, 63.1707344, 79.0853653, 37.6829262, -0.0169528
-0.2402344, 0.5947266, -1.0307617, 62.3170738, 80.1219559, 37.5, -0.0203098
-0.2666016, 0.5908203, -1.0224609, 59.6341476, 80.4268341, 35.4878044, -0.0203098
-0.28125, 0.5742188, -1.0048828, 58.9024391, 79.8780518, 34.6341476, -0.0240024
-0.2963867, 0.5537109, -0.9672852, 59.7560997, 77.8658524, 34.2682953, -0.021149
-0.2709961, 0.5498047, -0.9624023, 60.9146347, 76.7682953, 34.8170738, -0.0229953
-0.2470703, 0.543457, -0.9750977, 61.2804909, 77.1341476, 35.3048782, -0.0203098
-0.2080078, 0.5224609, -1.015625, 61.2804909, 79.5731735, 35.8536606, -0.0199741
-0.203125, 0.5263672, -1.0229492, 60.9756126, 80.6097565, 35.6707344, -0.0092317
-0.222168, 0.5595703, -1.0209961, 60.9146347, 80.4268341, 34.7560997, 0.0372625
-0.2348633, 0.574707, -1.0083008, 60.9756126, 79.6341476, 34.1463432, 0.0669718
-0.2314453, 0.5913086, -0.9824219, 61.341465, 78.1097565, 33.841465, 0.0911421
-0.2226562, 0.5791016, -0.984375, 61.5243912, 77.9268341, 33.5975609, 0.1173266
-0.1987305, 0.5375977, -1.0039062, 62.2560997, 80.2439041, 33.0487823, 0.1361257
-0.2011719, 0.5112305, -1.0175781, 62.5, 81.7073212, 32.3780479, 0.1529107
-0.2290039, 0.4970703, -1.0131836, 62.8048782, 82.2560959, 31.7682934, 0.0931563
-0.2402344, 0.5146484, -0.984375, 63.7804909, 80.3048782, 32.0121956, 0.0438087
-0.2304688, 0.515625, -0.984375, 64.5121994, 79.4512177, 32.3780479, 0.0119173
-0.2055664, 0.5004883, -1.0039062, 66.0365906, 79.7560959, 32.8658562, -0.0075532
-0.1977539, 0.4882812, -1.0180664, 66.5243912, 80.7317123, 33.1097565, -0.0164492
-0.2114258, 0.4760742, -1.0429688, 67.2560959, 81.8902435, 32.7439041, -0.024506
-0.2192383, 0.4921875, -1.0390625, 67.2560959, 82.1341476, 32.8658562, -0.0303807
-0.2319336, 0.5444336, -1.0009766, 67.7439041, 80.5487823, 33.3536606, -0.0381018
-0.2148438, 0.5625, -0.9902344, 67.9878082, 80.18293, 33.9634171, -0.0505226
-0.1611328, 0.5366211, -0.9941406, 67.0731735, 81.9512177, 34.0243912, -0.0656291
-0.1416016, 0.5112305, -1.0058594, 66.4024429, 83.7804871, 33.6585388, -0.0770428
-0.1289062, 0.4731445, -1.0332031, 65.3658524, 87.7439041, 33.4756088, -0.0896315
-0.137207, 0.4638672, -1.0385742, 65, 88.5365906, 33.4756088, -0.1055772
-0.1508789, 0.46875, -1.0322266, 64.8170776, 87.9268341, 32.8048782, -0.1270619
-0.1748047, 0.4892578, -1.0244141, 65.4268341, 86.2804871, 32.2560997, -0.1378042
-0.1831055, 0.5009766, -1.043457, 65.9146347, 85.7926865, 32.5, -0.142504
-0.1655273, 0.5039062, -1.0761719, 65.1219559, 86.646347, 33.7195129, -0.1488823
-0.1567383, 0.4946289, -1.0791016, 64.2682953, 87.1951218, 33.7195129, -0.1498894
-0.159668, 0.4726562, -1.043457, 61.8292694, 86.9512253, 32.3170738, -0.145861
-0.1606445, 0.4775391, -1.0239258, 61.7073174, 86.4634171, 32.4390259, -0.142504
-0.1186523, 0.4863281, -1.0083008, 62.6219521, 85.8536606, 34.2682953, -0.1398184
-0.0849609, 0.4858398, -1.0131836, 63.0487823, 87.0731735, 34.6341476, -0.1331044
-0.0551758, 0.4619141, -1.0209961, 61.2804909, 90.8536606, 33.4146347, -0.1263905
-0.0722656, 0.425293, -1.0317383, 59.3902435, 94.2073212, 32.1341476, -0.109102
-0.0893555, 0.4116211, -1.0410156, 60, 94.6951218, 31.9512196, -0.0861067
-0.1308594, 0.409668, -1.0639648, 61.2804909, 94.0853653, 32.1951218, -0.0773785
-0.1450195, 0.4189453, -1.0688477, 62.2560997, 93.0487823, 32.1341476, -0.0767071
-0.1757812, 0.440918, -1.0585938, 63.5365868, 90.3048782, 31.5853672, -0.0807355
-0.1787109, 0.4453125, -1.0415039, 64.4512177, 89.2682953, 31.7073174, -0.0810712
-0.1645508, 0.4311523, -1.0009766, 66.3414612, 87.68293, 32.5609779, -0.0720073
-0.1416016, 0.4150391, -0.9912109, 66.8292694, 87.4390259, 32.9878044, -0.0629435
-0.0810547, 0.3999023, -1.0053711, 68.1097565, 88.7195129, 34.6951218, -0.0663005
-0.0522461, 0.3925781, -1.0249023, 68.4146347, 90.18293, 35.8536606, -0.0639506
-0.0073242, 0.3842773, -1.0571289, 67.3170776, 93.0487823, 36.5243912, -0.0582437
-0.0361328, 0.3740234, -1.0585938, 66.4024429, 94.3292694, 34.9390259, -0.0538796
-0.0639648, 0.3789062, -1.0493164, 66.7073212, 94.0853653, 34.0853653, -0.0461585
-0.1040039, 0.4145508, -1.0292969, 67.9878082, 92.3170776, 34.0853653, -0.0384375
-0.1054688, 0.4282227, -1.0268555, 68.7195129, 91.5243912, 34.4512215, -0.0344091
-0.0771484, 0.425293, -1.0566406, 68.9024429, 92.0731735, 35, -0.0303807
-0.059082, 0.4160156, -1.0820312, 68.2317123, 93.2317123, 35.4268303, -0.0246738
-0.0429688, 0.3969727, -1.1103516, 67.0731735, 95.3658524, 36.4634171, -0.0182956
-0.043457, 0.3920898, -1.1083984, 66.5853653, 95.7317123, 36.341465, -0.0142672
-0.0581055, 0.3857422, -1.0708008, 65.4878082, 93.9024429, 34.7560997, 0.040116
-0.0708008, 0.3886719, -1.0644531, 65.6097565, 92.9878082, 34.3292694, 0.0710002
-0.0693359, 0.387207, -1.090332, 66.7073212, 92.5609741, 34.8780479, 0.0676432
-0.0595703, 0.3852539, -1.1235352, 66.6463394, 93.5365906, 35.1219521, 0.0473335
-0.0576172, 0.3808594, -1.1201172, 65.4878082, 93.5975647, 34.8170738, 0.0381018
-0.0639648, 0.3764648, -1.0751953, 63.7195129, 91.5243912, 33.9024391, 0.0374304
-0.0527344, 0.3774414, -1.0600586, 64.0853653, 90, 34.2073174, 0.0219883
0.0029297, 0.3686523, -1.0639648, 65.1219559, 89.9390259, 36.341465, 0.0075532
0.0268555, 0.3510742, -1.0761719, 65.6707306, 91.5243912, 36.4634171, 0.0078889
0.0263672, 0.3037109, -1.0771484, 65.3048782, 93.6585388, 34.3292694, 0.0360876
-0.0043945, 0.2895508, -1.0654297, 65.0609741, 93.5365906, 33.1707306, 0.0716716
-0.0537109, 0.2998047, -1.0214844, 67.0121994, 90.4878082, 32.6829262, 0.1106126
-0.050293, 0.324707, -1.0141602, 68.5365906, 88.4756088, 33.4146347, 0.1015488
0.0083008, 0.3803711, -1.0292969, 70.9756088, 87.1341476, 36.0975609, 0.0908064
0.0981445, 0.3969727, -1.0473633, 69.0853653, 90.4878082, 36.5853653, 0.1193408
0.1176758, 0.3901367, -1.0600586, 67.1341476, 92.9268341, 35.9756088, 0.1757382
0.1279297, 0.3422852, -1.0849609, 63.7195129, 96.9512253, 34.9390259, 0.2368353
0.1108398, 0.3056641, -1.0825195, 62.8048782, 97.9268341, 33.9634171, 0.2697337
0.0537109, 0.2578125, -1.0405273, 63.3536606, 96.5243912, 31.0365868, 0.2620127
0.0102539, 0.2402344, -1.0126953, 64.2682953, 94.2682953, 29.5121956, 0.2361639
-0.0429688, 0.2294922, -0.9838867, 68.2926865, 89.5731735, 29.3902454, 0.1942016
-0.0375977, 0.2446289, -0.9960938, 70.5487823, 88.6585388, 30.6097565, 0.1495537
0.012207, 0.2973633, -1.0703125, 73.3536606, 89.0243912, 33.7195129, 0.0941634
0.043457, 0.3310547, -1.1088867, 72.5609741, 90.18293, 35, 0.0381018
0.0825195, 0.3828125, -1.1303711, 68.6585388, 92.9268341, 35.9756088, -0.0075532
0.0883789, 0.3598633, -1.0952148, 64.2682953, 93.1097565, 33.5975609, -0.0471656
0.0834961, 0.3222656, -1.078125, 63.1097565, 92.8048782, 32.3780479, -0.0827497
0.0639648, 0.2421875, -1.0478516, 63.4146347, 91.1585388, 30.7926846, -0.1163195
0.0566406, 0.2167969, -1.0366211, 64.5121994, 90.6097565, 30.8536587, -0.1448539
0.0585938, 0.1972656, -1.0195312, 66.6463394, 89.3292694, 30.4878063, -0.1646601
0.0541992, 0.2026367, -1.0185547, 67.5609741, 88.7804871, 30.8536587, -0.1804379
0.0595703, 0.2382812, -1.0253906, 69.5731735, 88.6585388, 32.5609779, -0.197055
0.0703125, 0.2553711, -1.0317383, 70.3658524, 88.9024429, 33.4146347, -0.2140078
0.097168, 0.2607422, -1.0498047, 69.6341476, 89.8170776, 34.0243912, -0.2203861
0.1044922, 0.2519531, -1.0810547, 69.1463394, 90.18293, 34.3292694, -0.2260929
0.1103516, 0.2495117, -1.1025391, 67.8048782, 90.8536606, 35.8536606, -0.2260929
0.1020508, 0.2597656, -1.1435547, 66.5243912, 90.9756088, 35.4878044, -0.1639887
0.0854492, 0.2670898, -1.1430664, 65.4878082, 90.4268341, 34.9390259, -0.0867781
0.0458984, 0.284668, -1.1025391, 64.1463394, 86.0365906, 33.4146347, -0.0585794
0.0429688, 0.2861328, -1.0683594, 64.0243912, 83.5975647, 32.7439041, -0.0575723
0.0737305, 0.2402344, -1.0263672, 64.8170776, 78.4146347, 32.7439041, -0.1619745
0.0952148, 0.2001953, -1.0249023, 65.3048782, 77.2560959, 33.1097565, -0.2855116
0.1362305, 0.1357422, -1.0454102, 66.5853653, 76.8292694, 33.6585388, -0.3768215
0.1489258, 0.1289062, -1.0429688, 67.5609741, 77.0731735, 34.0243912, -0.4070344
0.1362305, 0.1469727, -0.9951172, 69.0243912, 75.9146347, 32.8658562, -0.3909209
0.105957, 0.2070312, -0.9174805, 70.1219559, 74.4512177, 32.0121956, -0.3261311
0.1176758, 0.2338867, -0.8955078, 72.8658524, 71.4024429, 32.3170738, -0.2418708
0.2290039, 0.2373047, -0.9477539, 73.7804871, 72.2560959, 34.8780479, -0.1472038
0.2910156, 0.215332, -0.9833984, 72.8658524, 75.18293, 35.4268303, -0.054551
0.3339844, 0.1557617, -1.0527344, 68.1707306, 81.5853653, 33.5365868, 0.0135958
0.3125, 0.1347656, -1.0673828, 66.0975647, 83.5975647, 32.1951218, 0.0535439
0.2114258, 0.1508789, -1.0415039, 65.2439041, 82.8048782, 29.5731716, 0.0787213
0.1601562, 0.1689453, -1.0146484, 66.1585388, 80.6707306, 28.0487804, 0.0850996
0.0917969, 0.1918945, -0.9750977, 68.7804871, 74.9390259, 26.4024391, 0.0837568
0.097168, 0.2001953, -0.9780273, 69.8780518, 72.9268341, 26.1585369, 0.0683146
0.1577148, 0.2124023, -1.0166016, 70.3658524, 71.8292694, 28.6585369, 0.0475013
0.2529297, 0.2182617, -1.0620117, 69.5731735, 73.2926865, 30.1829281, 0.0381018
0.2836914, 0.2138672, -1.0717773, 66.0365906, 77.9268341, 31.1585369, 0.0428016
0.2827148, 0.1704102, -1.0581055, 61.2195129, 80.6097565, 28.1707325, 0.0454871
0.2480469, 0.144043, -1.0478516, 60.3048782, 80.5487823, 26.4024391, 0.0475013
0.1831055, 0.125, -1.0322266, 61.5243912, 78.2926865, 25.1219521, 0.0491798
0.1582031, 0.1367188, -1.0258789, 63.2926826, 76.8292694, 25.2439022, 0.0582437
0.1591797, 0.1713867, -1.0039062, 64.6951218, 74.0853653, 25.7926826, 0.0669718
0.1767578, 0.175293, -0.9858398, 64.6951218, 73.1097565, 26.0975609, 0.068986
0.2211914, 0.1420898, -0.9741211, 64.0853653, 74.3902435, 26.4634151, 0.0664683
0.2407227, 0.1210938, -0.9833984, 63.9024391, 75.8536606, 27.3170738, 0.0589151
0.2763672, 0.0947266, -1.003418, 63.841465, 79.3292694, 29.0243912, 0.0515297
0.2763672, 0.0810547, -1.0043945, 63.841465, 80.3658524, 29.1463413, 0.0481727
0.2509766, 0.0825195, -0.9980469, 63.841465, 81.0365906, 28.1707325, 0.0468299
0.2177734, 0.0991211, -1.003418, 65.3658524, 79.6951218, 28.9024391, 0.0441444
0.2163086, 0.1020508, -1.0195312, 66.3414612, 79.2682953, 29.5731716, 0.0438087
0.2099609, 0.0952148, -1.0449219, 66.7682953, 78.9634171, 29.9390259, 0.047837
0.1977539, 0.0791016, -1.0429688, 66.4024429, 78.5975647, 30, 0.0542153
0.1831055, 0.0493164, -1.0004883, 67.0731735, 75.4878082, 29.7560978, 0.0522011
0.1777344, 0.0405273, -0.9667969, 68.4756088, 73.2926865, 29.7560978, 0.0486763
0.2036133, 0.0458984, -0.9038086, 72.0731735, 69.8780518, 30.3048782, 0.0475013
0.230957, 0.0537109, -0.8901367, 73.5365906, 68.9024429, 31.0975609, 0.040116
0.3144531, 0.0488281, -0.9291992, 75.0609741, 70.6707306, 33.4756088, 0.0303807
0.3803711, 0.0639648, -1.0253906, 74.7560959, 72.9268341, 34.7560997, 0.0132601
0.3974609, 0.0678711, -1.0688477, 71.6463394, 78.6585388, 36.2195129, -0.0008392
0.3564453, 0.0917969, -1.0766602, 67.0731735, 81.0975647, 34.1463432, -0.0095674
0.3129883, 0.1025391, -1.0322266, 65.18293, 79.7560959, 31.7073174, -0.0213169
0.2402344, 0.0981445, -0.9111328, 64.5121994, 72.9268341, 27.8658543, -0.0229953
0.2421875, 0.0874023, -0.8671875, 65.6707306, 69.6341476, 27.5, -0.0169528
0.3349609, 0.0385742, -0.8681641, 68.9024429, 68.4756088, 29.2073174, -0.0095674
0.3925781, 0.0087891, -0.9106445, 69.2682953, 71.1585388, 30.060976, 0.0031891
0.449707, -0.0092773, -0.9882812, 67.5, 79.4512177, 31.8292694, 0.0421302
0.4541016, -0.0043945, -1.0063477, 66.4634171, 82.7439041, 32.0121956, 0.0884565
0.3842773, 0.0249023, -0.9887695, 65.4268341, 86.3414688, 30, 0.0941634
0.277832, 0.059082, -0.9658203, 66.9512177, 84.146347, 27.6829281, 0.0441444
0.2495117, 0.0717773, -0.972168, 68.1707306, 81.7073212, 27.560976, -0.0310521
0.2529297, 0.0610352, -0.996582, 69.8780518, 77.4390259, 28.4146347, -0.0787213
0.2695312, 0.0410156, -1.0048828, 70, 76.5243912, 28.5975609, -0.1055772
0.2905273, 0.0107422, -1.0014648, 68.2926865, 75.8536606, 28.841465, -0.102388
0.2919922, -0.0009766, -0.9956055, 68.2317123, 75.5487823, 29.2682934, -0.0807355
0.3056641, -0.0239258, -0.9838867, 68.7195129, 73.9634171, 30.6097565, -0.0538796
0.3061523, -0.0385742, -0.9892578, 69.5731735, 72.4390259, 30.7926846, -0.0344091
0.2880859, -0.0361328, -1.0087891, 71.8902435, 69.6341476, 30.5487804, -0.0206455
0.2788086, -0.0185547, -1.0087891, 72.9878082, 67.6219559, 30.4268303, -0.012253
0.2817383, 0.0356445, -0.9868164, 73.7804871, 63.7804909, 31.0975609, -0.0068818
0.3139648, 0.0585938, -1.0039062, 74.0853653, 62.0121956, 31.8292694, -0.0124208
0.3378906, 0.0625, -1.0317383, 73.8414688, 62.6219521, 32.7439041, -0.0162814
0.3789062, 0.0541992, -1.0605469, 71.3414688, 64.3292694, 33.2317085, -0.0095674
0.3862305, 0.0458984, -1.0375977, 69.3292694, 64.1463394, 32.0121956, -0.0139315
0.3569336, 0.015625, -0.9345703, 66.7073212, 60.4878044, 28.4756107, -0.0149386
0.3500977, -0.003418, -0.8867188, 66.8292694, 58.0487823, 27.2560978, -0.0186313
0.3881836, -0.0297852, -0.8657227, 68.9634171, 55.3658562, 27.3170738, -0.0327306
0.4228516, -0.0327148, -0.8842773, 69.7560959, 55.4268303, 28.2926826, -0.0580758
0.5024414, -0.0288086, -0.9223633, 68.5365906, 59.3292694, 30.060976, -0.0708324
0.5161133, -0.0336914, -0.9199219, 66.6463394, 61.7682953, 29.8170738, -0.064622
0.4853516, -0.0703125, -0.8588867, 64.1463394, 64.4512177, 26.6463413, -0.0569009
0.4213867, -0.0908203, -0.8364258, 66.3414612, 63.841465, 24.2682934, -0.0716716
0.3979492, -0.0820312, -0.8515625, 68.2926865, 63.1097565, 24.5731716, -0.0908064
0.4091797, -0.0317383, -0.8823242, 71.5853653, 63.2317085, 25.8536587, -0.0861067
0.4248047, -0.0175781, -0.8808594, 71.1585388, 63.4146347, 26.1585369, -0.0730144
0.4384766, -0.0366211, -0.8774414, 68.7195129, 63.7195129, 25.3658543, -0.04448
0.4448242, -0.0556641, -0.8847656, 68.2317123, 64.3902435, 25.4268303, 0.0105745
0.465332, -0.0834961, -0.90625, 68.1097565, 66.8292694, 26.7682934, 0.072343
0.4609375, -0.0834961, -0.9106445, 68.1707306, 68.1097565, 26.7073174, 0.1183337
0.4331055, -0.0898438, -0.8764648, 67.3780518, 68.5365906, 25.3048782, 0.1361257
0.4111328, -0.0996094, -0.8525391, 67.7439041, 67.2560959, 24.8780499, 0.1354543
0.3891602, -0.1357422, -0.828125, 70.9146347, 64.8170776, 24.7560978, 0.1183337
0.3945312, -0.1416016, -0.8491211, 75.1219559, 63.9024391, 26.0365868, 0.0978561
0.3969727, -0.1308594, -0.8637695, 76.4634171, 64.4512177, 26.5853672, 0.0730144
0.409668, -0.0908203, -0.8818359, 77.1341476, 65.2439041, 28.5365868, 0.0454871
0.4091797, -0.0776367, -0.8920898, 77.0731735, 65.5487823, 29.2682934, 0.0260166
0.4257812, -0.0893555, -0.9150391, 75.18293, 65.3048782, 29.6341476, 0.0092317
0.4238281, -0.0976562, -0.909668, 74.5121994, 64.8170776, 29.4512196, -0.0184634
0.4194336, -0.1245117, -0.875, 73.6585388, 62.0731735, 28.0487804, -0.0412909
0.4160156, -0.1357422, -0.8598633, 73.7804871, 60.6097565, 27.6829281, -0.0508583
0.4213867, -0.1474609, -0.8486328, 74.2073212, 57.2560997, 27.5, -0.0585794
0.4257812, -0.1503906, -0.8549805, 74.6951218, 56.341465, 27.7439022, -0.0666361
0.4472656, -0.1298828, -0.8852539, 74.8780518, 55.9146347, 28.1097565, -0.0710002
0.4477539, -0.0795898, -0.9160156, 72.2560959, 55.6097565, 28.6585369, -0.0693217
0.4482422, -0.0639648, -0.9296875, 70.4878082, 55.2439041, 28.841465, -0.068986
0.4492188, -0.0498047, -0.9541016, 65.9756088, 53.9024391, 28.9634151, -0.0659648
0.4560547, -0.0625, -0.9443359, 63.2926826, 52.8658562, 28.1097565, -0.0619364
0.4331055, -0.105957, -0.8676758, 58.3536606, 49.5121956, 25.3048782, -0.0636149
0.4204102, -0.1220703, -0.8007812, 57.1951218, 47.1341476, 24.1463413, -0.0659648
0.4296875, -0.1503906, -0.6640625, 56.6463432, 42.3170738, 22.5, -0.0532082
0.4624023, -0.1757812, -0.6171875, 56.8902435, 40.7926826, 22.8048782, 0.026688
0.5756836, -0.2114258, -0.5864258, 57.1951218, 41.5243912, 23.9024391, 0.085771
0.6333008, -0.2177734, -0.6010742, 57.1341476, 44.1463432, 24.7560978, 0.0699931
0.7109375, -0.25, -0.6860352, 56.2195129, 52.3780518, 25.7317085, 0.0293736
0.6987305, -0.2529297, -0.7822266, 54.2073174, 60.7926826, 25.1219521, -0.0223239
0.6474609, -0.2402344, -0.7890625, 53.2317085, 63.0487823, 23.9024391, -0.072343
0.496582, -0.2041016, -0.7231445, 52.7439041, 61.0365868, 19.4512196, -0.0981918
0.4267578, -0.1933594, -0.675293, 53.5365868, 56.8292694, 17.5, -0.0887922
0.3637695, -0.1938477, -0.621582, 57.6219521, 48.7195129, 17.0121956, -0.0605936
0.3803711, -0.206543, -0.6308594, 60.0609779, 46.8292694, 17.9878044, 0.0293736
0.4589844, -0.2460938, -0.6889648, 63.9024391, 47.9268303, 21.0975609, 0.1334401
0.4970703, -0.2661133, -0.7158203, 64.3902435, 49.6951218, 22.3780499, 0.1535821
0.5131836, -0.2895508, -0.7250977, 63.841465, 52.3780518, 24.3292694, 0.1260548
0.5087891, -0.2841797, -0.7216797, 63.841465, 52.7439041, 25.060976, 0.1233692
0.487793, -0.2612305, -0.7216797, 65.7317123, 51.8292694, 25.4878063, 0.156939
0.4589844, -0.2485352, -0.7211914, 68.2317123, 49.7560997, 25.3658543, 0.1676814
0.4414062, -0.2421875, -0.7070312, 68.9634171, 48.2317085, 24.5121956, 0.1512322
0.4262695, -0.2363281, -0.6586914, 70.9146347, 44.0243912, 23.780489, 0.1253834
0.4399414, -0.2407227, -0.640625, 71.7073212, 41.8902435, 24.1463413, 0.0837568
0.4921875, -0.2626953, -0.6513672, 73.5365906, 40.1829262, 25.9146347, 0.0276951
0.527832, -0.2734375, -0.6660156, 74.0853653, 41.2804871, 27.2560978, -0.0340734
0.5649414, -0.2651367, -0.7265625, 73.4756088, 44.8780479, 28.9024391, -0.0914778
0.5722656, -0.2407227, -0.7602539, 72.4390259, 46.2804871, 29.3292694, -0.1347829
0.5581055, -0.1904297, -0.7670898, 69.3902435, 47.4390259, 28.5975609, -0.16701
0.5449219, -0.175293, -0.737793, 67.3780518, 46.4634171, 27.5, -0.1938659
0.5126953, -0.2216797, -0.6723633, 65.0609741, 41.8902435, 23.7195129, -0.2143435
0.4960938, -0.2885742, -0.7089844, 67.3170776, 38.5975609, 22.8658543, -0.2287785
0.5029297, -0.2915039, -0.7602539, 68.4146347, 38.9634171, 23.780489, -0.2334783
0.5058594, -0.2246094, -0.8486328, 67.5609741, 40.8536606, 25.7926826, -0.2291142
0.4951172, -0.1767578, -0.8525391, 65.0609741, 40.7926826, 25.6707325, -0.2291142
0.4682617, -0.1401367, -0.7866211, 58.4756126, 36.7073174, 23.7195129, -0.230457
0.4609375, -0.1669922, -0.7519531, 56.2804909, 33.5975609, 22.9878063, -0.2317998
0.4799805, -0.25, -0.7119141, 55.1219521, 28.5365868, 21.6463413, -0.2244144
0.4941406, -0.2817383, -0.7089844, 55.4268303, 27.560976, 21.5853672, -0.2099794
0.5161133, -0.2866211, -0.6938477, 55.0609779, 26.6463413, 21.5853672, -0.1962158
0.5249023, -0.2695312, -0.6816406, 54.2682953, 26.280489, 21.5243912, -0.1789273
0.5458984, -0.2124023, -0.6704102, 52.3780518, 25.1219521, 22.8658543, -0.1616388
0.590332, -0.2226562, -0.7026367, 49.5121956, 26.8902454, 23.6585369, -0.142504
0.5927734, -0.253418, -0.7163086, 47.9878044, 27.9268303, 23.2317085, -0.1203479
0.5498047, -0.3198242, -0.6923828, 46.4024391, 27.560976, 20.6097565, -0.1122911
0.5151367, -0.3325195, -0.6552734, 46.8902435, 25.4268303, 19.0853672, -0.0908064
0.4707031, -0.3061523, -0.5668945, 49.1463432, 18.9024391, 18.1097565, -0.0595865
0.4833984, -0.28125, -0.5395508, 50.2439041, 16.5243912, 18.5365849, -0.0350805
0.5566406, -0.2631836, -0.5297852, 51.6463432, 16.6463413, 19.6951218, -0.0082246
0.5996094, -0.2792969, -0.5483398, 51.0365868, 18.5975609, 20.3658543, 0.0193027
0.6611328, -0.3271484, -0.59375, 48.9634171, 23.9024391, 20.8536587, 0.0428016
0.6655273, -0.3461914, -0.6083984, 48.2317085, 26.2195129, 20.9756107, 0.0639506
0.6401367, -0.3374023, -0.5961914, 47.0121956, 27.5, 20.060976, 0.0652934
0.5844727, -0.2978516, -0.5947266, 46.7073174, 26.9512196, 18.2317085, 0.0552224
0.5615234, -0.2905273, -0.6201172, 47.1951218, 26.3414631, 17.9878044, 0.0374304
0.534668, -0.296875, -0.7094727, 47.8658562, 26.2195129, 17.7439022, 0.0193027
0.5102539, -0.3027344, -0.7402344, 47.0731735, 26.3414631, 17.1951218, 0.0005035
0.4609375, -0.2807617, -0.7353516, 44.2073174, 23.1707325, 16.4634151, -0.012253
0.4443359, -0.2641602, -0.7080078, 42.5, 20.3658543, 16.0975609, -0.0219883
0.4550781, -0.2211914, -0.6557617, 40.6097565, 15, 16.7073174, -0.024506
0.4882812, -0.2231445, -0.6552734, 39.7560997, 13.3536587, 17.5, -0.0231632
0.5639648, -0.265625, -0.6835938, 36.5853653, 14.2073174, 18.1097565, -0.0276951
0.5854492, -0.3422852, -0.6728516, 34.5731697, 15.3658543, 17.6829281, -0.0287022
0.5717773, -0.359375, -0.6582031, 31.4634151, 15.6707325, 16.0975609, -0.0310521
0.5483398, -0.331543, -0.6420898, 31.4634151, 13.5365858, 17.0121956, -0.0354162
0.5478516, -0.3129883, -0.6591797, 32.2560997, 12.8658543, 17.0731716, -0.0377661
0.5292969, -0.3076172, -0.684082, 32.9878044, 12.3170738, 16.4024391, -0.0365911
0.5073242, -0.3232422, -0.6884766, 33.0487823, 10.9146347, 15.7317076, -0.0337377
0.4594727, -0.3227539, -0.6723633, 34.0243912, 5.1829271, 14.2682934, -0.0357519
0.4594727, -0.3144531, -0.6533203, 34.0243912, 2.0121951, 13.9024391, -0.0414588
0.4785156, -0.3139648, -0.5917969, 33.3536606, -2.3170731, 13.9024391, -0.0417945
0.4980469, -0.3237305, -0.5605469, 33.0487823, -3.7804878, 13.780488, -0.0354162
0.5546875, -0.362793, -0.5424805, 33.2317085, -4.5731707, 14.4512196, 0.0112459
0.609375, -0.3935547, -0.5639648, 33.4756088, -3.9024391, 15.2439032, 0.0498512
0.6225586, -0.3979492, -0.578125, 33.4756088, -2.4390244, 16.5243912, 0.0397803
0.6176758, -0.3891602, -0.6049805, 33.9024391, -0.7317073, 16.8902435, 0.01561
0.5976562, -0.378418, -0.6206055, 33.5975609, -0.7926829, 16.6463413, -0.0203098
0.5541992, -0.3491211, -0.6123047, 33.2317085, -1.2195122, 15.7926836, -0.04448
0.53125, -0.3383789, -0.5908203, 32.3780479, -2.3780489, 14.9390249, -0.047837
0.5131836, -0.3427734, -0.5297852, 31.0975609, -5.3658538, 13.1097565, -0.0433051
0.5253906, -0.3535156, -0.5161133, 30.6707325, -7.0121951, 13.2926836, -0.0028534
0.5820312, -0.3720703, -0.5351562, 30.060976, -7.6829271, 14.6341467, 0.0639506
0.6196289, -0.3681641, -0.5527344, 29.2682934, -5.9756098, 15.4268293, 0.1032273
0.6645508, -0.359375, -0.5869141, 26.0365868, -1.3414634, 16.4024391, 0.0871138
0.6567383, -0.3427734, -0.6049805, 23.9024391, 0.4878049, 16.2195129, 0.0548867
0.6420898, -0.3378906, -0.6171875, 20.7926826, 2.8658538, 15, 0.0186313
0.5996094, -0.3276367, -0.6230469, 18.6585369, 2.6219513, 13.6585369, -0.0082246
0.578125, -0.3364258, -0.6279297, 17.439024, 1.8292683, 12.7439032, -0.0236667
0.5375977, -0.362793, -0.6235352, 15, -0.7926829, 10.6707315, -0.0186313
0.5219727, -0.3779297, -0.621582, 14.4512196, -2.5, 9.9390249, -0.0008392
0.5073242, -0.3803711, -0.5981445, 13.7195129, -5.5487804, 10.2439022, 0.0162814
0.5146484, -0.3710938, -0.578125, 12.9268293, -7.1951222, 10.1829271, 0.0292058
0.534668, -0.3535156, -0.5668945, 12.3780489, -7.8048782, 10.7317076, 0.0384375
0.5483398, -0.3554688, -0.5888672, 11.7682934, -7.5, 11.280488, 0.0595865
0.5683594, -0.3735352, -0.6557617, 10.4268293, -5.3658538, 12.5, 0.0807355
0.5556641, -0.3935547, -0.6464844, 9.2682924, -4.6341462, 13.1707315, 0.079057
0.5380859, -0.4038086, -0.5961914, 6.8292685, -6.890244, 12.0121956, 0.0656291
0.5048828, -0.4282227, -0.4941406, 7.4390244, -12.6829271, 9.6951218, 0.0454871
0.5009766, -0.4360352, -0.4731445, 9.5731707, -14.9390249, 9.3902445, 0.0213169
0.5439453, -0.4365234, -0.5107422, 13.2317076, -15.4268293, 10.8536587, -0.0028534
0.5756836, -0.425293, -0.5390625, 13.841464, -14.0853662, 11.5243902, -0.0236667
0.6118164, -0.4140625, -0.5512695, 11.8902445, -11.5243902, 12.3170738, -0.0303807
0.612793, -0.4160156, -0.5375977, 10.9756098, -11.280488, 11.9512196, -0.0323949
0.6020508, -0.4199219, -0.5053711, 10.4878054, -12.8048782, 10.9146347, -0.0381018
0.5996094, -0.4179688, -0.5, 11.0975609, -13.6585369, 10.6707315, -0.04448
0.6069336, -0.4160156, -0.5136719, 11.5243902, -13.4146347, 10, -0.0464942
0.6044922, -0.4155273, -0.5273438, 10.6707315, -12.6829271, 9.2073174, -0.0421302
0.6020508, -0.409668, -0.5356445, 10.1829271, -12.5, 9.2073174, -0.0397803
0.6025391, -0.394043, -0.546875, 8.6585369, -12.0731707, 9.0853662, -0.0307164
0.6035156, -0.3891602, -0.543457, 8.0487804, -11.7682934, 8.4146347, -0.0297093
0.5976562, -0.3867188, -0.5263672, 6.4634147, -12.7439032, 6.7073174, -0.0552224
0.5947266, -0.3925781, -0.5317383, 5.7926831, -12.6219511, 5.670732, -0.0679789
0.5966797, -0.3847656, -0.5786133, 3.9634147, -12.2560978, 5.1219511, -0.0404517
0.6000977, -0.3793945, -0.6044922, 2.2560976, -11.1585369, 5.3658538, -0.0075532
0.5917969, -0.3754883, -0.5952148, -2.5609756, -9.7560978, 4.7560978, 0.0041962
0.5825195, -0.3798828, -0.565918, -4.8170733, -10.3048782, 4.3292685, -0.0216526
0.5864258, -0.3979492, -0.5175781, -8.2926826, -12.8048782, 3.5975611, -0.0340734
0.609375, -0.4208984, -0.5258789, -9.5121956, -13.4146347, 3.7195122, -0.0706645
0.6235352, -0.4223633, -0.5351562, -10.4878054, -12.6219511, 3.4146342, -0.1126268
0.612793, -0.425293, -0.5361328, -12.9268293, -10.8536587, 3.9634147, -0.1062486
0.5981445, -0.4326172, -0.5375977, -13.5365858, -10.9756098, 3.4146342, -0.0757
0.5668945, -0.4589844, -0.5263672, -13.9634151, -12.3780489, 3.2317073, -0.0364233
0.5517578, -0.4667969, -0.5214844, -14.0853662, -12.9878054, 3.0487804, 0.008896
0.5205078, -0.4799805, -0.4907227, -13.1707315, -15.6707325, 2.195122, 0.0589151
0.5146484, -0.472168, -0.4799805, -12.5, -16.7073174, 2.195122, 0.1072557
0.5366211, -0.4355469, -0.4702148, -11.4634151, -18.0487804, 3.2317073, 0.1649958
0.5634766, -0.4238281, -0.4731445, -11.7073174, -17.9268303, 3.5975611, 0.1831235
0.6044922, -0.4165039, -0.512207, -12.5, -16.7682934, 4.6341462, 0.1404898
0.6083984, -0.4384766, -0.5571289, -13.841464, -15.4878054, 4.6341462, 0.079057
0.6040039, -0.4472656, -0.5556641, -15, -15.1219511, 4.0853658, 0.0186313
0.5620117, -0.4501953, -0.4970703, -16.280489, -17.9268303, 2.4390244, -0.0273594
0.546875, -0.4438477, -0.4614258, -16.2195129, -19.939024, 1.7073171, -0.0412909
0.5610352, -0.4521484, -0.4389648, -14.7560978, -22.560976, 1.402439, -0.0310521
0.5786133, -0.453125, -0.453125, -14.3902445, -22.0731716, 1.1585366, -0.0018463
0.5966797, -0.4458008, -0.4799805, -14.4512196, -20.060976, 1.2804878, 0.0424659
0.6015625, -0.4370117, -0.4829102, -15.4878054, -19.0853672, 1.5853659, 0.0582437
0.6025391, -0.4316406, -0.4765625, -17.3780499, -18.2317085, 0.8536586, -0.0216526
0.6030273, -0.4238281, -0.4799805, -18.1097565, -18.4146347, 0.4878049, -0.0649577
0.6079102, -0.3881836, -0.5327148, -19.8780499, -17.8658543, 0.3658537, -0.096849
0.6083984, -0.3505859, -0.574707, -24.2073174, -14.8780489, -0.5487805, -0.1018845
0.6025391, -0.3461914, -0.5620117, -26.9512196, -13.780488, -1.5853659, -0.0928206
0.5786133, -0.3652344, -0.4941406, -32.3780479, -14.9390249, -4.2682929, -0.064622
0.5756836, -0.375, -0.4541016, -33.841465, -16.5853653, -5.609756, -0.0327306
0.6098633, -0.3989258, -0.4350586, -34.6341476, -16.7682934, -6.4024391, -0.0001678
0.6259766, -0.4135742, -0.4643555, -35.1219521, -15.3658543, -6.4634147, 0.033402
0.6171875, -0.4301758, -0.5517578, -36.4634171, -11.280488, -5.7926831, 0.0542153
0.5981445, -0.4316406, -0.581543, -37.8048782, -10, -5.2439027, 0.0535439
0.5229492, -0.4472656, -0.6210938, -39.5731735, -12.0121956, -5.8536587, 0.0381018
0.4707031, -0.4443359, -0.6308594, -39.6951218, -15.060976, -6.7073174, 0.0119173
0.3999023, -0.4101562, -0.6020508, -38.4756088, -22.0731716, -7.0121951, -0.01561
0.3974609, -0.3798828, -0.515625, -39.1463432, -28.4756107, -7.1341467, -0.0525368
0.4208984, -0.3745117, -0.4873047, -39.7560997, -30.5487804, -7.2560978, -0.093492
0.5131836, -0.3803711, -0.5019531, -39.4512215, -30.9756107, -5.1219511, -0.1169909
0.5678711, -0.3833008, -0.5390625, -39.8170738, -28.9634151, -3.9024391, -0.1317617
0.6196289, -0.402832, -0.5883789, -42.6219521, -23.5365868, -3.5975611, -0.1331044
0.6025391, -0.4106445, -0.5844727, -44.3292694, -22.6829281, -4.6341462, -0.0911421
0.5527344, -0.4111328, -0.5400391, -46.0365868, -25.4268303, -6.2195125, -0.0159457
0.5292969, -0.4067383, -0.5175781, -45.9756126, -27.6829281, -7.3780489, 0.0226596
0.5102539, -0.3930664, -0.5195312, -44.4512215, -31.280489, -9.3292685, 0.0441444
0.5112305, -0.3852539, -0.5351562, -43.841465, -32.1951218, -9.4512196, 0.0223239
0.5170898, -0.3837891, -0.5732422, -43.9024391, -32.7439041, -9.1463413, -0.0595865
0.5126953, -0.3828125, -0.5839844, -46.0975609, -33.3536606, -8.719512, -0.152575
0.5146484, -0.3823242, -0.5830078, -47.5, -33.841465, -8.9634151, -0.2076295
0.5205078, -0.3793945, -0.5761719, -49.6341476, -34.3902435, -8.780488, -0.2177005
0.527832, -0.3706055, -0.5668945, -50.6707344, -34.5121956, -8.9634151, -0.19823
0.5537109, -0.362793, -0.5249023, -53.3536606, -34.2073174, -9.5731707, -0.1646601
0.5664062, -0.359375, -0.4970703, -54.5731735, -34.2073174, -10.3048782, -0.1379721
0.597168, -0.3608398, -0.484375, -56.1585388, -33.7804871, -11.1585369, -0.114641
0.6113281, -0.359375, -0.5024414, -56.8902435, -32.6219521, -11.4634151, -0.0988632
0.6166992, -0.3618164, -0.5566406, -58.4756126, -28.9024391, -11.4024391, -0.0861067
0.6103516, -0.3583984, -0.5742188, -60.1219521, -26.7073174, -11.4634151, -0.0659648
0.5576172, -0.3686523, -0.590332, -63.5365868, -24.8170738, -12.3170738, -0.0317235
0.5014648, -0.3666992, -0.621582, -65.0609741, -26.5243912, -12.3170738, 0.0065461
0.4750977, -0.3671875, -0.6416016, -65, -28.2317085, -12.4390249, 0.0317235
0.4365234, -0.3530273, -0.6762695, -64.9390259, -31.341465, -12.8658543, 0.0394446
0.4199219, -0.3422852, -0.6762695, -65.2439041, -33.2317085, -12.9268293, 0.0433051
0.4091797, -0.3261719, -0.6777344, -66.5243912, -37.1341476, -12.8658543, 0.030045
0.409668, -0.3261719, -0.6806641, -67.5, -39.1463432, -12.6829271, 0.0072175
0.4243164, -0.3427734, -0.6835938, -67.9878082, -41.9512215, -12.6219511, -0.0077211
0.434082, -0.3496094, -0.6777344, -67.8048782, -43.5975609, -12.6219511, -0.018967
0.4492188, -0.371582, -0.6435547, -68.0487823, -46.1585388, -12.3170738, -0.0219883
0.4501953, -0.3818359, -0.6206055, -68.0487823, -47.5609779, -12.8048782, -0.0203098
0.4707031, -0.394043, -0.5810547, -67.8658524, -50.6097565, -13.2317076, -0.0191348
0.5009766, -0.371582, -0.5800781, -66.7682953, -51.7073174, -12.1951218, -0.0135958
0.5170898, -0.3569336, -0.6020508, -66.2195129, -51.5853653, -11.7073174, -0.005539
0.5463867, -0.3378906, -0.668457, -66.2804871, -50.3048782, -10.9146347, -0.0001678
0.5454102, -0.3193359, -0.706543, -67.3170776, -49.7560997, -10.9146347, -0.0043641
0.5219727, -0.2880859, -0.7387695, -71.2195129, -48.3536606, -11.4024391, -0.0102388
0.5029297, -0.2714844, -0.7158203, -73.5365906, -48.6585388, -12.1341467, -0.0166171
0.4672852, -0.2768555, -0.628418, -78.1707306, -50.7926826, -14.5121956, -0.0263523
0.4624023, -0.2929688, -0.5830078, -79.3902435, -53.2926826, -15.8536587, -0.0305486
0.4912109, -0.3486328, -0.543457, -78.8414688, -56.4634171, -16.7073174, -0.0357519
0.5117188, -0.3662109, -0.5473633, -77.9268341, -56.7682953, -16.280489, -0.0377661
0.565918, -0.3798828, -0.5742188, -77.1951218, -54.5121956, -15.4268293, -0.0310521
0.590332, -0.3330078, -0.6083984, -79.0853653, -50.3658562, -14.1463413, -0.0297093
0.5976562, -0.309082, -0.6259766, -80.3048782, -48.2926826, -13.780488, -0.0229953
0.5922852, -0.2856445, -0.6455078, -83.4146347, -45.6097565, -15.1219511, -0.0216526
0.5722656, -0.2880859, -0.6523438, -84.7560959, -44.6951218, -16.2195129, -0.033402
0.5117188, -0.3261719, -0.6699219, -85.7926865, -45.4268303, -18.2317085, -0.0364233
0.4790039, -0.3442383, -0.6787109, -85.4268341, -47.0731735, -19.3292694, -0.0005035
0.4311523, -0.3676758, -0.6899414, -83.5975647, -51.341465, -20.4878044, 0.0407874
0.4116211, -0.3701172, -0.7001953, -82.5609741, -54.0243912, -20.7317085, 0.0748608
0.3759766, -0.355957, -0.7255859, -80.0609741, -58.9634171, -19.939024, 0.0958419
0.3632812, -0.3334961, -0.7338867, -79.0243912, -60.6707344, -18.9024391, 0.0721752
0.3691406, -0.2954102, -0.7207031, -78.7195129, -63.3536606, -16.6463413, 0.036759
0.3911133, -0.2866211, -0.6835938, -80, -64.8780518, -15.6707325, -0.0003357
0.4052734, -0.2963867, -0.6772461, -80.6707306, -65.5487823, -15.1219511, -0.033402
0.4472656, -0.3217773, -0.7114258, -80.18293, -66.2804871, -13.5975609, -0.0552224
0.4682617, -0.3222656, -0.7431641, -79.5731735, -66.2804871, -12.6829271, -0.064622
0.4931641, -0.3022461, -0.7749023, -80.18293, -64.8170776, -11.5243902, -0.0652934
0.4975586, -0.2744141, -0.769043, -81.2804871, -64.2682953, -11.4634151, -0.0605936
0.4882812, -0.2319336, -0.7255859, -85.5487823, -64.5731735, -12.8658543, -0.064622
0.4902344, -0.2231445, -0.7070312, -87.5, -65.0609741, -13.0487804, -0.0699931
0.4985352, -0.230957, -0.7099609, -88.9024429, -65.8536606, -13.3536587, -0.0748608
0.5205078, -0.2583008, -0.765625, -89.2682953, -65.7926865, -13.2317076, -0.0770428
0.5205078, -0.2661133, -0.8022461, -91.0365906, -64.3902435, -13.4146347, -0.0733501
0.4960938, -0.2524414, -0.8574219, -94.5731735, -62.3780518, -13.841464, -0.0629435
0.4824219, -0.2329102, -0.859375, -96.8292694, -62.1341476, -14.1463413, -0.0558938
0.4506836, -0.190918, -0.8300781, -101.3414688, -63.9024391, -14.9390249, -0.0522011
0.4477539, -0.1850586, -0.800293, -103.3536606, -65.4268341, -15.8536587, -0.047837
0.453125, -0.2026367, -0.7504883, -105.1219559, -69.4512177, -17.8658543, -0.0426337
0.4584961, -0.234375, -0.7255859, -105.3658524, -70.8536606, -18.9634151, -0.0404517
0.46875, -0.2939453, -0.6982422, -104.5121994, -72.1341476, -20.7317085, -0.0357519
0.4741211, -0.3125, -0.6943359, -103.2926865, -72.0731735, -20.7317085, -0.0223239
0.4902344, -0.3178711, -0.7255859, -100.4878082, -71.5853653, -19.6341476, -0.0075532
0.5063477, -0.2797852, -0.7441406, -99.6951218, -70.7926865, -19.2073174, 0.0072175
0.5, -0.2592773, -0.7480469, -99.5121994, -68.7195129, -19.6341476, 0.0381018
0.4628906, -0.2226562, -0.7558594, -99.7561035, -68.4756088, -19.6951218, 0.0803998
0.449707, -0.2148438, -0.7592773, -99.9390259, -68.9634171, -18.5975609, 0.0750286
0.4506836, -0.2387695, -0.7231445, -100, -70.8536606, -17.0731716, 0.0448157
0.4589844, -0.2788086, -0.6865234, -100.4268341, -71.6463394, -17.439024, -0.0008392
0.4477539, -0.3515625, -0.6386719, -98.3536606, -73.7195129, -18.8414631, -0.0350805
0.4467773, -0.3730469, -0.6459961, -95.6097565, -74.8780518, -18.2317085, -0.0532082
0.4667969, -0.3686523, -0.7011719, -87.7439041, -76.5243912, -14.2682934, -0.0518654
0.4790039, -0.340332, -0.7280273, -84.4512253, -76.7073212, -13.3536587, -0.0421302
0.4755859, -0.246582, -0.753418, -82.0731735, -76.4634171, -13.5365858, -0.0270237
0.4443359, -0.1606445, -0.7832031, -82.0121994, -76.5243912, -13.7195129, -0.0162814
0.4321289, -0.137207, -0.8222656, -82.1951218, -76.5243912, -12.560976, 0.0005035
0.4272461, -0.1108398, -0.9316406, -83.0487823, -75.18293, -10.7926836, 0.0112459
0.4267578, -0.1074219, -0.9741211, -84.8780518, -74.6341476, -10.4878054, 0.0105745
0.40625, -0.0917969, -0.9848633, -90.9146347, -74.6341476, -11.0975609, 0.011078
0.3974609, -0.0908203, -0.9633789, -94.3902435, -76.1585388, -11.8902445, 0.0092317
0.3896484, -0.1030273, -0.909668, -99.3292694, -80.18293, -13.5975609, 0.0112459
0.394043, -0.112793, -0.9033203, -100, -82.2560959, -14.0853662, 0.0172885
0.4311523, -0.1137695, -0.9277344, -100.3658524, -84.7560959, -13.9634151, 0.0276951
0.4516602, -0.1049805, -0.9384766, -100.8536606, -84.5731735, -14.2073174, 0.0360876
0.4912109, -0.0878906, -0.9130859, -104.3292694, -83.4146347, -16.1585369, 0.0461585
0.4921875, -0.0976562, -0.8334961, -107.0731735, -83.0487823, -17.6219521, 0.0421302
0.496582, -0.1279297, -0.7978516, -110.8536606, -83.0487823, -20.6097565, 0.0372625
0.5014648, -0.2075195, -0.7607422, -110.6707306, -82.68293, -22.1951218, 0.036759
0.5024414, -0.2338867, -0.762207, -109.4512253, -82.1951218, -22.8048782, 0.0522011
0.4921875, -0.2539062, -0.7651367, -106.0365906, -81.0365906, -23.2926826, 0.0807355
0.4790039, -0.2436523, -0.7729492, -104.3902435, -80.9146347, -23.6585369, 0.0904707
0.4477539, -0.1933594, -0.8051758, -100.6707306, -81.646347, -22.6829281, 0.0854353
0.4272461, -0.1645508, -0.8442383, -98.2317123, -82.4390259, -21.9512196, 0.0810712
0.390625, -0.1333008, -0.9404297, -93.8414688, -84.6341476, -20.1219521, 0.0540475
0.3618164, -0.1337891, -0.9746094, -92.4390259, -85.7926865, -20.1219521, -0.0048676
0.2993164, -0.1425781, -0.9599609, -90.7317123, -90.3658524, -22.7439022, -0.0246738
0.2270508, -0.1577148, -0.8779297, -89.8780518, -93.7804871, -24.2682934, -0.0182956
0.215332, -0.1552734, -0.8408203, -84.5731735, -101.9512253, -24.8780499, -0.0099031
0.2421875, -0.1479492, -0.8549805, -76.4024429, -107.9268341, -20.4878044, 0.0011749
0.2783203, -0.1313477, -0.8984375, -72.9878082, -108.7804871, -17.0121956, 0.0293736
0.3583984, -0.0805664, -0.9760742, -70.7317123, -106.9512253, -12.7439032, 0.068986
0.3818359, -0.0517578, -0.9926758, -71.7073212, -105.18293, -11.341464, 0.0696574
0.4038086, -0.0332031, -0.9907227, -76.8292694, -103.0487823, -10.1219511, 0.0115816
0.3994141, -0.0439453, -0.984375, -79.146347, -103.1097565, -10.1219511, -0.0676432
0.3867188, -0.0688477, -0.9707031, -82.4390259, -103.5365906, -10.6097565, -0.100206
0.3793945, -0.0620117, -0.9648438, -83.1707306, -103.5365906, -10.9756098, -0.0908064
0.3798828, -0.0004883, -0.9404297, -85.1219559, -101.9512253, -10.7317076, -0.0693217
0.4125977, 0.0541992, -0.9296875, -88.7195129, -99.5121994, -10, -0.0370947
0.4375, 0.0678711, -0.9375, -91.3414688, -98.1097565, -9.6951218, -0.0115816
0.4838867, 0.0639648, -0.9921875, -97.3780518, -94.9390259, -9.4512196, 0.0031891
0.5014648, 0.0449219, -1.0288086, -99.8170776, -93.1097565, -9.6341467, 0.0109102
0.5019531, -0.0092773, -1.0634766, -104.4512253, -90.6097565, -12.560976, -0.0001678
0.4663086, -0.0341797, -1.0463867, -106.5853653, -91.0365906, -15.7317076, -0.0250095
0.3476562, -0.0644531, -0.9697266, -107.8658524, -95, -23.2317085, -0.0498512
0.2866211, -0.0693359, -0.9399414, -106.2804871, -98.5975647, -25.4268303, -0.0850996
0.2202148, -0.0585938, -0.9018555, -99.6951218, -104.7561035, -25.3658543, -0.110277
0.2192383, -0.0405273, -0.894043, -96.5243912, -106.4634171, -23.6585369, -0.1613031
0.2661133, -0.0356445, -0.8891602, -92.68293, -106.646347, -22.0121956, -0.2103151
0.3129883, -0.0620117, -0.8847656, -91.5243912, -103.5975647, -21.3414631, -0.2210575
0.3383789, -0.0668945, -0.878418, -90.6097565, -101.8292694, -20.2439022, -0.2083009
0.3833008, -0.0517578, -0.8525391, -88.0487823, -98.5975647, -17.5, -0.1874876
0.4042969, -0.0488281, -0.8330078, -87.1341476, -97.2561035, -16.9512196, -0.1519036
0.4130859, -0.046875, -0.7851562, -85.1219559, -93.4756088, -18.2317085, -0.1169909
0.4057617, -0.0620117, -0.7719727, -84.2682953, -91.0365906, -19.1463413, -0.0814069
0.3818359, -0.1108398, -0.784668, -80.2439041, -87.0731735, -19.6951218, -0.0417945
0.3691406, -0.1411133, -0.8051758, -77.8048782, -85.8536606, -19.3292694, -0.0062104
0.328125, -0.1552734, -0.8671875, -72.68293, -85.3658524, -18.6585369, 0.0203098
0.2915039, -0.1391602, -0.9077148, -70.3658524, -85.9756088, -18.4146347, 0.026688
0.203125, -0.0424805, -1.0073242, -65.7926865, -87.8048782, -16.8292694, 0.0146029
0.1337891, 0.1069336, -1.1425781, -64.5731735, -89.2682953, -13.2926836, -0.0008392
0.1201172, 0.1816406, -1.2026367, -65.9146347, -89.7560959, -11.219512, -0.0182956
0.1186523, 0.28125, -1.28125, -72.7439041, -90.3658524, -9.5121956, -0.0323949
0.1225586, 0.2978516, -1.2875977, -77.8658524, -91.2195129, -10.1219511, -0.0448157
0.1474609, 0.2592773, -1.253418, -87.5609741, -95, -12.3170738, -0.0552224
0.159668, 0.2119141, -1.2192383, -91.2804871, -97.5609741, -14.5731707, -0.0619364
0.1845703, 0.1000977, -1.1459961, -95.3048782, -103.5365906, -18.4146347, -0.0652934
0.1953125, 0.059082, -1.112793, -95.5487823, -106.2195129, -20.060976, -0.064622
0.2172852, 0.0385742, -1.0366211, -94.0243912, -110.3048782, -21.5243912, -0.0669718
0.2363281, 0.0527344, -0.9946289, -93.1097565, -111.3414688, -21.7682934, -0.0708324
0.2724609, 0.0761719, -0.9418945, -92.2561035, -111.7073212, -23.1097565, -0.0743572
0.3051758, 0.0615234, -0.9555664, -93.0487823, -109.9390259, -24.0243912, -0.073518
0.3134766, 0.0380859, -0.9746094, -93.4756088, -108.1097565, -24.0243912, -0.0673075
0.3022461, -0.0019531, -1.0219727, -94.8170776, -105.18293, -23.7195129, -0.0399481
0.2758789, -0.0083008, -1.0327148, -95.6097565, -104.2073212, -23.5365868, 0.0847639
0.2001953, 0.0258789, -1.0029297, -96.2804871, -105, -24.0243912, 0.190341
0.1616211, 0.0566406, -0.9780273, -95.6097565, -106.2195129, -23.9024391, 0.2368353
0.1318359, 0.0913086, -0.9335938, -93.3536606, -109.2073212, -22.8658543, 0.266041
0.1416016, 0.0859375, -0.9135742, -91.4024429, -110.4878082, -22.6219521, 0.2623484
0.171875, 0.0063477, -0.878418, -87.68293, -110.9146347, -22.9878063, 0.2271
0.175293, -0.0522461, -0.8647461, -85.7926865, -110.36586, -24.0243912, 0.1300832
0.1621094, -0.1142578, -0.8432617, -79.5731735, -109.0853653, -24.4512196, 0.0344091
0.1401367, -0.0576172, -0.8388672, -70.18293, -109.2682953, -21.4634151, -0.0283665
0.1386719, 0.0009766, -0.8603516, -65.5487823, -109.5731735, -18.5975609, -0.0565652
0.1699219, 0.1049805, -0.9609375, -59.2073174, -110, -14.3902445, -0.0639506
0.1796875, 0.1352539, -1.03125, -58.6585388, -108.9024429, -13.841464, -0.0592508
0.1557617, 0.1787109, -1.1503906, -61.8292694, -105.0609818, -15.060976, -0.051194
0.1225586, 0.203125, -1.1767578, -64.9390259, -103.4146347, -15.6097565, -0.0384375
0.0625, 0.253418, -1.1733398, -71.1585388, -104.2682953, -15.7317076, -0.0216526
0.0517578, 0.2631836, -1.1591797, -73.0487823, -107.0121994, -16.4634151, -0.0223239
0.0698242, 0.2617188, -1.1376953, -76.2804871, -113.3536606, -18.8414631, -0.012253
0.0830078, 0.253418, -1.1279297, -77.5609741, -116.4024429, -19.6951218, -0.0149386
0.121582, 0.2543945, -1.1181641, -79.0853653, -117.8048782, -20.7317085, -0.0350805
0.1640625, 0.2646484, -1.105957, -82.5609741, -115.0609818, -21.7073174, -0.0686503
0.1699219, 0.2568359, -1.1176758, -85.8536606, -113.3536606, -22.1951218, -0.1065843
0.1669922, 0.2080078, -1.2041016, -92.0731735, -110.18293, -22.6829281, -0.1696956
0.1455078, 0.1958008, -1.2617188, -95.4268341, -109.0243912, -22.560976, -0.2422065
0.0732422, 0.2026367, -1.3217773, -100.9756088, -109.7561035, -21.0365868, -0.2791333
0.0249023, 0.234375, -1.2988281, -104.0243912, -112.3780518, -21.1585369, -0.2902113
-0.0551758, 0.2724609, -1.1645508, -110.0609818, -120.7926865, -23.5975609, -0.286183
-0.0698242, 0.2587891, -1.0825195, -112.0121994, -124.9390259, -25.2439022, -0.2687266
-0.0429688, 0.1552734, -0.9575195, -110.4268341, -129.2682953, -26.6463413, -0.2411994
-0.0107422, 0.0786133, -0.9272461, -107.1341476, -129.5731812, -26.2195129, -0.1962158
0.0429688, -0.0629883, -0.90625, -97.68293, -126.5853653, -24.4512196, -0.13579
0.0454102, -0.1049805, -0.8808594, -88.7804871, -123.5975647, -22.9878063, -0.0767071
0.0234375, -0.0810547, -0.8793945, -84.3292694, -123.0487823, -21.280489, -0.0164492
-0.0073242, 0.0375977, -0.9125977, -75.3658524, -123.9634171, -15.9146347, 0.021149
-0.0078125, 0.1206055, -0.9448242, -71.5853653, -124.2073212, -12.4390249, 0.0417945
0.0126953, 0.2651367, -1.0161133, -66.4024429, -123.0487823, -7.6219516, 0.0535439
0.0219727, 0.3085938, -1.0317383, -66.4024429, -121.4634171, -6.9512196, 0.0481727
0.0375977, 0.3056641, -1, -69.5121994, -117.68293, -8.9024391, 0.0387732
0.0405273, 0.2700195, -0.9628906, -71.2195129, -115.3048782, -11.0975609, 0.023331
0.0561523, 0.1494141, -0.8706055, -71.8902435, -110.4878082, -14.2682934, 0.0031891
0.0771484, 0.0927734, -0.8198242, -69.6951218, -108.5975647, -15.1829271, -0.0149386
0.1157227, 0.0175781, -0.7573242, -63.1097565, -106.0365906, -16.1585369, -0.0164492
0.1328125, 0.0371094, -0.8017578, -54.5731735, -103.1707306, -15.6097565, -0.0112459
0.1293945, 0.0839844, -0.8730469, -50.7926826, -101.2195129, -14.3292685, 0.0030213
0.0839844, 0.2329102, -1.0498047, -46.0975609, -97.0121994, -11.4634151, 0.0226596
0.0537109, 0.309082, -1.1279297, -47.0731735, -95.4268341, -9.8170738, 0.0364233
-0.012207, 0.4067383, -1.203125, -54.9390259, -94.0243912, -9.7560978, 0.0414588
-0.0395508, 0.4106445, -1.1982422, -61.4024391, -93.5975647, -11.7073174, 0.0488441
-0.0854492, 0.3515625, -1.1293945, -72.9878082, -93.1097565, -17.1951218, 0.0501869
-0.0996094, 0.2978516, -1.0888672, -76.8292694, -92.4390259, -19.2682934, 0.0438087
-0.1069336, 0.2299805, -1.0693359, -78.5365906, -92.5609741, -19.3292694, 0.0374304
-0.0966797, 0.2265625, -1.0976562, -77.68293, -93.1707306, -17.8658543, 0.026688
-0.0625, 0.2700195, -1.2006836, -75.1219559, -95.9146347, -14.1463413, 0.0696574
-0.0605469, 0.3535156, -1.3061523, -78.1097565, -99.6951218, -13.4146347, 0.142504
-0.0771484, 0.387207, -1.3305664, -82.2560959, -102.1951218, -14.8780489, 0.1676814
-0.144043, 0.387207, -1.3208008, -91.8902435, -106.7682953, -19.3902435, 0.1555962
-0.1894531, 0.3608398, -1.3032227, -95.9756088, -108.7804871, -21.4024391, 0.1263905
-0.253418, 0.2773438, -1.2568359, -99.6341476, -112.9878082, -24.0243912, 0.1012131
-0.2763672, 0.2446289, -1.2255859, -99.4512253, -115.6097565, -23.8414631, 0.0659648
-0.2851562, 0.1948242, -1.1450195, -96.3414688, -122.8048782, -22.8658543, -0.008896
-0.2709961, 0.1772461, -1.1020508, -94.4512253, -126.5243912, -22.439024, -0.0632792
-0.2294922, 0.1630859, -1.0410156, -90.3048782, -132.5, -20.8536587, -0.0814069
-0.2021484, 0.1665039, -1.0356445, -87.8048782, -133.9634247, -19.5121956, -0.0777142
-0.1499023, 0.2299805, -1.0673828, -82.5609741, -134.0243988, -14.2073174, -0.066804
-0.0991211, 0.3168945, -1.0761719, -80.5487823, -132.8048859, -10.1219511, -0.0471656
-0.081543, 0.3422852, -1.0517578, -81.646347, -132.3780518, -10, -0.0310521
-0.0634766, 0.3334961, -0.9389648, -86.0975647, -131.0975647, -13.4756098, -0.0297093
-0.0541992, 0.2958984, -0.8598633, -87.3170776, -129.3292694, -15.4268293, -0.0347448
-0.0249023, 0.1967773, -0.7280273, -85, -122.7439041, -18.780489, -0.030045
-0.0058594, 0.1538086, -0.6918945, -82.0731735, -118.7804871, -19.4512196, -0.0285344
0.0214844, 0.1074219, -0.71875, -72.9878082, -111.4634171, -18.1097565, -0.0357519
0.0253906, 0.109375, -0.7827148, -68.9634171, -108.9024429, -16.1585369, -0.0525368
-0.0014648, 0.1323242, -0.9360352, -62.68293, -106.2804871, -12.8658543, -0.0699931
-0.1049805, 0.203125, -1.0488281, -61.4024391, -105.6097565, -12.5, -0.0827497
-0.1801758, 0.2568359, -1.0620117, -61.7073174, -105.4878082, -13.9024391, -0.0854353
-0.3100586, 0.3803711, -1.0527344, -61.5243912, -107.0121994, -14.2073174, -0.0720073
-0.3510742, 0.4345703, -1.0654297, -61.0365868, -107.9268341, -13.4756098, -0.064622
-0.340332, 0.4887695, -1.1396484, -61.4634171, -108.3536606, -9.5731707, -0.0659648
-0.3076172, 0.4995117, -1.1860352, -62.8048782, -107.5609818, -7.6219516, -0.0525368
-0.2260742, 0.4892578, -1.2128906, -69.8170776, -103.7804871, -5.609756, -0.005539
-0.1899414, 0.4731445, -1.1850586, -74.8170776, -102.1951218, -6.4024391, -0.0068818
-0.1411133, 0.402832, -1.1166992, -84.2682953, -100.9756088, -9.7560978, -0.0330663
-0.1318359, 0.3530273, -1.1010742, -87.1341476, -101.0975647, -11.1585369, -0.0629435
-0.1235352, 0.2788086, -1.1171875, -88.1097565, -102.0121994, -11.8902445, -0.0800641
-0.1635742, 0.265625, -1.1362305, -87.68293, -102.7439041, -11.9512196, -0.0686503
-0.2036133, 0.2890625, -1.1186523, -88.5975647, -105.6707306, -13.2317076, -0.0310521
-0.2998047, 0.3544922, -1.050293, -91.4634171, -108.3536606, -14.8780489, -0.0045319
-0.3261719, 0.387207, -1.0102539, -92.0731735, -109.2682953, -14.2682934, 0.0095674
-0.3066406, 0.4296875, -0.9638672, -90.4878082, -108.2317123, -9.8780489, 0.0095674
-0.269043, 0.4360352, -0.965332, -89.6951218, -105.7317123, -7.7439027, -0.002182
-0.1889648, 0.4057617, -0.9858398, -89.9390259, -99.2073212, -6.1585369, -0.0137636
-0.1655273, 0.3808594, -0.9951172, -91.2804871, -95.6707306, -6.5243902, -0.0276951
-0.1572266, 0.3007812, -0.9916992, -94.4512253, -90.8536606, -8.1707315, -0.0448157
-0.1733398, 0.2587891, -0.9775391, -95.2439041, -89.9390259, -8.9634151, -0.0515297
-0.2275391, 0.1992188, -0.9360352, -93.1097565, -90.9146347, -10.6097565, -0.0491798
-0.2900391, 0.1962891, -0.9003906, -90.8536606, -92.4390259, -11.280488, -0.043473
-0.3232422, 0.2084961, -0.9082031, -83.4146347, -96.7073212, -10.3048782, -0.0344091
-0.3496094, 0.2729492, -0.9555664, -74.1463394, -100.4878082, -7.1341467, -0.0303807
-0.3476562, 0.3081055, -0.9912109, -70.6097565, -101.8292694, -5.3048782, -0.0276951
-0.3364258, 0.3999023, -1.0610352, -65.9146347, -103.1707306, -3.3536587, -0.0280308
-0.3320312, 0.4458008, -1.0849609, -64.9390259, -103.5365906, -3.2317073, -0.0290379
-0.3369141, 0.5209961, -1.1333008, -64.6951218, -104.6341476, -3.6585367, -0.0213169
-0.3417969, 0.5292969, -1.1523438, -65.1219559, -105.9146347, -4.5121951, -0.0166171
-0.3427734, 0.4980469, -1.1420898, -66.8292694, -109.2682953, -7.9878049, -0.0129244
-0.3413086, 0.4619141, -1.1040039, -67.9878082, -111.2804871, -10.7926836, -0.012253
-0.3491211, 0.378418, -0.9897461, -70.18293, -114.5731735, -16.3414631, -0.01561
-0.3388672, 0.3183594, -0.90625, -70.4878082, -115.6707306, -17.8048782, -0.0115816
-0.3149414, 0.3037109, -0.8974609, -69.0853653, -116.0365906, -16.4024391, -0.0125887
-0.2431641, 0.3188477, -0.9379883, -66.7682953, -113.6585388, -10.5487804, -0.0139315
-0.2114258, 0.3447266, -0.9697266, -67.0731735, -111.8292694, -8.0487804, -0.0186313
-0.1762695, 0.4140625, -1.0078125, -70.9146347, -106.7073212, -5.7926831, -0.0162814
-0.1816406, 0.440918, -1.003418, -73.9024429, -104.3292694, -6.3414636, -0.0135958
-0.2324219, 0.480957, -0.9853516, -78.6585388, -100.7926865, -8.5975609, -0.0119173
-0.2597656, 0.4765625, -0.9960938, -80.3658524, -99.8170776, -9.4512196, -0.012253
-0.3217773, 0.4760742, -1.0820312, -81.646347, -98.1707306, -9.2073174, -0.0068818
-0.3466797, 0.4780273, -1.1352539, -82.3170776, -97.8658524, -8.5365858, -0.0001678
-0.3964844, 0.5166016, -1.2055664, -85.4878082, -98.2926865, -7.5, -0.0057069
-0.4516602, 0.5634766, -1.1982422, -90.7926865, -101.5243912, -8.780488, -0.0082246
-0.4697266, 0.5825195, -1.1655273, -94.2073212, -103.8414688, -9.6341467, -0.005539
-0.4731445, 0.5986328, -1.0546875, -97.5609741, -107.5, -11.1585369, -0.0008392
-0.4511719, 0.5947266, -0.9990234, -97.7439041, -108.5365906, -11.4634151, 0.0070497
-0.3681641, 0.5546875, -0.9208984, -97.3170776, -107.1951218, -12.0731707, 0.0135958
-0.3261719, 0.5234375, -0.8896484, -97.5, -104.7561035, -12.4390249, 0.0223239
-0.2539062, 0.4282227, -0.8427734, -99.0243912, -98.4756088, -14.0243902, 0.0209812
-0.2387695, 0.3662109, -0.8154297, -100.1219559, -95.18293, -14.5731707, 0.0209812
-0.2475586, 0.237793, -0.7841797, -100.6097565, -89.8780518, -14.8170738, 0.0193027
-0.2719727, 0.184082, -0.7841797, -98.8414688, -88.1707306, -14.5121956, 0.0290379
-0.3588867, 0.1396484, -0.8032227, -90.4268341, -87.3780518, -12.5, 0.0589151
-0.4619141, 0.2021484, -0.815918, -79.5121994, -90.8536606, -9.9390249, 0.0669718
-0.5014648, 0.2626953, -0.8125, -74.2682953, -93.2317123, -8.1097565, 0.0797284
-0.5400391, 0.3867188, -0.7915039, -66.7682953, -96.0365906, -5.5487804, 0.0971847
-0.5307617, 0.4335938, -0.7866211, -64.1463394, -95.3658524, -3.8414636, 0.0884565
-0.4667969, 0.4760742, -0.796875, -60.9756126, -90.9146347, -1.1585366, 0.0777142
-0.4233398, 0.4711914, -0.8198242, -60.18293, -88.3536606, -0.3048781, 0.0921492
-0.3564453, 0.4243164, -0.9038086, -58.2926826, -83.5365906, 0.2439024, 0.1190051
-0.3515625, 0.4042969, -0.9584961, -57.3780518, -82.1341476, -0.4878049, 0.1406577
-0.3779297, 0.4067383, -1.0620117, -55.4268303, -83.8414688, -1.7073171, 0.144686
-0.3999023, 0.4335938, -1.0947266, -54.5121956, -86.5243912, -2.5, 0.1126268
-0.4707031, 0.5249023, -1.0952148, -54.3902435, -94.0853653, -5, 0.0602579
-0.515625, 0.6152344, -1.0244141, -57.1951218, -100.4268341, -7.9878049, -0.005539
-0.512207, 0.6459961, -0.9887695, -59.0853691, -101.8902435, -8.9634151, -0.0938277
-0.4487305, 0.6586914, -0.9194336, -63.1707344, -100.0609818, -8.2926826, -0.1378042
-0.3925781, 0.6235352, -0.8999023, -65.9756088, -97.1951218, -7.9878049, -0.1413291
-0.2749023, 0.5302734, -0.8500977, -71.4634171, -89.7560959, -8.2317076, -0.1022202
-0.2290039, 0.4750977, -0.8300781, -74.4512177, -86.2195129, -9.0853662, -0.0532082
-0.1977539, 0.409668, -0.840332, -78.8414688, -80.18293, -11.0975609, -0.0407874
-0.2075195, 0.3994141, -0.8881836, -79.2682953, -78.5365906, -11.1585369, -0.0453193
-0.2519531, 0.4453125, -1.0322266, -77.4390259, -78.6585388, -9.6951218, -0.0525368
-0.2900391, 0.4975586, -1.1025391, -76.7682953, -80.1219559, -8.780488, -0.0547189
-0.4077148, 0.6010742, -1.1723633, -79.3902435, -84.8780518, -11.280488, -0.0585794
-0.5561523, 0.6347656, -1.0991211, -88.3536606, -90.2439041, -17.7439022, -0.0609293
-0.6225586, 0.6123047, -1.0209961, -93.3536606, -93.1097565, -20.6707325, -0.0659648
-0.6870117, 0.5170898, -0.8662109, -97.0121994, -97.3170776, -22.5, -0.0793927
-0.6767578, 0.4697266, -0.8237305, -95.4268341, -98.7195129, -20.6707325, -0.0854353
-0.5737305, 0.4067383, -0.84375, -88.2926865, -100.8536606, -14.3902445, -0.0951705
-0.5131836, 0.4018555, -0.9067383, -84.8780518, -102.0121994, -11.0365858, -0.1015488
-0.4257812, 0.449707, -1.0556641, -80.9756088, -104.0853653, -6.7073174, -0.1062486
-0.409668, 0.4887695, -1.1162109, -80.6707306, -105.4268341, -6.5243902, -0.1109483
-0.456543, 0.5737305, -1.144043, -83.5975647, -109.6341476, -9.1463413, -0.1015488
-0.5019531, 0.5957031, -1.1005859, -85.9146347, -112.2561035, -12.1951218, -0.0908064
-0.6005859, 0.5981445, -0.9082031, -89.7560959, -118.4756088, -18.7195129, -0.0777142
-0.6259766, 0.5341797, -0.6494141, -89.2682953, -121.4024429, -22.6219521, -0.0716716
-0.5957031, 0.4814453, -0.5395508, -86.8902435, -121.2195129, -23.1707325, -0.0471656
-0.4677734, 0.371582, -0.4326172, -78.8414688, -115.3048782, -20.2439022, 0.0092317
-0.387207, 0.3310547, -0.4448242, -73.9024429, -110.6097565, -17.3170738, 0.0256809
-0.2407227, 0.300293, -0.5644531, -65.7926865, -99.3292694, -10.3048782, -0.0045319
-0.1928711, 0.3208008, -0.6474609, -63.2926826, -94.0853653, -6.7073174, -0.0384375
-0.1938477, 0.4204102, -0.7998047, -62.3170738, -84.4512253, -3.2317073, -0.0693217
-0.2314453, 0.4931641, -0.8486328, -64.3292694, -80.18293, -3.3536587, -0.1238727
-0.3876953, 0.6240234, -0.8842773, -71.0975647, -72.8658524, -6.5853658, -0.1438468
-0.4760742, 0.6733398, -0.8754883, -74.6951218, -70.6097565, -8.6585369, -0.1337758
-0.6308594, 0.7197266, -0.8535156, -78.4756088, -69.2682953, -11.8902445, -0.0995346
-0.7089844, 0.6738281, -0.8500977, -77.5, -72.0121994, -12.9878054, -0.064622
-0.7250977, 0.6289062, -0.8603516, -75.3658524, -73.7804871, -12.8658543, -0.0364233
-0.7216797, 0.5380859, -0.8837891, -71.4024429, -76.8902435, -12.7439032, -0.01561
-0.7094727, 0.5117188, -0.8901367, -70.0609741, -78.6585388, -12.4390249, -0.0075532
-0.6791992, 0.4960938, -0.8793945, -68.3536606, -82.0731735, -10.2439022, -0.0075532
-0.6591797, 0.5043945, -0.8598633, -68.7804871, -83.7195129, -9.3902445, -0.0196384
-0.6083984, 0.5517578, -0.8203125, -68.8414688, -84.7560959, -7.9878049, -0.0317235
-0.5820312, 0.5820312, -0.8061523, -68.7804871, -84.3292694, -7.2560978, -0.04448
-0.5390625, 0.6342773, -0.8046875, -69.2682953, -81.0975647, -6.6463418, -0.054551
-0.5234375, 0.6552734, -0.8232422, -69.5731735, -78.9024429, -6.4024391, -0.0639506
-0.5029297, 0.675293, -0.8774414, -71.4024429, -75.4268341, -5.9146342, -0.057908
-0.5102539, 0.6650391, -0.9116211, -75.1219559, -73.5975647, -7.0121951, -0.0397803
-0.5263672, 0.6508789, -0.9013672, -77.7439041, -73.4756088, -8.4756098, -0.0171206
-0.5712891, 0.6240234, -0.8491211, -83.2926865, -73.3536606, -11.8292685, 0.0011749
-0.5966797, 0.6079102, -0.8164062, -84.8780518, -73.5365906, -13.2317076, 0.0052033
-0.6293945, 0.5869141, -0.7749023, -85.0609741, -73.9634171, -13.5365858, 0.0078889
-0.6259766, 0.5834961, -0.7705078, -83.9024429, -74.0853653, -12.4390249, 0.0132601
-0.6025391, 0.5864258, -0.8051758, -81.2195129, -74.4512177, -9.8170738, 0.0310521
-0.5961914, 0.5844727, -0.8339844, -80.7926865, -74.8780518, -9.5121956, 0.0347448
-0.6079102, 0.5541992, -0.8950195, -81.9512177, -76.5243912, -9.5731707, 0.0231632
-0.6166992, 0.5268555, -0.9130859, -82.1341476, -77.5, -9.9390249, 0.0018463
-0.6630859, 0.4995117, -0.8881836, -82.8658524, -80.6707306, -12.3780489, 0.0025177
-0.7075195, 0.5288086, -0.8066406, -80.3658524, -85, -14.0243902, 0.0193027
-0.7094727, 0.5610352, -0.7563477, -78.7195129, -87.8658524, -13.6585369, 0.0407874
-0.6611328, 0.6230469, -0.6948242, -74.5121994, -92.0731735, -11.4634151, 0.085771
-0.6103516, 0.6430664, -0.6914062, -73.2317123, -92.4390259, -10.5487804, 0.1079271
-0.5141602, 0.6459961, -0.7485352, -71.9512177, -89.6951218, -8.6585369, 0.1082628
-0.4799805, 0.6376953, -0.7929688, -72.0731735, -87.1341476, -8.719512, 0.1332723
-0.4614258, 0.6254883, -0.8466797, -75.2439041, -82.9878082, -10.060976, 0.117998
-0.4765625, 0.6274414, -0.847168, -77.3780518, -81.5853653, -11.280488, 0.0641184
-0.5405273, 0.6357422, -0.7929688, -82.0731735, -81.0975647, -15.3048782, 0.01561
-0.5805664, 0.6386719, -0.7426758, -83.8414688, -81.4634171, -16.7073174, -0.0028534
-0.6328125, 0.6357422, -0.6689453, -84.4512253, -81.4634171, -18.4756107, 0.014435
-0.6577148, 0.6108398, -0.6943359, -80.8536606, -80.18293, -16.8902435, 0.0038605
-0.6577148, 0.597168, -0.7387695, -78.1707306, -79.3292694, -15.5487804, -0.0196384
-0.6650391, 0.6044922, -0.8139648, -74.0243912, -78.5975647, -14.0243902, -0.051194
-0.6704102, 0.6274414, -0.8271484, -73.7195129, -79.0853653, -14.0243902, -0.0807355
-0.6889648, 0.675293, -0.7890625, -75.2439041, -80.18293, -15.3048782, -0.1008774
-0.6948242, 0.6816406, -0.7421875, -76.8902435, -80.6097565, -15.8536587, -0.1084306
-0.6674805, 0.6542969, -0.6547852, -79.3902435, -79.4512177, -15.4268293, -0.1139696
-0.6474609, 0.6206055, -0.6298828, -79.5121994, -77.9268341, -14.6951227, -0.1144732
-0.5966797, 0.5556641, -0.6049805, -78.5365906, -73.4146347, -12.2560978, -0.1223621
-0.5805664, 0.5258789, -0.6113281, -77.68293, -71.2195129, -11.0365858, -0.1223621
-0.5703125, 0.5053711, -0.6362305, -75.9756088, -67.5, -10, -0.1136339
-0.6010742, 0.5146484, -0.652832, -74.6341476, -65.1219559, -9.6951218, -0.1075914
-0.6269531, 0.5307617, -0.6552734, -73.7195129, -64.1463394, -9.4512196, -0.0991989
-0.671875, 0.5683594, -0.659668, -71.3414688, -63.2926826, -8.9024391, -0.1203479
-0.6938477, 0.5839844, -0.6601562, -70.5487823, -63.0487823, -8.4756098, -0.1371328
-0.7070312, 0.6147461, -0.6586914, -67.7439041, -62.4390259, -7.1951222, -0.1243763
-0.6962891, 0.6245117, -0.659668, -67.1951218, -62.1341476, -6.3414636, -0.0976883
-0.6611328, 0.6347656, -0.6821289, -66.6463394, -61.8902435, -4.8170733, -0.0609293
-0.6455078, 0.6308594, -0.7099609, -66.4634171, -61.6463432, -3.8414636, -0.0656291
-0.6225586, 0.6274414, -0.7817383, -67.3780518, -61.0975609, -2.9268293, -0.1243763
-0.6220703, 0.6118164, -0.8388672, -68.1707306, -60.9756126, -2.6219513, -0.1519036
-0.6396484, 0.6054688, -0.847168, -70.9756088, -62.3780518, -4.0853658, -0.1411612
-0.6904297, 0.6030273, -0.8173828, -73.0487823, -64.8170776, -7.1951222, -0.0955062
-0.7163086, 0.609375, -0.7792969, -73.4756088, -66.4024429, -8.3536587, -0.0204776
-0.7524414, 0.6313477, -0.6835938, -72.1341476, -71.1585388, -9.8170738, 0.0374304
-0.7436523, 0.6381836, -0.6386719, -70.7926865, -73.4146347, -9.7560978, 0.0676432
-0.6943359, 0.652832, -0.5854492, -67.5609741, -75.9146347, -8.2317076, 0.0803998
-0.6577148, 0.6518555, -0.5742188, -66.4024429, -75.4878082, -7.4390244, 0.0694896
-0.5805664, 0.6582031, -0.5869141, -64.3902435, -72.3170776, -6.280488, 0.0508583
-0.5419922, 0.6582031, -0.6049805, -63.7195129, -70.3658524, -5.9146342, 0.0317235
-0.5058594, 0.6542969, -0.6455078, -65.1219559, -65.9146347, -6.280488, 0.0166171
-0.5151367, 0.6352539, -0.6865234, -66.4024429, -63.9634171, -7.3170733, 0.0038605
-0.5410156, 0.625, -0.7006836, -69.0243912, -60.4268303, -10.1219511, -0.0011749
-0.621582, 0.6264648, -0.6987305, -69.3902435, -57.8658562, -13.4756098, -0.0062104
-0.6611328, 0.6391602, -0.6811523, -69.3292694, -58.1097565, -14.6951227, -0.0099031
-0.7143555, 0.6728516, -0.6220703, -67.6219559, -59.6341476, -15.8536587, -0.0176242
-0.7250977, 0.6865234, -0.5864258, -66.7682953, -60.6707344, -15.5487804, -0.0280308
-0.699707, 0.6811523, -0.5410156, -65.5487823, -61.341465, -14.6951227, -0.0271916
-0.6728516, 0.6630859, -0.5375977, -65.3048782, -60.7317085, -13.2926836, -0.0287022
-0.6186523, 0.621582, -0.5600586, -65.3658524, -57.4390259, -11.5243902, -0.0260166
-0.6005859, 0.6030273, -0.5722656, -65.9756088, -54.8170738, -10.8536587, -0.0224918
-0.5947266, 0.5830078, -0.6049805, -66.7682953, -49.1463432, -10.3048782, -0.0159457
-0.6347656, 0.5849609, -0.6313477, -67.5609741, -46.9512215, -10.4878054, -0.0179599
-0.6655273, 0.5878906, -0.6420898, -68.5365906, -44.3902435, -10.4268293, -0.0224918
-0.7226562, 0.5888672, -0.6411133, -68.6585388, -43.841465, -10.4268293, -0.0236667
-0.753418, 0.5952148, -0.6323242, -68.1707306, -44.1463432, -10.5487804, -0.0297093
-0.7802734, 0.6054688, -0.6137695, -66.4024429, -45.9146347, -10.1219511, -0.0243381
-0.7827148, 0.6201172, -0.6069336, -65.3048782, -46.8902435, -9.3292685, 0.0082246
-0.7685547, 0.6342773, -0.6132812, -62.8048782, -49.5121956, -7.2560978, 0.0213169
-0.7407227, 0.6313477, -0.628418, -62.1951218, -50.6707344, -6.4024391, 0.0125887
-0.7050781, 0.6132812, -0.6748047, -61.7073174, -51.6463432, -4.9390244, -0.005539
-0.6972656, 0.6005859, -0.6962891, -62.0121956, -51.6463432, -4.8170733, -0.0199741
-0.7060547, 0.59375, -0.7138672, -63.2926826, -52.2560997, -5.3048782, -0.0337377
-0.7338867, 0.6108398, -0.7026367, -64.1463394, -52.8048782, -5.4878049, -0.0412909
-0.7407227, 0.6181641, -0.6943359, -65.4268341, -54.8170738, -5.4268293, -0.0386053
-0.7451172, 0.6313477, -0.6547852, -65.8536606, -57.0731735, -4.7560978, -0.0337377
-0.7368164, 0.6479492, -0.6342773, -65.5487823, -57.9878044, -4.5731707, -0.0216526
-0.7172852, 0.6826172, -0.605957, -65.4878082, -58.5365868, -4.7560978, -0.0152743
-0.703125, 0.6904297, -0.5942383, -65.5487823, -58.1707344, -4.4512196, -0.0169528
-0.6738281, 0.6972656, -0.5834961, -65.9146347, -57.5609779, -4.2073174, -0.0179599
-0.6586914, 0.6943359, -0.5830078, -65.9146347, -56.7073174, -4.4512196, -0.0085603
-0.644043, 0.7011719, -0.5776367, -66.2195129, -55.4268303, -4.9390244, -0.0068818
-0.6401367, 0.6967773, -0.5776367, -66.3414612, -54.5121956, -5.4878049, -0.0041962
-0.6401367, 0.6796875, -0.5708008, -66.5853653, -53.0487823, -5.4268293, -0.0068818
-0.6474609, 0.6616211, -0.5390625, -66.8902435, -51.7073174, -5.670732, -0.005539
-0.6513672, 0.659668, -0.5224609, -68.7195129, -48.1097565, -6.6463418, 0.0010071
-0.6586914, 0.6518555, -0.5043945, -68.3536606, -44.9390259, -6.5853658, 0.0031891
-0.6591797, 0.6435547, -0.5039062, -67.5609741, -44.0243912, -5.9146342, 0.0119173
-0.6484375, 0.6142578, -0.5112305, -65.9146347, -43.9634171, -4.8780489, 0.0182956
-0.6425781, 0.605957, -0.5102539, -65, -43.6585388, -5.1219511, 0.0397803
-0.6489258, 0.6054688, -0.5029297, -63.2926826, -42.7439041, -6.9512196, 0.0622721
-0.6606445, 0.6171875, -0.4941406, -62.3170738, -41.2804871, -8.0487804, 0.068986
-0.6870117, 0.6523438, -0.4838867, -60.3658562, -39.5121956, -7.8658538, 0.0787213
-0.690918, 0.6630859, -0.4887695, -59.2073174, -39.0853653, -7.3170733, 0.1139696
-0.6879883, 0.6733398, -0.5029297, -57.5, -38.3536606, -6.3414636, 0.156939
-0.6967773, 0.6582031, -0.5170898, -57.9268303, -36.6463432, -7.1341467, 0.1384756
-0.7050781, 0.6459961, -0.5195312, -58.4756126, -35.1829262, -7.6829271, 0.072343
-0.7368164, 0.6430664, -0.5229492, -58.7195129, -32.1951218, -7.8048782, 0.0065461
-0.7539062, 0.6469727, -0.5263672, -58.5975609, -31.2195129, -7.3170733, -0.0263523
-0.7685547, 0.6650391, -0.534668, -57.3170738, -31.0365868, -5.4268293, -0.0357519
-0.7641602, 0.6743164, -0.5341797, -56.8292694, -31.280489, -4.2073174, -0.0276951
-0.7470703, 0.6811523, -0.5356445, -57.2560997, -32.1951218, -3.5365853, -0.0095674
-0.7397461, 0.671875, -0.5366211, -57.5, -32.2560997, -3.9024391, 0.0112459
-0.730957, 0.6508789, -0.5415039, -58.2317085, -31.8292694, -4.2682929, 0.0240024
-0.7275391, 0.6425781, -0.5507812, -58.1097565, -32.1951218, -4.2073174, 0.0224918
-0.722168, 0.6464844, -0.5766602, -56.4024391, -33.2926826, -2.9878049, 0.0119173
-0.7197266, 0.6582031, -0.5947266, -55.18293, -34.7560997, -2.195122, -0.0041962
-0.715332, 0.6660156, -0.6079102, -55.2439041, -35.7926826, -2.1341465, -0.0256809
-0.7182617, 0.6694336, -0.6000977, -56.6463432, -37.1341476, -3.2926829, -0.0404517
-0.7246094, 0.6665039, -0.5830078, -57.3780518, -37.9878044, -3.7804878, -0.0632792
-0.737793, 0.659668, -0.5410156, -58.1097565, -38.7195129, -4.390244, -0.0800641
-0.737793, 0.6557617, -0.5195312, -58.3536606, -39.4512215, -4.5731707, -0.0943313
-0.7373047, 0.6582031, -0.4799805, -57.7439041, -40.4268303, -4.8780489, -0.10692
-0.734375, 0.6523438, -0.4702148, -57.3170738, -40.7317085, -4.8170733, -0.1203479
-0.7148438, 0.6484375, -0.4741211, -56.341465, -40.8536606, -3.6585367, -0.124712
-0.6987305, 0.6503906, -0.4916992, -55.4878044, -40.7926826, -2.804878, -0.1290761
-0.671875, 0.6552734, -0.5302734, -54.3292694, -41.1585388, -1.5243902, -0.1198444
-0.6533203, 0.6621094, -0.5380859, -54.0243912, -41.2195129, -2.8658538, -0.1143053
-0.668457, 0.6523438, -0.5263672, -54.5121956, -41.4024391, -4.1463413, -0.0753643
-0.6962891, 0.6318359, -0.4863281, -56.2195129, -40.7926826, -6.4024391, -0.04448
-0.715332, 0.6240234, -0.4619141, -56.2804909, -40.4878044, -7.4390244, -0.057908
-0.7333984, 0.6240234, -0.4394531, -53.841465, -39.8170738, -7.5, -0.0686503
-0.7373047, 0.6420898, -0.4335938, -51.8292694, -39.2682953, -6.7682929, -0.0773785
-0.7250977, 0.675293, -0.4326172, -50.3658562, -40.9756088, -5.2439027, -0.0869459
-0.7167969, 0.6787109, -0.4360352, -50.0609779, -41.4024391, -4.7560978, -0.0867781
-0.7011719, 0.6542969, -0.4541016, -49.7560997, -41.341465, -4.3292685, -0.0777142
-0.6972656, 0.644043, -0.4638672, -49.5731735, -40.7317085, -4.6341462, -0.0686503
-0.7109375, 0.6381836, -0.4726562, -48.9634171, -38.9634171, -5.4268293, -0.0538796
-0.737793, 0.6445312, -0.4731445, -48.0487823, -38.2317085, -5.3658538, -0.04448
-0.7490234, 0.6503906, -0.4760742, -47.7439041, -38.2317085, -5.1829271, -0.04448
-0.7539062, 0.6635742, -0.4833984, -45.9146347, -39.2682953, -4.390244, -0.0412909
-0.7529297, 0.6728516, -0.4848633, -44.6341476, -39.6951218, -4.0853658, -0.0209812
-0.7451172, 0.6757812, -0.4794922, -43.7804871, -40.4878044, -3.7195122, -0.0062104
-0.7382812, 0.6723633, -0.4604492, -43.5365868, -40.1829262, -3.7804878, -0.0018463
-0.7231445, 0.6508789, -0.4042969, -44.1463432, -39.8170738, -3.9634147, -0.0028534
-0.7124023, 0.6362305, -0.3686523, -43.9634171, -38.9634171, -4.2682929, -0.0149386
-0.6982422, 0.6176758, -0.3212891, -43.4146347, -36.1585388, -4.2682929, -0.0391089
-0.6953125, 0.6157227, -0.3134766, -42.4390259, -34.3902435, -3.2926829, -0.0773785
-0.690918, 0.6279297, -0.3325195, -38.9024391, -31.0975609, -1.5853659, -0.1169909
-0.6938477, 0.6499023, -0.378418, -35.3048782, -28.1097565, 0, -0.1136339
-0.6977539, 0.6557617, -0.4038086, -34.0243912, -26.8902454, 0.6097561, -0.0193027
-0.71875, 0.6547852, -0.4233398, -33.0487823, -25.1829281, 0.3658537, 0.1337758
-0.730957, 0.6474609, -0.4238281, -32.9878044, -24.6951218, 0.1219512, 0.2227359
-0.7529297, 0.6323242, -0.3999023, -32.5609779, -24.5121956, -1.3414634, 0.272755
-0.7587891, 0.6308594, -0.3916016, -31.6463413, -24.8780499, -1.5853659, 0.2747692
-0.762207, 0.6293945, -0.3759766, -28.2317085, -25.9756107, -1.1585366, 0.2133364
-0.7524414, 0.6337891, -0.3808594, -26.5243912, -26.8292694, -0.7317073, 0.1117876
-0.7138672, 0.652832, -0.4033203, -23.4146347, -27.5, 0.6707317, 0.0318914
-0.6928711, 0.6674805, -0.418457, -22.6829281, -27.6219521, 1.097561, -0.0276951
-0.6591797, 0.6806641, -0.4345703, -23.0487804, -26.4024391, 1.402439, -0.0703288
-0.6425781, 0.6582031, -0.4291992, -25.4878063, -24.1463413, -0.1829268, -0.096849
-0.6533203, 0.6508789, -0.4169922, -26.5243912, -22.439024, -1.5853659, -0.1378042
-0.6948242, 0.6416016, -0.3989258, -27.0121956, -18.6585369, -3.2317073, -0.1680171
-0.7163086, 0.6450195, -0.3935547, -25.9756107, -18.1097565, -2.9268293, -0.1539178
-0.7368164, 0.6591797, -0.4067383, -23.2317085, -18.1707325, -1.5853659, -0.1428397
-0.7387695, 0.6660156, -0.4169922, -22.1951218, -18.9024391, -0.6707317, -0.1351186
-0.7412109, 0.6577148, -0.4360352, -21.5243912, -19.4512196, -0.3048781, -0.1223621
-0.7470703, 0.6469727, -0.4399414, -21.5853672, -19.2682934, -0.8536586, -0.1049058
-0.7641602, 0.6337891, -0.4301758, -21.5853672, -18.4146347, -0.9756098, -0.0981918
-0.7749023, 0.6328125, -0.4277344, -21.0975609, -18.1707325, -0.9146342, -0.0971847
-0.7919922, 0.6347656, -0.434082, -18.9024391, -18.5365849, 0.1829268, -0.0928206
-0.8095703, 0.6450195, -0.4697266, -15.2439032, -20.9146347, 2.4390244, -0.0834211
-0.8100586, 0.6396484, -0.4907227, -13.6585369, -22.2560978, 3.4756098, -0.0767071
-0.8027344, 0.6264648, -0.5205078, -11.7073174, -25.1829281, 4.3292685, -0.0703288
-0.8032227, 0.6245117, -0.5205078, -11.1585369, -26.0365868, 4.1463413, -0.0599222
-0.8115234, 0.6132812, -0.4916992, -10, -27.5, 3.9634147, -0.0605936
-0.8110352, 0.6118164, -0.4633789, -9.7560978, -28.2317085, 3.9024391, -0.0716716
-0.7949219, 0.628418, -0.3999023, -8.1097565, -29.6341476, 4.4512196, -0.0757
-0.7729492, 0.6367188, -0.3847656, -6.890244, -30.1219521, 5.3658538, -0.0673075
-0.7241211, 0.6362305, -0.3881836, -3.7804878, -29.8170738, 6.8292685, -0.061265
-0.7026367, 0.6298828, -0.3959961, -2.804878, -29.0853672, 7.5, -0.0589151
-0.6674805, 0.6323242, -0.4150391, -0.9756098, -26.8902454, 8.1707315, -0.0574044
-0.6533203, 0.6464844, -0.425293, -0.7926829, -24.5121956, 7.3170733, -0.0528725
-0.6552734, 0.6513672, -0.4194336, -0.9146342, -23.1707325, 6.8292685, -0.0392767
-0.6616211, 0.6557617, -0.40625, -1.402439, -20.5487804, 6.280488, -0.0193027
-0.6660156, 0.6606445, -0.3979492, -1.097561, -19.3292694, 5.9146342, 0.0005035
-0.6552734, 0.6757812, -0.3984375, -0.1219512, -16.8902435, 5.609756, 0.0142672
-0.6494141, 0.6806641, -0.402832, 0.3048781, -15.6097565, 5.7317076, 0.0246738
-0.628418, 0.6845703, -0.4072266, 0.3048781, -13.4146347, 6.0975609, 0.026688
-0.6186523, 0.6821289, -0.4072266, 0.3658537, -11.9512196, 5.670732, 0.0273594
-0.6088867, 0.6738281, -0.4057617, 0, -9.0853662, 4.5731707, 0.0223239
-0.6152344, 0.6625977, -0.4169922, -0.1829268, -7.6219516, 4.2073174, 0.0112459
-0.6269531, 0.6386719, -0.4555664, 0.1219512, -5.1219511, 4.5731707, 0.0218204
-0.65625, 0.6254883, -0.4936523, 0.6097561, -2.5, 4.8170733, 0.0562295
-0.6811523, 0.6235352, -0.5073242, 0.7317073, -1.4634147, 4.6951222, 0.0686503
-0.7382812, 0.6303711, -0.4970703, 0.2439024, 0.5487805, 3.8414636, 0.0582437
-0.7661133, 0.6337891, -0.4760742, 0.7926829, 0.3658537, 3.5975611, 0.0364233
-0.7880859, 0.6450195, -0.440918, 2.195122, -1.0365853, 4.2682929, 0.0135958
-0.7880859, 0.6567383, -0.4272461, 3.7195122, -1.9512196, 4.7560978, 0.0085603
-0.7592773, 0.6694336, -0.4311523, 6.8292685, -1.9512196, 6.6463418, 0.0236667
-0.7397461, 0.6635742, -0.4453125, 8.1707315, -1.7682927, 8.0487804, 0.0424659
-0.7104492, 0.6625977, -0.4833984, 9.0243902, -0.1829268, 9.6341467, 0.0810712
-0.7041016, 0.6640625, -0.5024414, 8.780488, 1.4634147, 9.9390249, 0.1008774
-0.7050781, 0.6582031, -0.5083008, 7.8658538, 4.2682929, 9.6951218, 0.0887922
-0.7260742, 0.6669922, -0.4799805, 7.0121951, 5.7317076, 9.0243902, 0.023331
-0.7353516, 0.6679688, -0.4614258, 6.7682929, 5.9146342, 9.3292685, -0.0327306
-0.7421875, 0.6674805, -0.4599609, 8.4756098, 4.5731707, 10.4268293, -0.0558938
-0.7363281, 0.6567383, -0.4804688, 9.8780489, 3.4756098, 11.7682934, -0.0592508
-0.7211914, 0.6318359, -0.5410156, 13.1097565, 0.4878049, 13.6585369, -0.0527047
-0.7124023, 0.6201172, -0.5649414, 13.9024391, -0.4878049, 13.9024391, -0.040116
-0.7158203, 0.5957031, -0.5693359, 13.780488, -1.2195122, 12.6829271, -0.0223239
-0.7270508, 0.6040039, -0.5463867, 13.4756098, -1.0365853, 11.341464, 0.0065461
-0.7470703, 0.6337891, -0.4858398, 13.841464, -1.5853659, 10.5487804, 0.0505226
-0.7250977, 0.6660156, -0.4526367, 14.7560978, -2.3780489, 11.280488, 0.0330663
-0.6943359, 0.6811523, -0.4570312, 17.9268303, -4.3292685, 13.5365858, -0.04448
-0.6171875, 0.6938477, -0.4873047, 19.8780499, -3.5365853, 14.8780489, -0.1092699
-0.5854492, 0.6938477, -0.496582, 19.7560978, -2.3170731, 14.5731707, -0.1534142
-0.5688477, 0.699707, -0.4770508, 18.1097565, 2.195122, 12.3780489, -0.1713741
-0.5668945, 0.6962891, -0.4570312, 16.7682934, 4.5121951, 11.5853662, -0.1431754
-0.5908203, 0.6977539, -0.4257812, 14.8780489, 8.2926826, 10.2439022, -0.0891279
-0.6083984, 0.6894531, -0.4272461, 15.1219511, 10.060976, 10.3048782, -0.0276951
-0.6464844, 0.675293, -0.4726562, 16.8902435, 12.4390249, 11.4024391, 0.0287022
-0.6665039, 0.6704102, -0.5078125, 18.0487804, 13.5975609, 12.1951218, 0.0780499
-0.7148438, 0.6826172, -0.5473633, 19.8170738, 15.060976, 12.1341467, 0.1065843
-0.7612305, 0.6821289, -0.5351562, 20.060976, 15.4268293, 12.2560978, 0.1223621
-0.7744141, 0.6801758, -0.5117188, 20.3048782, 14.8780489, 11.9512196, 0.1245441
-0.7724609, 0.6489258, -0.4702148, 21.8292694, 13.3536587, 12.8048782, 0.1059129
-0.7573242, 0.6328125, -0.4492188, 23.4146347, 12.7439032, 12.6829271, 0.0835889
-0.7207031, 0.6181641, -0.4360352, 27.1341476, 13.2926836, 13.6585369, 0.051194
-0.7001953, 0.6235352, -0.4335938, 28.841465, 14.5121956, 14.2682934, 0.0206455
-0.6645508, 0.6376953, -0.4296875, 31.4024391, 17.6829281, 15.4268293, -0.0015106
-0.6459961, 0.6420898, -0.4321289, 31.8902454, 19.6951218, 15.9146347, 0.0001678
-0.6230469, 0.6357422, -0.4545898, 32.4390259, 23.8414631, 16.5243912, 0.0374304
-0.6186523, 0.6323242, -0.4667969, 32.8658562, 26.0365868, 16.5243912, 0.0428016
-0.6123047, 0.6381836, -0.4985352, 33.6585388, 28.780489, 16.8292694, 0.0119173
-0.6391602, 0.6459961, -0.5166016, 33.7804871, 30.2439022, 16.5243912, -0.0379339
-0.6533203, 0.6518555, -0.5283203, 33.7195129, 33.1097565, 15.3658543, -0.0887922
-0.690918, 0.6577148, -0.5385742, 33.9634171, 34.5121956, 14.3902445, -0.1361257
-0.7070312, 0.6660156, -0.5380859, 34.5731697, 34.7560997, 13.9634151, -0.1633173
-0.7177734, 0.6757812, -0.5224609, 35.5487823, 34.3902435, 14.6951227, -0.1676814
-0.7167969, 0.6767578, -0.5200195, 36.1585388, 34.1463432, 14.8780489, -0.1666743
-0.7036133, 0.6777344, -0.5307617, 36.5243912, 35, 15.8536587, -0.1646601
-0.6958008, 0.675293, -0.5371094, 37.2560997, 36.0365868, 16.0975609, -0.1613031
-0.6889648, 0.6655273, -0.5336914, 37.9268303, 38.7804871, 16.1585369, -0.1562676
-0.6904297, 0.6611328, -0.5234375, 38.5365868, 40.2439041, 15.9146347, -0.1461967
-0.7011719, 0.6479492, -0.4833984, 39.5121956, 42.3170738, 15.5487804, -0.1354543
-0.699707, 0.6333008, -0.4643555, 40.3048782, 42.3780479, 15.4878054, -0.1230335
-0.6938477, 0.6201172, -0.4736328, 42.7439041, 43.1097565, 15.9146347, -0.0985275
-0.6811523, 0.6157227, -0.5224609, 45.6097565, 44.7560997, 17.2560978, -0.0874495
-0.6713867, 0.6264648, -0.5493164, 46.7073174, 46.2804871, 17.560976, -0.0827497
-0.659668, 0.6630859, -0.5712891, 46.6463432, 49.8170738, 17.3170738, -0.0787213
-0.6699219, 0.6791992, -0.5649414, 46.1585388, 51.4024391, 16.9512196, -0.0740215
-0.6679688, 0.706543, -0.5380859, 44.0853653, 53.5975609, 15.4268293, -0.0686503
-0.6679688, 0.7041016, -0.5297852, 43.841465, 53.9634171, 14.8780489, -0.0703288
-0.6499023, 0.690918, -0.5634766, 44.0243912, 55.18293, 15.1829271, -0.0850996
-0.6484375, 0.6801758, -0.5986328, 44.5731735, 56.5243912, 15.9146347, -0.0847639
-0.6416016, 0.6591797, -0.6806641, 45.0609779, 58.4756126, 17.0121956, -0.0740215
-0.671875, 0.6293945, -0.7250977, 43.2926826, 59.0243912, 15.6707325, -0.0535439
-0.6982422, 0.6142578, -0.7207031, 42.0121956, 58.2926826, 15.1829271, -0.0276951
-0.7485352, 0.6088867, -0.6728516, 40.9756088, 54.7560997, 13.4756098, -0.0063783
-0.7705078, 0.6108398, -0.6445312, 42.1341476, 52.6219521, 13.3536587, 0.0075532
-0.7866211, 0.6230469, -0.6201172, 45.5487823, 48.9634171, 14.5731707, 0.0182956
-0.78125, 0.6264648, -0.6289062, 47.2560997, 48.1097565, 15.9756098, 0.0258488
-0.7626953, 0.6235352, -0.6640625, 49.9390259, 48.5975609, 18.1707325, 0.0219883
-0.7514648, 0.6254883, -0.6723633, 50.3658562, 49.3292694, 18.7195129, 0.0240024
-0.7548828, 0.6308594, -0.6674805, 50.2439041, 50.4268303, 19.8170738, 0.0223239
-0.7539062, 0.6333008, -0.6552734, 50.5487823, 50.9756126, 19.939024, 0.0256809
-0.7412109, 0.6445312, -0.5986328, 51.2195129, 51.2195129, 20.9756107, 0.0287022
-0.7050781, 0.6630859, -0.5390625, 52.9268303, 51.9512215, 21.8292694, 0.0216526
-0.6767578, 0.6679688, -0.5234375, 53.9634171, 52.0731735, 22.1951218, 0.0481727
-0.6147461, 0.6713867, -0.5234375, 56.6463432, 54.8170738, 23.6585369, 0.0931563
-0.5761719, 0.6669922, -0.5385742, 57.1341476, 57.1951218, 24.5731716, 0.0916457
-0.5224609, 0.6435547, -0.5942383, 56.5243912, 62.5, 24.8170738, 0.0686503
-0.5126953, 0.6396484, -0.6118164, 55.5487823, 65.6707306, 24.5731716, 0.017792
-0.5380859, 0.6503906, -0.6274414, 53.4756126, 71.8902435, 23.0487804, -0.0092317
-0.5605469, 0.6669922, -0.6191406, 52.8658562, 74.3292694, 22.1951218, 0.0280308
-0.6210938, 0.7036133, -0.6181641, 52.5609779, 76.4634171, 21.0365868, 0.0387732
-0.6411133, 0.715332, -0.6333008, 53.0487823, 77.1341476, 21.1585369, 0.0407874
-0.6591797, 0.7094727, -0.7045898, 54.7560997, 78.7195129, 21.5853672, 0.0307164
-0.671875, 0.6845703, -0.7631836, 55.0609779, 79.9390259, 21.4024391, 0.0219883
