Application:, Trigno Discover (1.6.5)
Date/Time:, 12/02/2025 16:42:53
Collection Length (seconds):, 37.7595
wrist (81457), , , , , , bicep (81139)
sensor mode: 609, , , , , , sensor mode: 40
ACC X (G), ACC Y (G), ACC Z (G), GYRO X (deg/s), GYRO Y (deg/s), GYRO Z (deg/s), EMG 1 (mV)
370.3704 Hz, 370.3704 Hz, 370.3704 Hz, 370.3704 Hz, 370.3704 Hz, 370.3704 Hz, 2148.1481 Hz
0.9584961, -0.1875, -0.2290039, -27.4390259, -10.3048782, 6.0365853, -0.0130922
0.96875, -0.1826172, -0.2290039, -27.6219521, -9.8170738, 5.4878049, -0.0129244
0.9804688, -0.1826172, -0.2241211, -26.8292694, -9.5121956, 4.9390244, -0.0130922
0.9853516, -0.1801758, -0.2172852, -25.7926826, -8.6585369, 4.2682929, -0.0129244
0.9775391, -0.1762695, -0.2133789, -25.1219521, -8.2317076, 3.9634147, -0.0124208
0.972168, -0.1787109, -0.2114258, -24.9390259, -8.1707315, 4.1463413, -0.0149386
0.9702148, -0.1787109, -0.2045898, -25.060976, -8.780488, 4.1463413, -0.0162814
0.9736328, -0.1816406, -0.1958008, -25.1219521, -8.6585369, 4.2682929, -0.0164492
0.9692383, -0.175293, -0.190918, -24.2682934, -8.5975609, 4.1463413, -0.0223239
0.9746094, -0.1728516, -0.1918945, -23.5365868, -8.5365858, 4.0853658, -0.0250095
0.9648438, -0.168457, -0.2041016, -22.6829281, -8.6585369, 3.8414636, -0.0251774
0.965332, -0.1630859, -0.2109375, -22.560976, -8.5365858, 3.6585367, -0.0246738
0.9750977, -0.1542969, -0.2197266, -22.6219521, -8.2317076, 3.5365853, -0.0273594
0.9824219, -0.1577148, -0.2255859, -22.5, -8.1097565, 3.4146342, -0.0297093
0.9863281, -0.1533203, -0.2216797, -22.8658543, -8.0487804, 2.9268293, -0.0293736
0.9946289, -0.1542969, -0.2128906, -22.5, -7.2560978, 2.5609756, -0.03122
0.9907227, -0.159668, -0.2099609, -22.5, -7.2560978, 2.195122, -0.0352483
0.9790039, -0.1689453, -0.2124023, -22.6219521, -7.0731707, 2.6829269, -0.0386053
0.9692383, -0.1708984, -0.2119141, -22.3170738, -7.1951222, 3.1707318, -0.0431373
0.9624023, -0.1738281, -0.215332, -22.0731716, -7.4390244, 3.3536587, -0.0357519
0.9638672, -0.1733398, -0.215332, -21.4024391, -7.7439027, 3.2317073, -0.0370947
0.9726562, -0.1796875, -0.2148438, -21.0365868, -7.3780489, 2.2560976, -0.0381018
0.9731445, -0.1791992, -0.2138672, -20.8536587, -7.3170733, 1.9512196, -0.0424659
0.9731445, -0.1821289, -0.2050781, -19.8170738, -7.0121951, 1.5243902, -0.0421302
0.9770508, -0.1723633, -0.2016602, -19.6341476, -7.0731707, 1.4634147, -0.0414588
0.9790039, -0.1713867, -0.1972656, -19.4512196, -7.1341467, 1.2195122, -0.0394446
0.9726562, -0.1733398, -0.1865234, -19.2073174, -6.9512196, 0.6097561, -0.0344091
0.972168, -0.1743164, -0.1855469, -18.9634151, -7.3780489, 0.5487805, -0.0317235
0.9584961, -0.1733398, -0.190918, -18.0487804, -7.8658538, 0.9146342, -0.0287022
0.9589844, -0.171875, -0.1967773, -17.6219521, -8.1707315, 1.3414634, -0.0293736
0.9663086, -0.1699219, -0.2055664, -17.2560978, -7.9878049, 1.4634147, -0.0350805
0.9663086, -0.171875, -0.2094727, -17.439024, -7.8048782, 1.1585366, -0.0379339
0.9741211, -0.1772461, -0.2001953, -17.2560978, -7.8658538, 0.4878049, -0.0381018
0.9755859, -0.175293, -0.1953125, -16.8292694, -7.9268293, 0.3658537, -0.0344091
0.96875, -0.1816406, -0.2006836, -16.3414631, -8.1097565, 0.3048781, -0.0345769
0.9526367, -0.1757812, -0.2124023, -15.9756098, -8.2317076, 0.4268293, -0.0370947
0.9506836, -0.1674805, -0.2133789, -15.9146347, -8.2317076, 0.8536586, -0.0345769
0.9506836, -0.1474609, -0.2094727, -15.7317076, -8.3536587, 0.9146342, -0.0313878
0.9536133, -0.1357422, -0.2026367, -15.5487804, -8.4756098, 0.4268293, -0.0270237
0.9589844, -0.1166992, -0.1953125, -15.1219511, -7.8048782, -0.3658537, -0.0149386
0.9628906, -0.1162109, -0.2036133, -15.4878054, -8.1707315, -0.4268293, -0.0045319
0.9624023, -0.1240234, -0.2138672, -16.9512196, -9.0243902, -0.1219512, -0.0015106
0.965332, -0.1323242, -0.2158203, -17.8658543, -9.6341467, 0.4268293, 0.0031891
0.9643555, -0.1557617, -0.2099609, -19.1463413, -10.5487804, 1.1585366, 0.0018463
0.9663086, -0.1660156, -0.203125, -19.2073174, -10.9756098, 1.2804878, 0.0052033
0.9648438, -0.1674805, -0.1967773, -18.2926826, -10.7926836, 0.6097561, 0.0104067
0.9550781, -0.1665039, -0.1943359, -17.6829281, -10.9756098, 0.2439024, 0.0104067
0.9477539, -0.1645508, -0.1953125, -16.5853653, -10.7317076, -0.1829268, 0.012253
0.9516602, -0.1582031, -0.1928711, -16.0365849, -11.1585369, -0.3658537, 0.0112459
0.9477539, -0.1547852, -0.1899414, -15.4878054, -11.280488, -0.3048781, 0.0102388
0.9453125, -0.1523438, -0.1918945, -14.6951227, -11.8292685, -0.7317073, 0.0058747
0.9462891, -0.1518555, -0.1953125, -14.3292685, -11.8292685, -0.9756098, 0.0011749
0.9418945, -0.1606445, -0.2041016, -13.1707315, -12.9268293, -1.402439, 0.0011749
0.9379883, -0.1645508, -0.2099609, -12.8048782, -14.2073174, -1.2804878, 0.0001678
0.9365234, -0.1796875, -0.2026367, -11.280488, -15.7926836, -1.5853659, -0.0050355
0.9492188, -0.1992188, -0.175293, -10.3658543, -16.2195129, -2.0731707, -0.0082246
0.9511719, -0.2041016, -0.1674805, -8.9634151, -15.6707325, -2.8658538, -0.0052033
0.9482422, -0.2124023, -0.1704102, -8.780488, -15.4878054, -3.2317073, -0.0090639
0.9414062, -0.2119141, -0.1767578, -8.2317076, -15.3658543, -2.9878049, -0.012253
0.9462891, -0.2041016, -0.1767578, -7.8658538, -15.9756098, -2.7439024, -0.0129244
0.9536133, -0.1962891, -0.1674805, -7.2560978, -15.9756098, -2.2560976, -0.0082246
0.9638672, -0.1777344, -0.1708984, -6.0975609, -15.060976, -2.4390244, -0.0099031
0.9682617, -0.1616211, -0.1748047, -5.3658538, -14.5121956, -2.4390244, -0.0139315
0.965332, -0.1367188, -0.1894531, -5, -14.3292685, -2.6829269, -0.0130922
0.9619141, -0.1269531, -0.1972656, -5.3658538, -14.3902445, -2.6829269, -0.012253
0.9794922, -0.1210938, -0.1972656, -6.8292685, -14.5731707, -1.8292683, -0.0162814
0.9858398, -0.1157227, -0.1962891, -7.3170733, -14.6341467, -1.5853659, -0.0250095
0.9824219, -0.1210938, -0.2001953, -8.2926826, -13.841464, -0.9146342, -0.0317235
0.9736328, -0.121582, -0.2036133, -8.780488, -13.4146347, -0.4268293, -0.0297093
0.96875, -0.1176758, -0.2084961, -9.8170738, -13.0487804, 0.4268293, -0.0283665
0.9638672, -0.1118164, -0.2128906, -11.4024391, -12.7439032, 1.1585366, -0.0372625
0.9628906, -0.1123047, -0.2114258, -11.9512196, -12.9268293, 1.5243902, -0.04448
0.9628906, -0.1181641, -0.2084961, -13.1707315, -13.0487804, 1.6463414, -0.0436408
0.9682617, -0.1201172, -0.2060547, -13.2926836, -12.6219511, 1.4634147, -0.0360876
0.9663086, -0.1191406, -0.2036133, -13.2317076, -12.3170738, 1.5853659, -0.0345769
0.9667969, -0.1210938, -0.203125, -13.6585369, -12.5, 1.5853659, -0.0339055
0.9707031, -0.1357422, -0.2089844, -14.2682934, -11.9512196, 2.1341465, -0.0307164
0.9692383, -0.1523438, -0.2045898, -15, -12.0731707, 2.3780489, -0.0260166
0.9692383, -0.159668, -0.2050781, -15.9146347, -12.1341467, 3.1097562, -0.0224918
0.9726562, -0.171875, -0.2016602, -16.5853653, -11.9512196, 3.5975611, -0.0196384
0.9765625, -0.1787109, -0.1992188, -16.4024391, -12.1341467, 3.5975611, -0.0171206
0.9765625, -0.1738281, -0.1889648, -15.9756098, -11.6463413, 3.4756098, -0.0132601
0.9750977, -0.171875, -0.1865234, -15.4878054, -11.6463413, 3.0487804, -0.0115816
0.9731445, -0.1621094, -0.1918945, -14.8170738, -11.4634151, 2.8658538, -0.0095674
0.9765625, -0.1655273, -0.1918945, -14.8780489, -11.8292685, 2.7439024, -0.0062104
0.9775391, -0.1762695, -0.190918, -15.2439032, -12.1951218, 2.3170731, -0.0062104
0.9760742, -0.184082, -0.1884766, -15.6707325, -12.0121956, 2.5609756, -0.008896
0.9765625, -0.1958008, -0.1816406, -15.3048782, -11.5243902, 2.7439024, -0.0135958
0.9711914, -0.1953125, -0.1850586, -14.4512196, -11.5243902, 2.5, -0.0196384
0.9628906, -0.1938477, -0.1928711, -13.2926836, -10.9756098, 1.9512196, -0.0223239
0.9560547, -0.1967773, -0.2104492, -12.0121956, -11.0975609, 1.9512196, -0.0280308
0.9550781, -0.203125, -0.21875, -12.3780489, -10.9146347, 1.7682927, -0.0364233
0.9575195, -0.2124023, -0.2299805, -13.1707315, -10.9756098, 1.4634147, -0.04448
0.9604492, -0.2133789, -0.2216797, -13.5365858, -10.9756098, 1.2804878, -0.0461585
0.9658203, -0.2177734, -0.2163086, -13.5365858, -10.4268293, 0.9756098, -0.0458228
0.9584961, -0.2167969, -0.2114258, -12.9268293, -10, 0.8536586, -0.0421302
0.9633789, -0.2089844, -0.2128906, -12.8048782, -9.5121956, 0.3658537, -0.0414588
0.9663086, -0.2109375, -0.2207031, -12.560976, -9.6341467, 0.5487805, -0.0404517
0.9765625, -0.2011719, -0.2382812, -12.6829271, -9.4512196, 1.2804878, -0.0370947
0.9775391, -0.1787109, -0.2460938, -13.0487804, -9.4512196, 1.4634147, -0.0327306
0.9868164, -0.1616211, -0.2470703, -13.2926836, -9.1463413, 1.8292683, -0.0260166
1.003418, -0.1411133, -0.2558594, -13.2317076, -8.780488, 1.5243902, -0.01561
1.0117188, -0.1328125, -0.2641602, -13.5975609, -8.3536587, 1.2195122, -0.011078
1.015625, -0.1308594, -0.2675781, -15.7926836, -7.8658538, 1.4634147, -0.005539
1.012207, -0.1391602, -0.262207, -16.8292694, -7.9878049, 1.4634147, 0.0005035
1.0136719, -0.1591797, -0.2387695, -18.780489, -7.9878049, 2.3170731, 0.0078889
1.0097656, -0.171875, -0.2216797, -18.9634151, -8.2317076, 2.4390244, 0.0182956
0.9990234, -0.1967773, -0.2036133, -17.9878044, -7.8048782, 1.8292683, 0.0250095
0.9824219, -0.203125, -0.2119141, -17.2560978, -7.5609756, 1.7073171, 0.0276951
0.9619141, -0.2133789, -0.2363281, -16.8292694, -7.8658538, 2.5609756, 0.0330663
0.956543, -0.215332, -0.246582, -16.5853653, -8.3536587, 3.0487804, 0.033402
0.9643555, -0.2094727, -0.2412109, -16.4634151, -8.0487804, 3.5365853, 0.0359197
0.9775391, -0.2016602, -0.2304688, -15.5487804, -7.5, 2.195122, 0.0325628
0.9770508, -0.1914062, -0.2192383, -15.060976, -7.0121951, 1.5853659, 0.0236667
0.9770508, -0.1772461, -0.2084961, -14.2073174, -6.9512196, 1.2195122, 0.0169528
0.9790039, -0.1665039, -0.2070312, -13.7195129, -7.3170733, 1.2195122, 0.012253
0.9833984, -0.1533203, -0.206543, -13.5975609, -7.2560978, 1.1585366, 0.0072175
0.984375, -0.1425781, -0.2138672, -13.9024391, -7.5, 1.2195122, -0.0010071
0.9814453, -0.1401367, -0.2211914, -15.1829271, -7.9878049, 1.7073171, -0.0041962
0.9794922, -0.1479492, -0.2260742, -16.0365849, -8.2317076, 2.0731707, -0.0135958
0.9848633, -0.1669922, -0.2211914, -17.0731716, -8.9024391, 2.6829269, -0.0196384
0.9790039, -0.175293, -0.206543, -16.7682934, -8.719512, 2.9878049, -0.0243381
0.9736328, -0.1733398, -0.1962891, -16.0365849, -7.8658538, 2.3170731, -0.027863
0.965332, -0.1660156, -0.1904297, -14.4512196, -7.7439027, 1.6463414, -0.0352483
0.9589844, -0.1669922, -0.1933594, -14.0853662, -7.6829271, 1.7682927, -0.0384375
0.9648438, -0.1601562, -0.203125, -13.5365858, -8.0487804, 1.8902439, -0.0352483
0.9702148, -0.152832, -0.2094727, -13.6585369, -8.4756098, 2.5, -0.0325628
0.9770508, -0.137207, -0.2260742, -14.4512196, -8.841464, 3.4756098, -0.0327306
0.9853516, -0.1274414, -0.2265625, -14.5731707, -8.9024391, 3.4146342, -0.0354162
0.9960938, -0.1279297, -0.2216797, -14.8170738, -9.1463413, 3.2926829, -0.0372625
1.0009766, -0.1293945, -0.2246094, -14.9390249, -9.1463413, 3.2926829, -0.0384375
0.9912109, -0.1416016, -0.234375, -15.7926836, -8.5365858, 3.5365853, -0.036759
0.9819336, -0.1430664, -0.2397461, -16.5853653, -8.5975609, 3.7195122, -0.0364233
0.9780273, -0.1499023, -0.2363281, -17.8048782, -9.2073174, 4.390244, -0.0344091
0.980957, -0.1479492, -0.234375, -17.6829281, -9.3292685, 4.3292685, -0.0310521
0.9790039, -0.1494141, -0.2290039, -17.8658543, -9.0853662, 4.390244, -0.0293736
0.9829102, -0.1494141, -0.2075195, -17.8048782, -9.0243902, 4.0243902, -0.024506
0.9824219, -0.1416016, -0.2060547, -17.8658543, -9.0853662, 3.8414636, -0.0186313
0.972168, -0.140625, -0.203125, -18.2317085, -9.0243902, 3.5975611, -0.0162814
0.9633789, -0.1425781, -0.2045898, -18.4146347, -9.2682924, 3.7804878, -0.0203098
0.9462891, -0.1464844, -0.2041016, -18.9634151, -10.7317076, 4.5121951, -0.0176242
0.9433594, -0.1479492, -0.2026367, -19.3292694, -11.4634151, 4.9390244, -0.0129244
0.9443359, -0.1542969, -0.199707, -18.9634151, -11.8902445, 4.6341462, -0.0058747
0.9506836, -0.1645508, -0.1865234, -18.2926826, -12.2560978, 4.1463413, -0.0085603
0.9516602, -0.1660156, -0.1801758, -17.1951218, -12.4390249, 3.7804878, -0.0065461
0.9589844, -0.171875, -0.1674805, -16.3414631, -12.560976, 3.4756098, -0.0041962
0.9575195, -0.171875, -0.1713867, -16.4024391, -12.8048782, 3.7195122, -0.0028534
0.9477539, -0.1655273, -0.1767578, -17.0731716, -13.6585369, 4.390244, -0.0058747
0.9467773, -0.1650391, -0.1791992, -17.3780499, -14.5731707, 4.6341462, -0.0149386
0.9428711, -0.1757812, -0.1958008, -17.1341476, -16.3414631, 5.1219511, -0.0229953
0.9448242, -0.1743164, -0.199707, -16.8902435, -17.0731716, 5.4268293, -0.0276951
0.9545898, -0.1791992, -0.2026367, -15.6707325, -18.0487804, 5.4878049, -0.0350805
0.9589844, -0.1743164, -0.2006836, -14.8170738, -18.2926826, 5.7317076, -0.0411231
0.9604492, -0.1723633, -0.2001953, -14.0243902, -19.0853672, 5.2439027, -0.0525368
0.9575195, -0.171875, -0.1962891, -14.0853662, -19.1463413, 5.3658538, -0.0632792
0.9506836, -0.1708984, -0.1967773, -15.1219511, -20.7317085, 5.7926831, -0.064622
0.9448242, -0.1533203, -0.1933594, -15.3048782, -22.3780499, 7.0731707, -0.0659648
0.9438477, -0.1411133, -0.1972656, -15.6097565, -23.1707325, 7.5, -0.0636149
0.9467773, -0.1191406, -0.2158203, -15.5487804, -24.6341476, 8.0487804, -0.057908
0.9550781, -0.1108398, -0.222168, -15.4878054, -24.6951218, 8.1097565, -0.0498512
0.972168, -0.1025391, -0.2236328, -16.4634151, -25.1829281, 8.1097565, -0.0485084
0.9824219, -0.1118164, -0.2182617, -16.9512196, -25.3048782, 7.8658538, -0.0461585
0.9931641, -0.128418, -0.2011719, -18.7195129, -26.0975609, 8.1707315, -0.0347448
0.9907227, -0.1396484, -0.1972656, -19.2682934, -26.0975609, 8.3536587, -0.0229953
0.972168, -0.1494141, -0.2006836, -20.3048782, -26.7073174, 9.2682924, -0.0203098
0.9511719, -0.1435547, -0.2104492, -20.4268303, -27.1951218, 9.7560978, -0.0129244
0.9467773, -0.1435547, -0.2163086, -20.7926826, -28.1707325, 10.1219511, -0.0057069
0.953125, -0.1567383, -0.2324219, -21.1585369, -29.2073174, 10, -0.0028534
0.9560547, -0.1621094, -0.2402344, -21.280489, -29.2073174, 9.8780489, -0.0003357
0.9663086, -0.1733398, -0.2568359, -21.4024391, -29.0243912, 9.6951218, 0.002182
0.9736328, -0.1787109, -0.2602539, -21.4634151, -28.841465, 9.5121956, 0.0078889
0.980957, -0.1894531, -0.2646484, -20.9146347, -28.3536587, 9.0853662, 0.0112459
0.980957, -0.1958008, -0.2763672, -20.2439022, -28.2926826, 9.2073174, 0.0038605
0.9731445, -0.2080078, -0.3139648, -20.060976, -28.6585369, 8.841464, -0.0001678
0.9726562, -0.2128906, -0.3286133, -20.3658543, -28.841465, 9.0853662, -0.0023499
0.9736328, -0.2172852, -0.3310547, -21.2195129, -29.4512196, 9.3292685, -0.0058747
0.9682617, -0.2119141, -0.2944336, -21.2195129, -29.0853672, 8.9024391, -0.002182
0.9575195, -0.2016602, -0.2758789, -21.1585369, -27.8658543, 8.2317076, -0.0011749
0.9350586, -0.1831055, -0.2524414, -21.7073174, -27.0731716, 7.3780489, 0.0038605
0.9223633, -0.1796875, -0.2421875, -22.0731716, -27.5, 7.3780489, 0.0065461
0.9140625, -0.1728516, -0.2163086, -23.5365868, -28.9634151, 7.3170733, 0.0099031
0.9194336, -0.1669922, -0.2099609, -23.8414631, -29.5121956, 7.8048782, 0.0125887
0.9311523, -0.1645508, -0.2084961, -24.3902435, -30.5487804, 8.2926826, 0.0125887
0.9404297, -0.1665039, -0.2133789, -24.5121956, -31.2195129, 8.4146347, 0.0005035
0.9560547, -0.1791992, -0.230957, -25.4878063, -32.0121956, 8.5365858, -0.005539
0.956543, -0.1860352, -0.2436523, -25.9146347, -32.6829262, 8.9024391, -0.012253
0.956543, -0.1972656, -0.2709961, -26.0975609, -33.7804871, 10, -0.0260166
0.9584961, -0.2016602, -0.2900391, -26.3414631, -34.3292694, 10.3658543, -0.0344091
0.965332, -0.2011719, -0.2954102, -25.2439022, -34.6951218, 10.6707315, -0.0431373
0.9775391, -0.2099609, -0.2910156, -23.7195129, -33.7195129, 10.2439022, -0.0485084
0.9804688, -0.2089844, -0.2871094, -22.7439022, -33.1707306, 9.9390249, -0.0520333
0.980957, -0.1918945, -0.2910156, -21.6463413, -32.6219521, 10.1829271, -0.0522011
0.9838867, -0.1787109, -0.2954102, -21.4024391, -32.5609779, 10.1829271, -0.0458228
0.9960938, -0.1650391, -0.3061523, -21.4024391, -33.3536606, 10.4878054, -0.040116
0.9970703, -0.1635742, -0.3173828, -21.8292694, -33.2926826, 10.4878054, -0.0370947
1.0024414, -0.171875, -0.3325195, -22.7439022, -33.7195129, 11.280488, -0.0344091
0.9990234, -0.1723633, -0.340332, -22.6219521, -33.5975609, 11.5853662, -0.0310521
0.9980469, -0.1757812, -0.3457031, -22.5, -33.2317085, 12.1341467, -0.0276951
0.9907227, -0.1889648, -0.3378906, -22.5, -32.8658562, 12.1341467, -0.023331
0.9838867, -0.1962891, -0.3330078, -23.0487804, -31.8292694, 12.0121956, -0.018967
0.9702148, -0.2070312, -0.3227539, -23.5365868, -31.341465, 12.0731707, -0.0146029
0.9638672, -0.2133789, -0.3217773, -24.0853672, -31.341465, 12.3170738, -0.0109102
0.9594727, -0.21875, -0.3203125, -23.9634151, -31.4634151, 12.8658543, -0.012253
0.9648438, -0.2207031, -0.324707, -24.0243912, -31.5853672, 12.9268293, -0.0149386
0.972168, -0.215332, -0.3393555, -23.3536587, -31.1585369, 12.8048782, -0.0243381
0.9790039, -0.2114258, -0.3500977, -23.0487804, -31.0975609, 12.560976, -0.0203098
0.9936523, -0.2114258, -0.3793945, -23.2317085, -30.3658543, 12.4390249, -0.0226596
1.0004883, -0.2133789, -0.387207, -23.5365868, -30.2439022, 12.6829271, -0.0256809
0.9936523, -0.2211914, -0.3842773, -24.5121956, -29.7560978, 13.4146347, -0.024506
0.9907227, -0.2265625, -0.3686523, -24.8170738, -29.0853672, 13.5975609, -0.0276951
0.9863281, -0.2294922, -0.3540039, -25.2439022, -28.3536587, 13.1707315, -0.0229953
0.9702148, -0.2456055, -0.3325195, -24.8780499, -28.3536587, 12.1951218, -0.0193027
0.9594727, -0.2504883, -0.3291016, -24.6951218, -27.9268303, 11.9512196, -0.0203098
0.9326172, -0.2509766, -0.3535156, -24.5121956, -28.4146347, 11.5853662, -0.0162814
0.9335938, -0.2529297, -0.3637695, -24.5731716, -28.9634151, 12.1951218, -0.012253
0.9458008, -0.2553711, -0.3857422, -24.2073174, -30.1219521, 12.3170738, -0.0196384
0.9594727, -0.2612305, -0.3847656, -23.780489, -30.3048782, 12.1341467, -0.0229953
0.9790039, -0.2695312, -0.3535156, -22.8658543, -29.5121956, 11.5243902, -0.027863
0.9790039, -0.2666016, -0.3374023, -21.8292694, -29.0853672, 11.0975609, -0.0260166
0.9511719, -0.2387695, -0.3212891, -21.3414631, -28.780489, 10.9756098, -0.0263523
0.9140625, -0.2104492, -0.3208008, -21.7682934, -29.3292694, 10.9756098, -0.0323949
0.9057617, -0.1987305, -0.3276367, -23.5975609, -31.0975609, 11.5243902, -0.0290379
0.90625, -0.1850586, -0.3486328, -25.2439022, -33.3536606, 12.3780489, -0.026688
0.9145508, -0.1860352, -0.3642578, -25.9756107, -33.841465, 12.8658543, -0.0318914
0.9311523, -0.2041016, -0.3881836, -26.9512196, -35.1829262, 14.3902445, -0.0290379
0.9326172, -0.206543, -0.3896484, -27.560976, -36.0975609, 15.060976, -0.0297093
0.9541016, -0.2236328, -0.3730469, -28.841465, -36.5853653, 16.7682934, -0.0357519
0.9628906, -0.2382812, -0.3662109, -30.1219521, -35, 17.5, -0.0458228
0.9570312, -0.2626953, -0.3378906, -30.3048782, -34.1463432, 16.7073174, -0.054551
0.9272461, -0.2592773, -0.3095703, -29.5731716, -35.1219521, 15.3658543, -0.0626078
0.9033203, -0.2573242, -0.3105469, -26.9512196, -37.0731697, 14.5121956, -0.0706645
0.8793945, -0.2368164, -0.3496094, -26.3414631, -38.2926826, 14.9390249, -0.072343
0.8745117, -0.2285156, -0.3686523, -26.5243912, -40.6097565, 17.0731716, -0.0733501
0.909668, -0.2143555, -0.3828125, -27.3170738, -43.6585388, 17.8658543, -0.0706645
0.9301758, -0.2099609, -0.3803711, -27.560976, -44.3292694, 17.9878044, -0.0699931
0.9575195, -0.2119141, -0.3793945, -27.2560978, -44.0853653, 18.0487804, -0.0686503
0.9624023, -0.2128906, -0.3774414, -27.2560978, -44.0243912, 18.4756107, -0.0726787
0.9584961, -0.2060547, -0.3676758, -28.4756107, -44.9390259, 19.5731716, -0.0681468
0.9545898, -0.1992188, -0.3569336, -29.3292694, -45.6097565, 19.6341476, -0.0599222
0.9511719, -0.1987305, -0.3354492, -30.1219521, -47.5609779, 20.2439022, -0.0493477
0.9399414, -0.1865234, -0.3168945, -30.1829281, -48.2926826, 20.1829281, -0.0384375
0.9365234, -0.1875, -0.3178711, -30.7926846, -49.5731735, 20.3658543, -0.0256809
0.9331055, -0.1923828, -0.3330078, -30.6097565, -50, 20.3658543, -0.01561
0.9311523, -0.1967773, -0.3432617, -31.8902454, -51.7073174, 20.6707325, -0.0063783
0.9365234, -0.2163086, -0.359375, -32.4390259, -53.4756126, 21.5853672, -0.0001678
0.9462891, -0.2255859, -0.3647461, -32.1951218, -54.5121956, 21.7073174, 0.0115816
0.9570312, -0.237793, -0.3632812, -31.0365868, -55.5487823, 21.5853672, 0.0196384
0.9599609, -0.2426758, -0.3535156, -30.1829281, -55.9146347, 21.5243912, 0.024506
0.9555664, -0.2490234, -0.3305664, -29.5121956, -55.9756126, 20.9146347, 0.0276951
0.9433594, -0.2460938, -0.3276367, -29.0243912, -55.9756126, 20.7926826, 0.0337377
0.9277344, -0.2368164, -0.3476562, -29.6341476, -57.0731735, 21.0975609, 0.0374304
0.9072266, -0.2177734, -0.3881836, -29.8780499, -57.7439041, 21.4024391, 0.0364233
0.9130859, -0.206543, -0.421875, -30.7926846, -59.2682953, 22.1951218, 0.0307164
0.9365234, -0.1899414, -0.4853516, -32.5, -59.0243912, 23.4146347, 0.0283665
0.9550781, -0.1816406, -0.5004883, -33.4756088, -58.6585388, 23.9024391, 0.0246738
0.9785156, -0.1821289, -0.4931641, -34.6951218, -57.0121956, 24.1463413, 0.0199741
0.9907227, -0.1811523, -0.4794922, -34.6951218, -56.0975609, 23.8414631, 0.0119173
0.9907227, -0.1855469, -0.4555664, -36.0365868, -54.2073174, 23.780489, 0.0038605
0.9716797, -0.190918, -0.4462891, -36.8902435, -53.4756126, 24.1463413, 0.0015106
0.9326172, -0.1894531, -0.4301758, -39.5121956, -54.0853653, 24.9390259, -0.0035248
0.9223633, -0.1865234, -0.4257812, -40.6707344, -55, 25.4878063, -0.0142672
0.9121094, -0.1879883, -0.4389648, -41.9512215, -57.5, 26.0975609, -0.0216526
0.9345703, -0.1967773, -0.4560547, -42.4390259, -58.2926826, 26.7073174, -0.0260166
0.9477539, -0.2021484, -0.4584961, -42.6829262, -59.6341476, 27.1341476, -0.0337377
0.9682617, -0.2109375, -0.4555664, -43.1097565, -59.5121956, 27.8048782, -0.0386053
0.9746094, -0.2177734, -0.4526367, -43.1707344, -59.0243912, 27.7439022, -0.0424659
0.9697266, -0.2348633, -0.4521484, -44.2073174, -58.841465, 28.2317085, -0.0438087
0.9589844, -0.2470703, -0.4511719, -44.5731735, -59.2682953, 28.2317085, -0.047837
0.9370117, -0.2587891, -0.4433594, -44.7560997, -60.7317085, 29.0243912, -0.0464942
0.9248047, -0.2578125, -0.4414062, -44.3902435, -61.2804909, 29.3292694, -0.0441444
0.9179688, -0.2553711, -0.4443359, -43.1707344, -62.6219521, 29.6341476, -0.0397803
0.9121094, -0.25, -0.4536133, -42.5, -63.6585388, 29.2682934, -0.0392767
0.9150391, -0.2353516, -0.4824219, -42.5, -65.3658524, 29.6341476, -0.0370947
0.9257812, -0.2333984, -0.4985352, -43.2317085, -66.5853653, 29.6341476, -0.0404517
0.9272461, -0.2304688, -0.4995117, -44.6951218, -68.5975647, 30.1829281, -0.0448157
0.9453125, -0.2338867, -0.4902344, -45.6707344, -70.1219559, 30.4878063, -0.0505226
0.9516602, -0.2436523, -0.4794922, -45.5487823, -70.3658524, 30.3048782, -0.0458228
0.953125, -0.2734375, -0.4658203, -45.1829262, -71.2195129, 29.0853672, -0.0399481
0.9379883, -0.2905273, -0.4726562, -44.6951218, -71.7682953, 28.9634151, -0.0391089
0.8896484, -0.3232422, -0.4833984, -43.9024391, -73.0487823, 29.8170738, -0.0377661
0.8754883, -0.3330078, -0.487793, -42.6219521, -73.8414688, 30.6097565, -0.0357519
0.8535156, -0.3330078, -0.4882812, -40.7317085, -75.8536606, 30.9146347, -0.0313878
0.8486328, -0.3227539, -0.4804688, -38.9634171, -77.1951218, 30.6707325, -0.0313878
0.8530273, -0.2866211, -0.4804688, -35.8536606, -79.8170776, 29.6341476, -0.0303807
0.8769531, -0.2382812, -0.5073242, -34.8780479, -80.7926865, 29.5731716, -0.0250095
0.8979492, -0.2172852, -0.5166016, -34.0243912, -83.8414688, 29.6951218, -0.0216526
0.9414062, -0.1914062, -0.5317383, -35.2439041, -85.7317123, 30.2439022, -0.0203098
0.9536133, -0.1894531, -0.5361328, -36.2804871, -85.6707306, 30.3048782, -0.0186313
0.949707, -0.2045898, -0.5351562, -38.841465, -84.5731735, 30.9756107, -0.0196384
0.9389648, -0.2236328, -0.5273438, -39.9390259, -84.5121994, 31.280489, -0.018967
0.9101562, -0.2602539, -0.5097656, -40.1219521, -84.6951218, 31.8292694, -0.01561
0.8916016, -0.2744141, -0.5097656, -40.1219521, -85.4878082, 32.1341476, -0.0129244
0.8583984, -0.2900391, -0.5253906, -38.2926826, -87.0731735, 32.5609779, -0.0132601
0.8549805, -0.293457, -0.5429688, -37.4390259, -88.1097565, 32.6829262, -0.0132601
0.8657227, -0.2944336, -0.5771484, -35.6097565, -90.4268341, 32.3780479, -0.0203098
0.8891602, -0.2866211, -0.5996094, -34.7560997, -91.3414688, 32.3170738, -0.0260166
0.9091797, -0.2773438, -0.5996094, -33.7804871, -92.0121994, 32.4390259, -0.0293736
0.9326172, -0.2700195, -0.5893555, -33.9024391, -91.5243912, 32.6829262, -0.0236667
0.9370117, -0.2597656, -0.5805664, -33.6585388, -90.7317123, 32.9268303, -0.0219883
0.9101562, -0.2397461, -0.5776367, -34.2073174, -89.6341476, 33.7804871, -0.030045
0.8881836, -0.2304688, -0.5864258, -34.3902435, -89.6951218, 34.3292694, -0.0323949
0.8720703, -0.2084961, -0.605957, -36.2195129, -91.4634171, 35.4268303, -0.0270237
0.8759766, -0.2016602, -0.6098633, -36.7682953, -92.1341476, 35.3658562, -0.0256809
0.8964844, -0.2109375, -0.605957, -37.8658562, -93.2317123, 34.2073174, -0.0196384
0.8999023, -0.2226562, -0.605957, -38.4146347, -93.2317123, 34.2073174, -0.0109102
0.902832, -0.2583008, -0.6176758, -39.1463432, -92.3170776, 34.2682953, -0.0142672
0.890625, -0.2929688, -0.6196289, -39.3902435, -92.2561035, 34.8170738, -0.0157778
0.8881836, -0.3012695, -0.6157227, -39.4512215, -92.1951218, 35.6707344, -0.0137636
0.8681641, -0.3085938, -0.6098633, -38.6585388, -92.1341476, 35.9146347, -0.0166171
0.8603516, -0.3100586, -0.6069336, -38.4756088, -91.4634171, 36.2804871, -0.0117494
0.8500977, -0.3007812, -0.6088867, -37.8048782, -91.5853653, 36.2195129, -0.0095674
0.8481445, -0.2949219, -0.6171875, -37.0121956, -92.0121994, 36.2804871, -0.0109102
0.8510742, -0.2729492, -0.6381836, -36.2195129, -92.68293, 36.4634171, -0.0142672
0.8588867, -0.2666016, -0.6420898, -36.0365868, -93.1097565, 36.7073174, -0.012253
0.8808594, -0.2568359, -0.6450195, -36.0975609, -93.4146347, 36.7073174, -0.0176242
0.8828125, -0.2573242, -0.6416016, -35.9756088, -93.4146347, 36.7073174, -0.01561
0.8828125, -0.2597656, -0.6386719, -36.5853653, -92.8048782, 36.5243912, -0.012253
0.8657227, -0.262207, -0.6474609, -37.3170738, -92.68293, 36.8902435, -0.0142672
0.8510742, -0.2651367, -0.6542969, -38.2926826, -92.9878082, 37.6829262, -0.0142672
0.8378906, -0.262207, -0.6699219, -39.5121956, -93.7195129, 38.4756088, -0.0112459
0.8378906, -0.2675781, -0.6757812, -39.1463432, -94.6341476, 38.6585388, -0.0048676
0.8374023, -0.2705078, -0.7070312, -39.3902435, -95.3658524, 38.4756088, -0.0062104
0.8393555, -0.2709961, -0.7236328, -39.5121956, -95.6707306, 38.7195129, -0.0078889
0.8452148, -0.2836914, -0.7421875, -40.2439041, -95.2439041, 38.9634171, -0.008896
0.8535156, -0.2861328, -0.7460938, -40.4268303, -95.18293, 39.1463432, -0.008896
0.8623047, -0.3081055, -0.7509766, -41.1585388, -95.3048782, 38.7804871, -0.0075532
0.8623047, -0.3154297, -0.7490234, -41.341465, -95.1219559, 38.6585388, -0.0041962
0.8525391, -0.3310547, -0.7314453, -41.2195129, -95, 39.2682953, -0.0028534
0.8554688, -0.3354492, -0.7089844, -41.2195129, -94.9390259, 39.2073174, -0.0073854
0.8544922, -0.3344727, -0.6967773, -39.8170738, -95.5487823, 38.9024391, -0.0109102
0.8383789, -0.3339844, -0.7006836, -38.6585388, -95.9756088, 38.4146347, -0.0129244
0.8291016, -0.3354492, -0.7124023, -38.4756088, -96.4024429, 39.0853653, -0.0179599
0.8178711, -0.3383789, -0.7485352, -37.3170738, -97.9878082, 39.8780479, -0.018967
0.8173828, -0.3422852, -0.7734375, -36.2804871, -99.0853653, 40.2439041, -0.018967
0.8291016, -0.3408203, -0.8173828, -34.6951218, -101.0365906, 40.6097565, -0.0216526
0.8383789, -0.340332, -0.8261719, -33.841465, -101.8292694, 40.4268303, -0.0209812
0.8574219, -0.3442383, -0.8154297, -32.7439041, -102.2561035, 39.8170738, -0.018967
0.8603516, -0.3447266, -0.7915039, -32.1951218, -102.5, 39.5121956, -0.021149
0.8549805, -0.3378906, -0.7319336, -31.2195129, -102.0731735, 39.2073174, -0.0229953
0.8286133, -0.3291016, -0.7016602, -30.9146347, -102.1341476, 39.0853653, -0.0218204
0.809082, -0.324707, -0.7021484, -30.9756107, -103.1097565, 39.0243912, -0.0243381
0.7832031, -0.3256836, -0.734375, -31.7682934, -105.2439041, 40.1219521, -0.0240024
0.7719727, -0.3300781, -0.7509766, -32.0731697, -106.8902435, 40.6707344, -0.0260166
0.7783203, -0.3310547, -0.7768555, -31.1585369, -109.2682953, 41.5243912, -0.0251774
0.7900391, -0.3334961, -0.7827148, -30.7926846, -110.1219559, 41.4024391, -0.0271916
0.815918, -0.3383789, -0.7680664, -29.3292694, -110.9146347, 40.3048782, -0.0313878
0.8256836, -0.3408203, -0.7548828, -28.9634151, -110.6707306, 39.9390259, -0.0323949
0.8115234, -0.3388672, -0.7431641, -28.4146347, -110.0609818, 39.5731735, -0.0391089
0.796875, -0.3383789, -0.7529297, -28.780489, -110.18293, 40.2439041, -0.0357519
0.7680664, -0.3305664, -0.7861328, -29.6951218, -110.8536606, 40.8536606, -0.0350805
0.7495117, -0.3227539, -0.8110352, -29.7560978, -111.9512253, 40.9756088, -0.0325628
0.7514648, -0.3208008, -0.8227539, -29.3292694, -114.2073212, 40.7926826, -0.0327306
0.7680664, -0.3339844, -0.8325195, -29.0243912, -115.4878082, 39.8780479, -0.0323949
0.7753906, -0.3330078, -0.8432617, -28.9024391, -115.8536606, 39.7560997, -0.0297093
0.7929688, -0.331543, -0.8505859, -29.0243912, -116.0365906, 40.0609779, -0.0260166
0.8017578, -0.340332, -0.8461914, -29.5121956, -116.4024429, 40.0609779, -0.0199741
0.8125, -0.3549805, -0.8378906, -30.3048782, -116.8292694, 39.8780479, -0.0193027
0.8173828, -0.3642578, -0.8378906, -30.7317085, -116.8902435, 39.8780479, -0.0203098
0.8037109, -0.3842773, -0.8378906, -30.6707325, -117.5609818, 40.3048782, -0.018967
0.7973633, -0.3920898, -0.84375, -29.8780499, -117.8048782, 40.6707344, -0.0149386
0.7788086, -0.3950195, -0.8583984, -27.7439022, -118.4756088, 41.2804871, -0.0129244
0.7651367, -0.3935547, -0.8598633, -26.5853672, -118.5975647, 41.6463432, -0.0117494
0.7641602, -0.3862305, -0.8520508, -23.9024391, -119.3292694, 41.5853653, -0.0142672
0.7700195, -0.3828125, -0.8286133, -21.8902435, -119.0853653, 40.7926826, -0.0162814
0.7661133, -0.3818359, -0.8242188, -21.280489, -119.3292694, 40.9146347, -0.0203098
0.7524414, -0.3549805, -0.8222656, -20.4878044, -119.4512253, 41.2195129, -0.0196384
0.7495117, -0.3344727, -0.8320312, -20.6707325, -119.6951218, 41.5853653, -0.0270237
0.7402344, -0.3217773, -0.8647461, -21.0975609, -121.2804871, 42.3780479, -0.0263523
0.7407227, -0.3217773, -0.8779297, -21.2195129, -121.7682953, 42.7439041, -0.0276951
0.7397461, -0.3349609, -0.8945312, -21.4634151, -122.0731735, 43.7804871, -0.0273594
0.7397461, -0.3417969, -0.8955078, -21.5243912, -121.2804871, 43.9634171, -0.0270237
0.7426758, -0.3535156, -0.8803711, -21.280489, -120.6707382, 44.8780479, -0.0193027
0.7368164, -0.3613281, -0.8422852, -20.9756107, -120.6097565, 45.2439041, -0.0208133
0.730957, -0.3642578, -0.8208008, -20.4268303, -120, 45.4268303, -0.0250095
0.6894531, -0.3510742, -0.8115234, -20.3048782, -118.3536606, 46.341465, -0.0292058
0.6665039, -0.3398438, -0.824707, -20.1829281, -117.9268341, 46.7682953, -0.0273594
0.6328125, -0.3095703, -0.8652344, -20.3658543, -119.2682953, 48.5365868, -0.0229953
0.6274414, -0.2954102, -0.8896484, -20.6097565, -120.1219559, 49.2073174, -0.018967
0.6411133, -0.2924805, -0.9174805, -21.5853672, -122.0121994, 49.4512215, -0.0119173
0.6625977, -0.3051758, -0.921875, -22.6829281, -122.9268341, 49.5121956, -0.0115816
0.7104492, -0.3466797, -0.9086914, -24.0243912, -122.5, 49.8780518, -0.0075532
0.7216797, -0.3754883, -0.8901367, -24.1463413, -121.7073212, 50.3048782, -0.0083925
0.7197266, -0.4228516, -0.8574219, -23.6585369, -120.18293, 50.8536606, -0.0078889
0.6660156, -0.4272461, -0.8544922, -22.6219521, -118.9024429, 51.0975609, -0.0075532
0.6308594, -0.4145508, -0.8632812, -21.4634151, -117.9268341, 52.8658562, -0.0124208
0.5834961, -0.3686523, -0.8950195, -20.5487804, -118.7804871, 53.5365868, -0.0149386
0.5703125, -0.3413086, -0.9160156, -20.4878044, -119.7561035, 52.9268303, -0.0229953
0.5766602, -0.3164062, -0.9458008, -21.0975609, -122.3170776, 51.8292694, -0.0260166
0.5908203, -0.3237305, -0.9443359, -22.0731716, -122.5609818, 52.0731735, -0.0290379
0.6323242, -0.3476562, -0.9248047, -22.9878063, -121.7073212, 52.3780518, -0.0297093
0.6352539, -0.3652344, -0.9208984, -23.2926826, -120.9146347, 52.9268303, -0.0261845
0.6279297, -0.4082031, -0.9443359, -23.6585369, -119.9390259, 54.6341476, -0.0283665
0.6132812, -0.4306641, -0.9672852, -23.2926826, -119.8780518, 55.7317085, -0.026688
0.6000977, -0.4667969, -1.0058594, -21.4024391, -120.8536606, 57.1951218, -0.0229953
0.609375, -0.4882812, -1.0053711, -19.6951218, -121.9512253, 57.68293, -0.0117494
0.6157227, -0.4892578, -0.9916992, -16.7073174, -122.4390259, 56.7073174, -0.008896
0.6132812, -0.465332, -0.9667969, -13.841464, -120.6707382, 54.9390259, -0.0109102
0.6005859, -0.4482422, -0.9536133, -13.2317076, -119.2073212, 54.5731735, -0.0072175
0.5698242, -0.4052734, -0.9521484, -13.2317076, -118.0487823, 53.7195129, 0.0005035
0.5595703, -0.3852539, -0.9560547, -13.6585369, -118.4146347, 53.4146347, 0.008896
0.5341797, -0.3696289, -0.9697266, -15.4268293, -120.1219559, 53.1097565, 0.0125887
0.5297852, -0.3735352, -0.9804688, -16.0975609, -120.9756088, 53.5975609, 0.0119173
0.5395508, -0.4067383, -0.987793, -17.0121956, -123.0487823, 54.7560997, 0.0099031
0.5561523, -0.4262695, -0.9785156, -17.1951218, -124.0243912, 55.3658562, 0.008896
0.5893555, -0.4526367, -0.9443359, -16.2195129, -123.7804871, 54.8170738, 0.0078889
0.5952148, -0.4736328, -0.9042969, -15.4878054, -124.0243912, 54.7560997, -0.0030213
0.581543, -0.4775391, -0.8911133, -14.5121956, -123.1097565, 54.5731735, -0.0095674
0.5463867, -0.4746094, -0.8930664, -12.8048782, -122.8048782, 54.6951218, -0.0162814
0.5239258, -0.4672852, -0.90625, -12.1341467, -122.9878082, 54.5121956, -0.026688
0.4956055, -0.4638672, -0.9545898, -10.7317076, -125.36586, 54.3902435, -0.0344091
0.4912109, -0.472168, -0.9790039, -9.6951218, -126.5853653, 54.2073174, -0.0394446
0.5068359, -0.4863281, -1.0170898, -7.8658538, -128.5365906, 54.0243912, -0.0392767
0.5146484, -0.4887695, -1.0317383, -7.0121951, -129.0853729, 54.2073174, -0.0431373
0.5371094, -0.4765625, -1.0581055, -4.9390244, -129.6341553, 54.4512215, -0.04448
0.5595703, -0.4521484, -1.0776367, -4.3292685, -129.6951294, 54.5731735, -0.0426337
0.5664062, -0.4379883, -1.0800781, -3.3536587, -130.0609741, 53.9634171, -0.0485084
0.5795898, -0.4272461, -1.0541992, -3.2926829, -129.7561035, 53.841465, -0.051194
0.5810547, -0.4228516, -1.0458984, -4.0243902, -129.0853729, 53.0487823, -0.0501869
0.5522461, -0.4272461, -1.027832, -4.5731707, -127.68293, 52.9268303, -0.0481727
0.5380859, -0.4345703, -1.0307617, -5.0609756, -127.0121994, 53.0487823, -0.0438087
0.5126953, -0.4545898, -1.043457, -4.390244, -127.5609818, 53.9024391, -0.0391089
0.5039062, -0.4619141, -1.046875, -3.0487804, -128.3536682, 54.0853653, -0.0317235
0.5014648, -0.484375, -1.0458984, -1.3414634, -130.0609741, 54.2682953, -0.0243381
0.5097656, -0.4902344, -1.0424805, -0.2439024, -130.5487823, 54.0853653, -0.0226596
0.5175781, -0.4858398, -1.0317383, 2.2560976, -129.5121918, 53.9024391, -0.0137636
0.4970703, -0.4404297, -1.0336914, 3.1097562, -129.3902435, 53.9634171, -0.012253
0.4873047, -0.4086914, -1.0419922, 3.1707318, -129.3292694, 53.7804909, -0.0125887
0.4770508, -0.3759766, -1.0756836, 2.0121951, -128.5365906, 53.7195129, -0.0135958
0.4726562, -0.3759766, -1.0917969, -1.9512196, -128.3536682, 53.2317085, -0.0135958
0.480957, -0.4072266, -1.0751953, -5.3658538, -129.5121918, 53.9024391, -0.0193027
0.4912109, -0.4277344, -1.0424805, -5.8536587, -129.8780518, 53.9634171, -0.0372625
0.4931641, -0.4350586, -0.9863281, -5.1829271, -128.9634247, 53.9024391, -0.0621042
0.4760742, -0.4223633, -0.9838867, -4.9390244, -127.9878082, 54.0243912, -0.0733501
0.4033203, -0.387207, -1.0131836, -6.3414636, -126.5853653, 54.2682953, -0.0767071
0.3735352, -0.375, -1.0268555, -7.6219516, -127.0731735, 54.8780518, -0.0798962
0.3535156, -0.3588867, -1.046875, -10.8536587, -130.7926788, 55.2439041, -0.0746929
0.3828125, -0.3769531, -1.0395508, -11.4634151, -132.6829224, 55.1219521, -0.0652934
0.3979492, -0.3925781, -1.0405273, -13.1707315, -135.4268341, 53.9024391, -0.0572366
0.418457, -0.4316406, -1.0449219, -13.4146347, -135.4268341, 54.6951218, -0.0488441
0.4272461, -0.4550781, -1.0439453, -13.2926836, -135.2439117, 54.8170738, -0.0374304
0.4360352, -0.4921875, -1.0327148, -12.1341467, -134.7561035, 56.2804909, -0.0236667
0.4301758, -0.4897461, -1.0249023, -10.8536587, -134.146347, 56.2195129, -0.0159457
0.3930664, -0.4799805, -1.0302734, -9.0243902, -132.5, 55.3658562, -0.008896
0.3706055, -0.4746094, -1.0463867, -8.3536587, -132.2561035, 54.8780518, -0.005539
0.3369141, -0.4819336, -1.0683594, -7.8658538, -133.5365906, 54.6341476, -0.002182
0.3393555, -0.4956055, -1.0625, -7.2560978, -134.7561035, 54.6951218, -0.0011749
0.3701172, -0.5014648, -1.0258789, -5.3658538, -136.0975647, 53.4146347, -0.0020142
0.3710938, -0.4770508, -1.0126953, -3.9024391, -135.9146423, 52.6829262, -0.0045319
0.3588867, -0.456543, -1.0209961, -1.7682927, -135.1829224, 52.3170738, -0.0052033
0.3261719, -0.4101562, -1.0454102, -0.6707317, -134.3902435, 52.8048782, 0.0018463
0.3125, -0.3930664, -1.0541992, -0.8536586, -134.6951294, 53.0487823, 0.0028534
0.300293, -0.3662109, -1.0864258, -2.6219513, -136.7073212, 54.0243912, 0.0001678
0.2910156, -0.3496094, -1.1083984, -3.9024391, -137.5609741, 54.2682953, -0.0003357
0.2841797, -0.3354492, -1.144043, -6.280488, -138.2317047, 55.5487823, 0.0003357
0.2988281, -0.3349609, -1.1416016, -7.8658538, -138.1707306, 56.0975609, 0.0011749
0.3271484, -0.3569336, -1.1079102, -9.9390249, -139.0853729, 57.5, 0.0015106
0.3383789, -0.3691406, -1.0947266, -10.3048782, -139.146347, 57.68293, -0.002182
0.3393555, -0.3969727, -1.0830078, -11.0975609, -137.4390259, 58.7195129, -0.0082246
0.3149414, -0.4262695, -1.0874023, -11.4634151, -136.2195129, 59.5121956, -0.0105745
0.296875, -0.4321289, -1.0805664, -11.8292685, -134.4512177, 61.4634171, -0.0119173
0.2680664, -0.4262695, -1.0703125, -10.3658543, -135.0609741, 62.3170738, -0.0109102
0.2519531, -0.4135742, -1.081543, -9.6341467, -135.3048859, 61.7682953, -0.0099031
0.2207031, -0.4047852, -1.1542969, -10.5487804, -136.5853729, 61.341465, -0.0115816
0.2236328, -0.4169922, -1.1899414, -11.7682934, -137.1341553, 61.9512215, -0.0154421
0.2592773, -0.465332, -1.1816406, -13.9634151, -139.4512177, 64.2682953, -0.0176242
0.2885742, -0.4833984, -1.144043, -13.9634151, -140.1829376, 64.3292694, -0.018967
0.3339844, -0.4643555, -1.046875, -11.219512, -138.7804871, 62.3780518, -0.021149
0.3261719, -0.4462891, -1.0136719, -9.8170738, -136.7073212, 60.8536606, -0.0250095
0.2641602, -0.4291992, -0.9980469, -9.3902445, -134.0853729, 59.6951218, -0.0236667
0.1982422, -0.456543, -1.0244141, -9.3902445, -134.146347, 60.1219521, -0.0250095
0.1767578, -0.4731445, -1.0375977, -9.8780489, -135.9756165, 61.1585388, -0.0290379
0.1547852, -0.496582, -1.0546875, -7.7439027, -139.2682953, 61.6463432, -0.0263523
0.1484375, -0.4936523, -1.0576172, -6.0975609, -140.4878082, 61.0975609, -0.0310521
0.1484375, -0.4599609, -1.0629883, -2.804878, -142.0121918, 60.1219521, -0.0404517
0.1489258, -0.4335938, -1.0610352, -1.5853659, -142.86586, 59.8780518, -0.04448
0.1704102, -0.390625, -1.0683594, -1.5853659, -144.3292694, 58.7804909, -0.0463264
0.1806641, -0.3857422, -1.0703125, -2.195122, -144.8170776, 58.6585388, -0.0458228
0.1972656, -0.4067383, -1.0698242, -4.6951222, -145.3048859, 59.0853691, -0.0419623
0.1962891, -0.4199219, -1.0717773, -5.3658538, -145.1829376, 59.5121956, -0.0407874
0.1665039, -0.4365234, -1.0791016, -5.3658538, -144.146347, 61.5853691, -0.0370947
0.1308594, -0.4350586, -1.1030273, -5, -143.8414612, 62.5609779, -0.0310521
0.1196289, -0.4262695, -1.125, -4.1463413, -143.7804871, 63.4146347, -0.0313878
0.109375, -0.4101562, -1.1577148, -4.0243902, -145.2439117, 64.0853653, -0.0327306
0.1157227, -0.409668, -1.1601562, -4.8170733, -145.9756165, 64.3902435, -0.0327306
0.1469727, -0.4174805, -1.1333008, -4.7560978, -146.646347, 64.7560959, -0.0357519
0.1665039, -0.4208984, -1.1020508, -5, -146.0365906, 64.5731735, -0.0357519
0.168457, -0.4165039, -1.0698242, -4.4512196, -143.4756165, 63.6585388, -0.0352483
0.144043, -0.4130859, -1.0722656, -4.4512196, -141.8902435, 63.9634171, -0.0377661
0.0996094, -0.4150391, -1.0913086, -4.9390244, -140.9146423, 65.7926865, -0.0364233
0.0825195, -0.4204102, -1.0986328, -4.9390244, -141.7073212, 66.6463394, -0.0344091
0.0688477, -0.4257812, -1.1118164, -5.1829271, -143.5975647, 67.5609741, -0.0320592
0.0766602, -0.4306641, -1.1171875, -4.5121951, -144.2073212, 67.2560959, -0.0323949
0.0776367, -0.4277344, -1.1132812, -4.390244, -144.3292694, 66.7682953, -0.0310521
0.0913086, -0.4169922, -1.1074219, -5.1219511, -144.9390259, 66.5243912, -0.0290379
0.0913086, -0.409668, -1.1030273, -5.7926831, -145.1219482, 66.4634171, -0.0354162
0.0810547, -0.4072266, -1.1064453, -7.4390244, -144.6341553, 66.6463394, -0.0350805
0.0678711, -0.4008789, -1.1015625, -8.4146347, -144.0243988, 66.7073212, -0.0344091
0.0380859, -0.3789062, -1.0961914, -10.8536587, -142.8048859, 66.9512177, -0.0330663
0.0249023, -0.3637695, -1.0922852, -11.7682934, -142.7439117, 66.7073212, -0.0293736
0.0131836, -0.3686523, -1.0771484, -15.2439032, -143.5365906, 66.5853653, -0.0273594
0.0058594, -0.375, -1.0522461, -16.4024391, -143.9634247, 66.2195129, -0.0223239
0.0083008, -0.3935547, -1.0009766, -18.6585369, -144.3902435, 66.2804871, -0.0193027
-0.003418, -0.4213867, -0.9750977, -19.0243912, -144.2682953, 66.2804871, -0.0203098
-0.0151367, -0.4453125, -0.9711914, -19.0853672, -143.8414612, 65.9146347, -0.018967
-0.0517578, -0.4941406, -0.9985352, -18.2317085, -144.6341553, 66.4634171, -0.01561
-0.0673828, -0.5131836, -1.0297852, -16.9512196, -146.1585388, 67.0121994, -0.0149386
-0.0791016, -0.5375977, -1.1035156, -12.9878054, -149.3292694, 68.7804871, -0.0142672
-0.0649414, -0.5307617, -1.1206055, -10.8536587, -151.0365906, 69.5121994, -0.0169528
-0.0239258, -0.484375, -1.0888672, -6.2195125, -151.7073212, 67.9878082, -0.0172885
-0.0004883, -0.4516602, -1.0615234, -5, -150.9146423, 66.0365906, -0.0162814
-0.003418, -0.3857422, -1.0429688, -5.3658538, -147.6829376, 63.1097565, -0.0176242
-0.0209961, -0.375, -1.0488281, -7.1341467, -146.3414612, 62.5609779, -0.0256809
-0.0493164, -0.3945312, -1.0834961, -10.9756098, -146.8902435, 64.2682953, -0.0246738
-0.0478516, -0.4282227, -1.0864258, -12.0121956, -147.9268341, 65.2439041, -0.0203098
-0.0375977, -0.4423828, -1.0727539, -11.280488, -149.7561035, 65.6707306, -0.0216526
-0.0317383, -0.4311523, -1.0581055, -10.1219511, -148.0487823, 64.0853653, -0.018967
-0.050293, -0.4150391, -1.0810547, -10.4268293, -146.3414612, 63.5975609, -0.0176242
-0.0961914, -0.3959961, -1.1289062, -12.6219511, -143.5975647, 64.2073212, -0.024506
-0.0986328, -0.4038086, -1.1347656, -14.1463413, -143.6585388, 65.3048782, -0.0310521
-0.0698242, -0.4287109, -1.1079102, -15.9756098, -144.7561035, 65.9756088, -0.0323949
-0.0634766, -0.434082, -1.09375, -16.3414631, -144.2073212, 66.0975647, -0.0323949
-0.0678711, -0.4243164, -1.0751953, -15.9756098, -141.4634247, 65.5487823, -0.0318914
-0.0751953, -0.40625, -1.0708008, -16.5853653, -140.1219482, 65.18293, -0.0325628
-0.0878906, -0.3696289, -1.0649414, -17.9268303, -140.1219482, 64.7560959, -0.030045
-0.0864258, -0.3637695, -1.0649414, -19.1463413, -141.0975647, 64.0853653, -0.0280308
-0.0839844, -0.3696289, -1.0732422, -22.2560978, -143.0487823, 63.1707344, -0.0253452
-0.0869141, -0.3994141, -1.09375, -24.5731716, -142.3780518, 63.1097565, -0.0229953
-0.0888672, -0.4169922, -1.1030273, -25.1829281, -141.5243988, 63.1707344, -0.0186313
-0.1015625, -0.4418945, -1.081543, -25.2439022, -139.5731812, 63.841465, -0.0193027
-0.1083984, -0.4365234, -1.050293, -25.1219521, -138.3536682, 63.4146347, -0.0193027
-0.1147461, -0.3969727, -0.9628906, -24.6341476, -136.5853729, 60.7926826, -0.018967
-0.1210938, -0.3774414, -0.918457, -25.060976, -135.8536682, 59.0243912, -0.0142672
-0.1660156, -0.3666992, -0.8334961, -27.3170738, -135.3048859, 56.2804909, -0.0176242
-0.1953125, -0.3730469, -0.793457, -28.2926826, -135.36586, 55.4878044, -0.0231632
-0.2548828, -0.3867188, -0.7504883, -29.3902454, -136.8292694, 55.0609779, -0.0243381
-0.3232422, -0.4121094, -0.7851562, -29.3292694, -137.9268341, 54.5121956, -0.0297093
-0.3515625, -0.4301758, -0.8164062, -28.1707325, -140.7317047, 55.5487823, -0.0448157
-0.3569336, -0.4643555, -0.8579102, -24.6341476, -144.5731812, 57.8048782, -0.0532082
-0.3374023, -0.4697266, -0.8618164, -22.2560978, -145.6707306, 58.9024391, -0.0632792
-0.2915039, -0.4301758, -0.887207, -17.0121956, -145.36586, 58.7195129, -0.0708324
-0.2705078, -0.3886719, -0.9116211, -15.4268293, -144.0243988, 57.9878044, -0.0753643
-0.2412109, -0.3217773, -0.9545898, -15.8536587, -142.5, 57.0121956, -0.0740215
-0.2280273, -0.293457, -0.9760742, -17.6219521, -142.3170776, 56.4024391, -0.0706645
-0.2075195, -0.2729492, -0.9980469, -23.3536587, -142.1951294, 55.9146347, -0.0649577
-0.1933594, -0.2724609, -1.0097656, -26.5853672, -141.7073212, 55.7926826, -0.0565652
-0.1796875, -0.3007812, -1.0029297, -31.0975609, -140.4878082, 56.6463432, -0.0451514
-0.1669922, -0.3476562, -0.9604492, -32.3170738, -139.3902435, 56.8902435, -0.036759
-0.1655273, -0.3710938, -0.9350586, -32.1341476, -135.7317047, 57.3170738, -0.0224918
-0.1958008, -0.3920898, -0.8989258, -30.4878063, -130.9146423, 57.8048782, -0.0109102
-0.2226562, -0.3881836, -0.8964844, -29.5121956, -128.2317047, 57.9268303, -0.0041962
-0.2924805, -0.3608398, -0.9082031, -27.9268303, -124.2682953, 58.2926826, 0.0035248
-0.3212891, -0.3334961, -0.8984375, -27.8048782, -123.5365906, 58.0487823, 0.0112459
-0.3325195, -0.2880859, -0.8295898, -28.6585369, -123.9634171, 55.4878044, 0.0172885
-0.3271484, -0.277832, -0.7807617, -29.4512196, -124.8780518, 53.3536606, 0.0213169
-0.3388672, -0.2470703, -0.7441406, -33.6585388, -126.3414688, 50.1219521, 0.0293736
-0.3657227, -0.2397461, -0.7602539, -36.6463432, -126.2195129, 49.7560997, 0.0391089
-0.4086914, -0.2490234, -0.8261719, -43.2926826, -126.4634171, 52.1951218, 0.0407874
-0.3955078, -0.2836914, -0.859375, -45.0609779, -126.9512253, 54.0853653, 0.0451514
-0.378418, -0.2958984, -0.8510742, -45.6097565, -128.5975647, 55.4268303, 0.0562295
-0.3291016, -0.3100586, -0.8120117, -44.0853653, -128.1097565, 53.5975609, 0.0580758
-0.3149414, -0.3183594, -0.7807617, -43.5365868, -127.0121994, 52.5609779, 0.0575723
-0.3139648, -0.3222656, -0.7280273, -43.9634171, -124.146347, 51.7073174, 0.0560616
-0.3251953, -0.3178711, -0.7026367, -44.7560997, -123.2926865, 51.6463432, 0.0475013
-0.3657227, -0.3007812, -0.6547852, -44.8780479, -123.5365906, 51.2195129, 0.0357519
-0.3984375, -0.3022461, -0.6557617, -44.7560997, -124.3902435, 51.4634171, 0.026688
-0.453125, -0.3178711, -0.6962891, -42.5609779, -127.3780518, 52.1341476, 0.0164492
-0.4711914, -0.3447266, -0.722168, -40.7926826, -128.7804871, 52.7439041, 0.0099031
-0.4589844, -0.3891602, -0.7543945, -37.2560997, -130.1829224, 55.1219521, 0.0031891
-0.4257812, -0.3666992, -0.7929688, -35.1219521, -130.2439117, 55.4878044, -0.0015106
-0.4125977, -0.3359375, -0.8076172, -32.3780479, -128.4146423, 53.9634171, -0.0028534
-0.371582, -0.2773438, -0.7954102, -32.1951218, -126.1585388, 50.8536606, -0.0092317
-0.3598633, -0.2573242, -0.7753906, -33.0487823, -125.7926865, 49.4512215, -0.0102388
-0.3520508, -0.2338867, -0.7661133, -36.341465, -124.8780518, 47.8658562, -0.0095674
-0.3554688, -0.2373047, -0.7763672, -38.4146347, -124.5121994, 48.2317085, -0.0115816
-0.3647461, -0.2480469, -0.8198242, -42.3780479, -123.4146347, 50.5487823, -0.0162814
-0.3740234, -0.2558594, -0.8305664, -43.6585388, -122.2561035, 51.6463432, -0.018967
-0.3735352, -0.2641602, -0.8154297, -44.9390259, -119.3902435, 52.8048782, -0.0182956
-0.3647461, -0.2578125, -0.7978516, -44.8170738, -117.8048782, 52.4390259, -0.0149386
-0.3740234, -0.2338867, -0.7783203, -45.5487823, -114.146347, 50.9146347, -0.01561
-0.3945312, -0.2255859, -0.8242188, -46.9512215, -112.5609818, 50.6097565, -0.0139315
-0.4038086, -0.2338867, -0.8666992, -50.4268303, -111.0365906, 51.7073174, -0.0176242
-0.3862305, -0.2675781, -0.9477539, -53.9634171, -111.0975647, 53.1097565, -0.0229953
-0.359375, -0.2949219, -0.9628906, -55.1219521, -111.1585388, 53.4146347, -0.0263523
-0.2822266, -0.3305664, -0.8881836, -54.2682953, -109.0243912, 52.0121956, -0.0297093
-0.2568359, -0.3339844, -0.8271484, -53.2317085, -106.8292694, 50.3658562, -0.0292058
-0.2631836, -0.3144531, -0.7016602, -51.5853653, -102.5, 46.9512215, -0.0305486
-0.3007812, -0.2919922, -0.6616211, -51.8292694, -100.4268341, 45.7926826, -0.0303807
-0.4101562, -0.2661133, -0.5976562, -54.2682953, -98.4756088, 45.4268303, -0.0330663
-0.4560547, -0.2631836, -0.5737305, -55.4878044, -98.6585388, 46.1585388, -0.0350805
-0.5317383, -0.2700195, -0.5727539, -55, -100.8536606, 46.9512215, -0.0357519
-0.5844727, -0.2773438, -0.6557617, -53.9634171, -101.7073212, 47.2560997, -0.0441444
-0.5854492, -0.2817383, -0.6894531, -51.8292694, -102.9268341, 47.3780518, -0.0481727
-0.53125, -0.2749023, -0.6757812, -48.841465, -104.0243912, 46.2195129, -0.0527047
-0.4873047, -0.2705078, -0.6342773, -46.8902435, -104.0853653, 43.9634171, -0.054551
-0.421875, -0.2529297, -0.5732422, -44.5121956, -103.2926865, 38.4756088, -0.0582437
-0.4199219, -0.2587891, -0.5825195, -45, -103.1097565, 36.4024391, -0.0552224
-0.4506836, -0.284668, -0.628418, -47.6219521, -103.4146347, 37.5, -0.0574044
-0.4609375, -0.3076172, -0.6450195, -47.5, -103.5975647, 39.3902435, -0.0540475
-0.4711914, -0.3061523, -0.6347656, -43.4756126, -103.3536606, 41.9512215, -0.0516976
-0.4858398, -0.2446289, -0.6376953, -40.1829262, -101.9512253, 41.4634171, -0.04448
-0.5083008, -0.2080078, -0.6606445, -35.6097565, -98.0487823, 39.2073174, -0.0364233
-0.5302734, -0.1630859, -0.7109375, -35.2439041, -97.4390259, 39.0243912, -0.0337377
-0.5126953, -0.1630859, -0.7250977, -37.7439041, -98.4756088, 40.5487823, -0.0283665
-0.4545898, -0.1821289, -0.7133789, -40.3048782, -99.8170776, 41.341465, -0.0236667
-0.4189453, -0.1962891, -0.6967773, -41.0365868, -99.3902435, 41.4024391, -0.0246738
-0.3955078, -0.2148438, -0.6889648, -40.7317085, -96.4024429, 40.6097565, -0.0176242
-0.4047852, -0.21875, -0.6962891, -40.0609779, -94.0853653, 40.3048782, -0.0142672
-0.4365234, -0.1962891, -0.690918, -40.6707344, -90.3658524, 40.9756088, -0.0075532
-0.4511719, -0.1899414, -0.6738281, -40.9146347, -89.3292694, 41.0975609, 0.0006714
-0.4814453, -0.1689453, -0.6230469, -41.5853653, -87.0731735, 39.5731735, 0.0052033
-0.5175781, -0.1445312, -0.621582, -42.2560997, -86.3414688, 39.0853653, 0.0065461
-0.5361328, -0.1513672, -0.6376953, -44.3292694, -85.7926865, 38.9634171, 0.008896
-0.5371094, -0.1748047, -0.6943359, -45.4878044, -85.7317123, 39.6341476, 0.0146029
-0.5214844, -0.1870117, -0.7324219, -46.7073174, -84.5731735, 41.0975609, 0.0152743
-0.5009766, -0.1889648, -0.777832, -47.8048782, -80.9756088, 41.2804871, 0.0115816
-0.4882812, -0.184082, -0.7641602, -47.7439041, -78.9024429, 40.5487823, 0.0072175
-0.4506836, -0.1757812, -0.6445312, -48.5365868, -74.7560959, 37.7439041, 0.0058747
-0.4516602, -0.190918, -0.5800781, -49.3902435, -73.6585388, 35.7317085, 0.0025177
-0.4941406, -0.2192383, -0.4775391, -50.9146347, -72.3780518, 32.9878044, -0.0001678
-0.5327148, -0.2304688, -0.4584961, -51.5243912, -72.3170776, 33.4756088, -0.0041962
-0.6157227, -0.2294922, -0.487793, -51.7073174, -73.1097565, 35.1829262, -0.0085603
-0.6586914, -0.2197266, -0.5244141, -51.4024391, -74.1463394, 36.0365868, -0.0182956
-0.6533203, -0.2163086, -0.5136719, -48.2317085, -76.0365906, 37.1951218, -0.0283665
-0.6157227, -0.1948242, -0.4384766, -43.1707344, -75.5487823, 35.3048782, -0.0323949
-0.5996094, -0.1801758, -0.3974609, -40.7926826, -74.3292694, 32.6829262, -0.0347448
-0.6020508, -0.1552734, -0.3544922, -40, -73.0487823, 27.6829281, -0.0337377
-0.6137695, -0.1538086, -0.3510742, -41.1585388, -73.2317123, 26.0365868, -0.0377661
-0.6450195, -0.1870117, -0.3530273, -43.841465, -75.6707306, 25, -0.0438087
-0.6494141, -0.2094727, -0.3701172, -43.7804871, -77.3170776, 24.7560978, -0.047837
-0.6533203, -0.2299805, -0.4355469, -40.7317085, -76.5243912, 24.2682934, -0.0538796
-0.6508789, -0.2324219, -0.4863281, -38.2317085, -75.6097565, 24.0243912, -0.0587472
-0.6220703, -0.2314453, -0.5712891, -32.2560997, -73.0487823, 24.2073174, -0.0629435
-0.5703125, -0.2128906, -0.590332, -29.4512196, -70.9146347, 23.780489, -0.0632792
-0.5488281, -0.1948242, -0.5820312, -25.7926826, -68.2317123, 22.1951218, -0.0614328
-0.5307617, -0.1489258, -0.550293, -24.3292694, -65.0609741, 19.6341476, -0.0569009
-0.5419922, -0.1318359, -0.5371094, -24.7560978, -64.4512177, 18.9024391, -0.047837
-0.5688477, -0.1054688, -0.5424805, -26.9512196, -63.1707344, 18.780489, -0.0391089
-0.5854492, -0.0908203, -0.5625, -28.6585369, -62.6219521, 19.0853672, -0.0320592
-0.6157227, -0.0756836, -0.5957031, -31.4024391, -61.7073174, 20.1829281, -0.0223239
-0.6147461, -0.0825195, -0.6054688, -32.6829262, -61.4024391, 20.6707325, -0.0109102
-0.59375, -0.0908203, -0.5996094, -33.7804871, -60.4268303, 20.9756107, 0.0030213
-0.5869141, -0.0947266, -0.5952148, -34.5121956, -58.9634171, 20.7926826, 0.0159457
-0.5825195, -0.0922852, -0.6088867, -36.6463432, -55.5487823, 19.939024, 0.0186313
-0.5766602, -0.121582, -0.590332, -38.6585388, -54.3292694, 19.939024, 0.0159457
-0.5673828, -0.1499023, -0.6157227, -41.0365868, -52.3170738, 20, 0.0139315
-0.6000977, -0.2138672, -0.6547852, -41.4024391, -52.8658562, 21.0365868, 0.0092317
-0.5874023, -0.2006836, -0.6225586, -40.8536606, -53.0487823, 22.0121956, -0.0075532
-0.5541992, -0.1826172, -0.5458984, -37.4390259, -48.7804871, 18.7195129, -0.018967
-0.5791016, -0.1733398, -0.5161133, -36.8292694, -45.7926826, 16.7073174, -0.0276951
-0.6113281, -0.1870117, -0.440918, -36.0365868, -44.5731735, 15.5487804, -0.0313878
-0.6196289, -0.1914062, -0.4101562, -35.8536606, -44.7560997, 15.7926836, -0.0354162
-0.6489258, -0.190918, -0.3925781, -38.4146347, -44.7560997, 16.7682934, -0.036759
-0.6845703, -0.2016602, -0.3706055, -40.7926826, -43.7804871, 17.3780499, -0.0344091
-0.7216797, -0.2583008, -0.3198242, -37.6219521, -44.4512215, 20.3658543, -0.0325628
-0.7026367, -0.2749023, -0.3422852, -32.1951218, -45.7926826, 21.280489, -0.026688
-0.684082, -0.2568359, -0.3530273, -20.8536587, -45.5487823, 20.6707325, -0.0250095
-0.652832, -0.1972656, -0.3554688, -16.4024391, -40.3658562, 16.4024391, -0.0209812
-0.6572266, -0.1777344, -0.3481445, -17.560976, -37.7439041, 13.841464, -0.0206455
-0.6855469, -0.1567383, -0.3398438, -22.2560978, -35.7926826, 10.5487804, -0.0149386
-0.6953125, -0.1572266, -0.3393555, -24.2073174, -35.9146347, 9.6951218, -0.005539
-0.7006836, -0.1523438, -0.3334961, -24.0853672, -36.341465, 8.6585369, -0.0023499
-0.6938477, -0.1538086, -0.3398438, -22.560976, -35.6707344, 8.5975609, 0.0015106
-0.6772461, -0.1367188, -0.3696289, -19.2682934, -35.3048782, 9.6341467, 0.0073854
-0.6645508, -0.1386719, -0.3662109, -17.9878044, -34.8170738, 10.3658543, 0.0179599
-0.6489258, -0.1108398, -0.3208008, -17.1341476, -32.1341476, 10.6707315, 0.0287022
-0.6679688, -0.0703125, -0.2973633, -17.8048782, -29.8780499, 9.5121956, 0.0340734
-0.6884766, -0.0546875, -0.3105469, -21.6463413, -27.1951218, 7.5609756, 0.0407874
-0.7275391, -0.0488281, -0.3579102, -26.8902454, -26.7682934, 8.6585369, 0.0453193
-0.734375, -0.0625, -0.3642578, -28.7195129, -27.3170738, 9.4512196, 0.0421302
-0.7060547, -0.0825195, -0.328125, -29.5731716, -27.1951218, 8.5365858, 0.0397803
-0.6899414, -0.0942383, -0.3110352, -28.9634151, -26.4634151, 7.5, 0.0354162
-0.6723633, -0.1210938, -0.3173828, -28.1097565, -24.1463413, 5.7317076, 0.0172885
-0.6689453, -0.1342773, -0.3549805, -28.9634151, -23.0487804, 5.670732, -0.0028534
-0.6728516, -0.1484375, -0.4516602, -31.8292694, -20.3658543, 7.0121951, -0.017792
-0.6713867, -0.1640625, -0.4648438, -32.9268303, -18.780489, 7.0121951, -0.027863
-0.6494141, -0.1767578, -0.3916016, -30.9756107, -16.8902435, 4.390244, -0.0364233
-0.652832, -0.1616211, -0.3222656, -28.3536587, -15.2439032, 2.0731707, -0.0439765
-0.6679688, -0.1430664, -0.3168945, -26.0365868, -11.7073174, -1.5243902, -0.0485084
-0.7158203, -0.1049805, -0.3125, -28.4146347, -9.5121956, -3.2926829, -0.0552224
-0.7250977, -0.1010742, -0.2983398, -29.5121956, -9.0853662, -3.6585367, -0.054551
-0.7167969, -0.1186523, -0.2543945, -28.780489, -9.2682924, -4.7560978, -0.0535439
-0.7060547, -0.1245117, -0.2485352, -27.0121956, -8.719512, -5.3658538, -0.0542153
-0.6972656, -0.1459961, -0.2880859, -23.6585369, -6.4634147, -6.0975609, -0.0505226
-0.6923828, -0.1621094, -0.3154297, -22.560976, -5, -6.0975609, -0.0471656
-0.671875, -0.1992188, -0.3422852, -19.2682934, -2.5, -6.4024391, -0.0458228
-0.659668, -0.199707, -0.347168, -17.5, -0.3658537, -7.3780489, -0.047837
-0.6645508, -0.1640625, -0.3466797, -14.6951227, 4.5121951, -10.1829271, -0.0458228
-0.6972656, -0.1040039, -0.3364258, -14.3902445, 7.2560978, -11.8902445, -0.0397803
-0.7050781, -0.0820312, -0.3193359, -17.1341476, 10.7317076, -14.5121956, -0.0384375
-0.7143555, -0.0625, -0.2895508, -19.6951218, 10.5487804, -15.9756098, -0.0377661
-0.7128906, -0.0625, -0.2768555, -20.8536587, 10.2439022, -16.1585369, -0.0323949
-0.7119141, -0.0654297, -0.2680664, -22.0121956, 11.7073174, -15.6097565, -0.0290379
-0.7080078, -0.0693359, -0.2685547, -22.2560978, 13.2317076, -15.3048782, -0.0276951
-0.6992188, -0.0600586, -0.2890625, -23.1707325, 16.4024391, -15.9756098, -0.0256809
-0.7050781, -0.0551758, -0.3105469, -24.3902435, 17.7439022, -16.2195129, -0.0236667
-0.6977539, -0.043457, -0.3618164, -28.2926826, 18.9024391, -16.280489, -0.0206455
-0.6879883, -0.0463867, -0.3789062, -30.4268303, 19.6951218, -16.7682934, -0.0209812
-0.675293, -0.0541992, -0.3881836, -33.7195129, 21.7073174, -17.7439022, -0.0246738
-0.6606445, -0.0673828, -0.3769531, -34.6341476, 22.7439022, -18.0487804, -0.0229953
-0.6606445, -0.0712891, -0.3706055, -35.0609779, 24.8780499, -18.4756107, -0.0209812
-0.6635742, -0.0717773, -0.3525391, -34.5731697, 27.6829281, -19.0853672, -0.0256809
-0.6699219, -0.0751953, -0.3486328, -35.1829262, 29.2073174, -19.5121956, -0.033402
-0.6767578, -0.0976562, -0.355957, -35.4268303, 31.5853672, -20.5487804, -0.0384375
-0.6791992, -0.1137695, -0.3623047, -35.7317085, 32.0731697, -20.6707325, -0.0417945
-0.6665039, -0.1499023, -0.3725586, -34.2073174, 33.7804871, -20.1829281, -0.0417945
-0.6542969, -0.1650391, -0.3774414, -32.2560997, 34.4512215, -20.1829281, -0.040116
-0.6201172, -0.1806641, -0.4042969, -27.6829281, 37.5, -20.8536587, -0.0374304
-0.6123047, -0.1904297, -0.4301758, -25.6097565, 40, -20.9146347, -0.040116
-0.6088867, -0.2016602, -0.4741211, -22.9878063, 43.9634171, -21.5853672, -0.047837
-0.5913086, -0.2045898, -0.4765625, -21.9512196, 45.5487823, -21.8902435, -0.0562295
-0.5834961, -0.203125, -0.4570312, -18.9024391, 48.6585388, -23.3536587, -0.0673075
-0.5771484, -0.203125, -0.4125977, -14.3902445, 51.9512215, -26.280489, -0.0733501
-0.5849609, -0.2070312, -0.3916016, -12.3170738, 53.3536606, -27.1951218, -0.0710002
-0.5991211, -0.2099609, -0.3535156, -9.0243902, 55.18293, -28.4756107, -0.0639506
-0.6064453, -0.2104492, -0.3457031, -7.8048782, 55.8536606, -28.9634151, -0.0552224
-0.6166992, -0.1962891, -0.3618164, -5.7317076, 58.3536606, -30, -0.0459907
-0.6196289, -0.1875, -0.3789062, -5, 59.5731735, -30.3658543, -0.0407874
-0.6118164, -0.1557617, -0.4067383, -4.5121951, 62.1341476, -31.5243912, -0.0303807
-0.6010742, -0.1416016, -0.4213867, -4.2682929, 63.4146347, -32.7439041, -0.0171206
-0.5874023, -0.1069336, -0.4418945, -5.609756, 65.6097565, -35, -0.005539
-0.5776367, -0.0849609, -0.4658203, -6.5853658, 66.4634171, -36.2804871, 0.0045319
-0.578125, -0.078125, -0.4814453, -9.8170738, 67.9268341, -37.9268303, 0.0159457
-0.5893555, -0.0683594, -0.534668, -14.2682934, 69.5121994, -38.5365868, 0.0240024
-0.5957031, -0.0644531, -0.5507812, -16.5853653, 69.8170776, -38.6585388, 0.026688
-0.5825195, -0.0541992, -0.5424805, -20.6097565, 70.6707306, -38.9634171, 0.0310521
-0.5717773, -0.0556641, -0.5219727, -22.1951218, 71.4634171, -39.8170738, 0.0280308
-0.5625, -0.0629883, -0.4604492, -24.5731716, 72.3780518, -41.8902435, 0.027863
-0.5576172, -0.078125, -0.4238281, -26.0975609, 72.5609741, -42.6219521, 0.0226596
-0.5649414, -0.1142578, -0.3984375, -28.3536587, 72.9268341, -43.7195129, 0.0223239
-0.5771484, -0.1323242, -0.4116211, -29.4512196, 72.9878082, -43.7804871, 0.0132601
-0.5917969, -0.1777344, -0.449707, -31.2195129, 72.0731735, -42.5609779, 0.0099031
-0.5712891, -0.2143555, -0.4628906, -31.280489, 71.3414688, -42.1951218, 0.0052033
-0.5527344, -0.2314453, -0.4638672, -26.8292694, 70.6097565, -41.2804871, -0.0038605
-0.5141602, -0.2285156, -0.4853516, -21.1585369, 72.5609741, -41.7073174, -0.0129244
-0.5131836, -0.2250977, -0.4946289, -18.6585369, 74.5121994, -41.9512215, -0.0206455
-0.519043, -0.2172852, -0.4916992, -14.8780489, 78.0487823, -42.9268303, -0.0317235
-0.5249023, -0.2148438, -0.4746094, -12.1951218, 79.3292694, -43.5365868, -0.0527047
-0.5317383, -0.2060547, -0.4516602, -7.1951222, 80.9146347, -45.0609779, -0.0676432
-0.53125, -0.1987305, -0.4677734, -5.1829271, 81.8902435, -45.4268303, -0.0750286
-0.53125, -0.1918945, -0.5683594, -3.5975611, 84.3902435, -45.4878044, -0.0767071
-0.527832, -0.1958008, -0.6318359, -4.1463413, 85.3658524, -44.7560997, -0.0740215
-0.4990234, -0.2094727, -0.699707, -5.4268293, 86.7682953, -42.9268303, -0.0693217
-0.4462891, -0.2060547, -0.6748047, -4.390244, 88.2317123, -42.8048782, -0.0585794
-0.4208984, -0.1938477, -0.6645508, 0.1219512, 93.0487823, -44.5121956, -0.0471656
-0.4194336, -0.1552734, -0.6796875, 2.7439024, 99.4512253, -47.3170738, -0.0374304
-0.434082, -0.1420898, -0.6938477, 2.195122, 101.4024429, -47.9878044, -0.0263523
-0.4682617, -0.1235352, -0.6606445, -1.402439, 103.1707306, -48.4146347, -0.0216526
-0.4760742, -0.1210938, -0.6171875, -3.3536587, 102.68293, -48.7804871, -0.0236667
-0.4824219, -0.1269531, -0.5073242, -4.2682929, 102.1951218, -50, -0.0417945
-0.4819336, -0.1357422, -0.4658203, -3.8414636, 101.7682953, -51.2804909, -0.054551
-0.4995117, -0.1552734, -0.4692383, -3.7804878, 101.7682953, -51.7682953, -0.0574044
-0.5175781, -0.1591797, -0.5039062, -5.0609756, 101.7073212, -51.0975609, -0.0632792
-0.5390625, -0.1542969, -0.5795898, -9.0853662, 100.6097565, -48.7804871, -0.0673075
-0.5151367, -0.1489258, -0.5981445, -10.9146347, 100.18293, -48.0487823, -0.0757
-0.4882812, -0.1489258, -0.5869141, -12.1341467, 100.2439041, -49.2073174, -0.0887922
-0.4506836, -0.1567383, -0.6049805, -11.9512196, 101.0365906, -52.6829262, -0.0975204
-0.4384766, -0.1665039, -0.6411133, -12.0121956, 101.4634171, -53.841465, -0.1049058
-0.4233398, -0.1850586, -0.7148438, -14.8170738, 102.3780518, -53.5975609, -0.1132982
-0.409668, -0.1958008, -0.7319336, -16.280489, 102.5609818, -52.6219521, -0.1143053
-0.3603516, -0.2177734, -0.7084961, -14.6951227, 102.5, -51.4024391, -0.1096056
-0.3476562, -0.230957, -0.6879883, -11.8292685, 103.1097565, -51.341465, -0.10692
-0.3398438, -0.265625, -0.6416016, -3.5975611, 104.8170776, -50.7317085, -0.0958419
-0.3574219, -0.2783203, -0.6186523, 1.2195122, 105.9146347, -49.2682953, -0.0802319
-0.3959961, -0.293457, -0.5810547, 10.1829271, 109.5731735, -46.5243912, -0.064622
-0.4580078, -0.2939453, -0.6435547, 13.780488, 111.2804871, -45.3048782, -0.0485084
-0.4902344, -0.2856445, -0.7026367, 17.6219521, 112.0731735, -43.6585388, -0.0387732
-0.5180664, -0.2802734, -0.8095703, 18.5365849, 109.6951218, -42.3170738, -0.0206455
-0.5078125, -0.2841797, -0.8208008, 19.6951218, 108.2317123, -41.8292694, 0.0005035
-0.4287109, -0.2944336, -0.7568359, 26.0975609, 105.7926865, -43.7804871, 0.0172885
-0.3862305, -0.2998047, -0.7050781, 31.5853672, 105.7317123, -46.0365868, 0.0365911
-0.3388672, -0.2910156, -0.6337891, 43.1097565, 107.8658524, -49.3292694, 0.0555581
-0.3427734, -0.2749023, -0.6201172, 47.0731735, 109.5731735, -49.3292694, 0.0683146
-0.3886719, -0.2197266, -0.628418, 49.8170738, 113.3536606, -46.7073174, 0.0710002
-0.449707, -0.1635742, -0.6333008, 48.4146347, 114.3902435, -45.1219521, 0.0788891
-0.4682617, -0.1342773, -0.6328125, 43.9634171, 115, -42.1341476, 0.0914778
-0.4863281, -0.0893555, -0.6586914, 41.2804871, 114.3902435, -41.7073174, 0.0965133
-0.4882812, -0.0791016, -0.6801758, 35.7926826, 113.5365906, -42.7439041, 0.100206
-0.4677734, -0.0771484, -0.7128906, 29.9390259, 113.4146347, -43.4146347, 0.1005417
-0.4438477, -0.0864258, -0.6977539, 27.3780499, 113.0487823, -43.6585388, 0.0911421
-0.3720703, -0.1230469, -0.6357422, 24.2682934, 113.1707306, -43.9634171, 0.0741894
-0.3447266, -0.1367188, -0.6186523, 23.8414631, 113.4146347, -44.2682953, 0.0619364
-0.3305664, -0.1557617, -0.7075195, 21.6463413, 113.0487823, -43.4756126, 0.0381018
-0.3383789, -0.1630859, -0.8154297, 18.6585369, 113.1707306, -40.9146347, 0.0119173
-0.3515625, -0.1621094, -1.0512695, 8.719512, 113.4146347, -34.1463432, -0.0062104
-0.3188477, -0.1679688, -1.1523438, 2.804878, 114.146347, -30.7317085, -0.0209812
-0.284668, -0.1665039, -1.1542969, -4.6951222, 117.5609818, -28.780489, -0.0307164
-0.2026367, -0.1640625, -1.1206055, -6.4634147, 119.6951218, -30.3048782, -0.0424659
-0.1787109, -0.1669922, -1.0986328, -8.841464, 125.6097565, -35.6707344, -0.0533761
-0.1655273, -0.1982422, -1.046875, -13.4146347, 130.9756165, -39.8780479, -0.0626078
-0.1616211, -0.2207031, -1.0141602, -16.7073174, 133.0487823, -40.6707344, -0.0659648
-0.1665039, -0.2851562, -0.9580078, -22.0121956, 134.3902435, -41.341465, -0.0636149
-0.1801758, -0.3266602, -0.9418945, -23.8414631, 134.0243988, -40.9756088, -0.0538796
-0.2124023, -0.4262695, -0.9360352, -22.5, 132.6829224, -39.4512215, -0.0495155
-0.2270508, -0.4755859, -0.9321289, -19.3292694, 132.1341553, -38.7195129, -0.047837
-0.2436523, -0.5585938, -0.9086914, -8.841464, 133.5975647, -37.3780479, -0.0525368
-0.2573242, -0.5825195, -0.8583984, -1.8292683, 135.36586, -37.5609779, -0.0572366
-0.2685547, -0.565918, -0.8266602, 12.3780489, 139.6951294, -39.2073174, -0.0505226
-0.3012695, -0.4995117, -0.7963867, 17.8658543, 141.8292694, -41.0365868, -0.0404517
-0.3173828, -0.4580078, -0.8046875, 25.3658543, 144.6341553, -45.1829262, -0.0303807
-0.355957, -0.3764648, -0.8540039, 26.3414631, 144.0243988, -48.4146347, -0.0213169
-0.3540039, -0.3505859, -0.8769531, 25.060976, 142.8048859, -48.9634171, -0.0127565
-0.3129883, -0.3144531, -0.8706055, 22.1951218, 139.9390259, -49.5121956, -0.0041962
-0.2758789, -0.3032227, -0.8461914, 21.280489, 138.9634247, -50.6707344, 0.0062104
-0.2167969, -0.2695312, -0.7861328, 21.9512196, 139.146347, -53.1097565, 0.0166171
-0.2094727, -0.246582, -0.7734375, 21.9512196, 140.1829376, -54.1463432, 0.0226596
-0.2407227, -0.2036133, -0.8208008, 20.3658543, 141.1585388, -53.2926826, 0.0287022
-0.2680664, -0.1762695, -0.9282227, 17.5, 140.8536682, -51.341465, 0.0280308
-0.2641602, -0.1743164, -0.9838867, 9.5731707, 138.7195129, -46.1585388, 0.0310521
-0.2075195, -0.2021484, -1.0390625, 2.6829269, 135.4268341, -43.841465, 0.030045
-0.1621094, -0.2216797, -1.0429688, 0.6097561, 133.5365906, -44.2682953, 0.0344091
-0.1010742, -0.2480469, -1.0371094, -2.9268293, 132.8048859, -45.2439041, 0.036759
-0.0913086, -0.2436523, -1.027832, -5, 133.8414612, -45.4878044, 0.0374304
-0.0957031, -0.215332, -1.0024414, -11.4634151, 136.3414612, -45.0609779, 0.03122
-0.1142578, -0.1967773, -0.9833984, -15.3658543, 137.1341553, -44.8780479, 0.0223239
-0.1513672, -0.1835938, -0.940918, -23.6585369, 137.4390259, -44.3902435, 0.0196384
-0.1679688, -0.1972656, -0.9179688, -27.1951218, 136.3414612, -44.6341476, 0.0199741
-0.1772461, -0.262207, -0.8901367, -31.0365868, 131.646347, -43.9024391, 0.0206455
-0.1640625, -0.3681641, -0.8808594, -30.8536587, 129.3902435, -42.6829262, 0.0179599
-0.1542969, -0.4189453, -0.8862305, -25.7317085, 126.2195129, -39.5121956, 0.0112459
-0.1269531, -0.4868164, -0.9238281, -16.1585369, 127.8048782, -36.5243912, 0.005539
-0.1181641, -0.5053711, -0.9658203, -10.9146347, 129.6951294, -35.9146347, -0.0015106
-0.0961914, -0.5229492, -1.0961914, -1.8292683, 134.146347, -36.0365868, -0.0052033
-0.0888672, -0.534668, -1.1655273, 1.2804878, 135.6707306, -36.5853653, -0.0099031
-0.0537109, -0.5541992, -1.2583008, 5.3658538, 137.7439117, -38.1707344, -0.0179599
-0.0239258, -0.5532227, -1.2661133, 6.9512196, 138.7804871, -38.9024391, -0.0280308
0.0336914, -0.5146484, -1.2143555, 10.5487804, 141.3414612, -42.8658562, -0.0344091
0.0493164, -0.4746094, -1.1606445, 12.0121956, 143.1097565, -45.9146347, -0.0453193
0.0341797, -0.3745117, -1.046875, 13.2926836, 147.7439117, -52.4390259, -0.0569009
-0.0488281, -0.300293, -0.9536133, 12.4390249, 150.2439117, -54.7560997, -0.0659648
-0.0996094, -0.2880859, -0.9008789, 8.0487804, 153.2926941, -56.2195129, -0.0656291
-0.1826172, -0.284668, -0.8125, 4.0853658, 152.7439117, -54.5731735, -0.0703288
-0.2207031, -0.2890625, -0.8134766, 3.0487804, 150.8536682, -52.9878044, -0.0762036
-0.2749023, -0.2963867, -0.9335938, 1.5853659, 144.3292694, -49.0853653, -0.0810712
-0.2890625, -0.2910156, -1.0180664, 0.2439024, 141.5243988, -46.2195129, -0.0814069
-0.2197266, -0.2983398, -1.1142578, -2.9878049, 136.0975647, -42.3780479, -0.0793927
-0.1396484, -0.3032227, -1.105957, -4.0853658, 133.5975647, -42.6219521, -0.0800641
0.0219727, -0.3032227, -1.0478516, -5.1829271, 131.2804871, -46.7682953, -0.0867781
0.0791016, -0.3032227, -1.0517578, -6.5243902, 131.8292694, -48.7195129, -0.0929885
0.1132812, -0.3261719, -1.1616211, -11.7682934, 133.9634247, -48.841465, -0.0955062
0.1352539, -0.4038086, -1.2729492, -15.5487804, 134.8780518, -45.8536606, -0.0997024
0.1591797, -0.4541016, -1.2666016, -20.9756107, 135.3048859, -38.3536606, -0.1028916
0.2265625, -0.5209961, -1.1298828, -17.439024, 137.5609741, -37.1951218, -0.0995346
0.2392578, -0.5205078, -1.0244141, -12.9878054, 140.9756165, -40.0609779, -0.0965133
0.171875, -0.4711914, -0.8730469, -3.7804878, 150.6707306, -49.0243912, -0.0918135
0.0869141, -0.4321289, -0.8500977, -2.0731707, 155.3048859, -52.5, -0.0864424
-0.0991211, -0.3774414, -0.8652344, -4.6951222, 157.6829376, -53.1097565, -0.0861067
-0.1625977, -0.3706055, -0.8818359, -7.6829271, 154.8780518, -51.5243912, -0.0976883
-0.2021484, -0.3481445, -0.8876953, -13.1097565, 143.9024353, -48.7195129, -0.0978561
-0.1831055, -0.3364258, -0.8779297, -13.9024391, 137.6829376, -48.4756126, -0.0887922
-0.1230469, -0.3037109, -0.8642578, -11.341464, 129.5121918, -51.4024391, -0.0827497
-0.0449219, -0.2871094, -0.9067383, -9.5731707, 127.5609818, -52.6829262, -0.0780499
0, -0.2880859, -0.9394531, -7.9268293, 127.1341476, -52.9878044, -0.073518
0.0878906, -0.3144531, -1.0019531, -8.9634151, 127.0731735, -49.2682953, -0.0753643
0.125, -0.3330078, -1.0395508, -9.7560978, 127.1341476, -46.8292694, -0.0743572
0.1743164, -0.3535156, -1.159668, -10, 127.1951218, -42.3170738, -0.0683146
0.1855469, -0.3632812, -1.2539062, -10.1219511, 127.9268341, -40.2439041, -0.0585794
0.2084961, -0.3813477, -1.4741211, -10.5487804, 129.0243988, -35.7317085, -0.0572366
0.2294922, -0.3955078, -1.5683594, -11.341464, 129.6341553, -33.841465, -0.0458228
0.3188477, -0.4287109, -1.6166992, -13.5975609, 131.0975647, -32.1951218, -0.0146029
0.3793945, -0.4394531, -1.5634766, -14.3292685, 132.5, -33.2317085, 0.0256809
0.4726562, -0.4155273, -1.3564453, -16.5853653, 139.3902435, -39.2682953, 0.0710002
0.418457, -0.3237305, -1.1635742, -18.3536587, 144.6951294, -43.5365868, 0.1085985
0.3427734, -0.2700195, -1.1000977, -24.5121956, 155.4268341, -49.4512215, 0.1352865
0.1606445, -0.1845703, -1.0522461, -33.4146347, 160.5487823, -50.2439041, 0.1420005
0.0869141, -0.1669922, -1.046875, -37.6219521, 159.6951294, -48.841465, 0.1346151
0.0097656, -0.2055664, -1.0126953, -44.6341476, 149.9390259, -44.7560997, 0.1233692
0.019043, -0.2568359, -0.9741211, -46.5853653, 143.2317047, -42.8048782, 0.1111162
0.1000977, -0.3579102, -0.8852539, -46.5243912, 132.3780518, -40.2439041, 0.0988632
0.1464844, -0.4077148, -0.8623047, -44.9390259, 129.4512177, -39.1463432, 0.0871138
0.2124023, -0.4575195, -0.8769531, -40.1829262, 128.5975647, -36.5853653, 0.0763714
0.2275391, -0.4614258, -0.9038086, -37.5609779, 128.9634247, -34.6951218, 0.0703288
0.2553711, -0.4365234, -0.9208984, -32.9878044, 130.1829224, -31.341465, 0.0636149
0.2875977, -0.3735352, -0.8549805, -30.3658543, 130.7926788, -31.0975609, 0.0575723
0.2998047, -0.3330078, -0.8081055, -25.2439022, 131.0975647, -34.7560997, 0.0481727
0.2866211, -0.2768555, -0.7641602, -22.1341476, 132.1341553, -40.1829262, 0.0344091
0.2583008, -0.2636719, -0.7832031, -21.7073174, 131.646347, -41.9512215, 0.0179599
0.2114258, -0.2851562, -0.8945312, -24.2073174, 127.4390259, -40.3658562, 0.0058747
0.2080078, -0.3144531, -0.9790039, -25.6097565, 123.5365906, -37.6219521, -0.0041962
0.2573242, -0.3837891, -1.1323242, -25.9146347, 114.8780518, -31.280489, -0.0109102
0.3154297, -0.4130859, -1.1655273, -24.2682934, 111.4024429, -28.780489, -0.0164492
0.4580078, -0.4418945, -1.1074219, -16.5243912, 110.4878082, -28.0487804, -0.0226596
0.5200195, -0.4291992, -1.0415039, -11.4024391, 114.0243912, -30.6707325, -0.0330663
0.5629883, -0.3642578, -0.921875, -2.5, 126.5853653, -37.6829262, -0.0397803
0.4555664, -0.2758789, -0.9360352, -0.4268293, 133.4146423, -40.7926826, -0.0394446
0.3735352, -0.2431641, -0.9882812, -1.9512196, 141.9512177, -42.9878044, -0.0431373
0.2368164, -0.21875, -1.1772461, -8.5975609, 139.3292694, -39.4512215, -0.0441444
0.2060547, -0.2373047, -1.2954102, -12.4390249, 134.2682953, -36.4634171, -0.0461585
0.2587891, -0.3012695, -1.4897461, -18.2926826, 121.8902435, -30.2439022, -0.0505226
0.3295898, -0.340332, -1.5375977, -19.6951218, 116.8292694, -27.9878063, -0.0619364
0.5200195, -0.3813477, -1.5063477, -19.8170738, 115.18293, -26.9512196, -0.064622
0.6157227, -0.3867188, -1.4282227, -19.0853672, 119.146347, -28.2317085, -0.0642863
0.715332, -0.347168, -1.2119141, -19.5731716, 134.3902435, -33.2926826, -0.0616007
0.7080078, -0.3129883, -1.0991211, -20.4878044, 142.8048859, -36.5853653, -0.0663005
0.5654297, -0.2651367, -0.9536133, -24.9390259, 156.1585388, -41.4024391, -0.0669718
0.3305664, -0.2651367, -0.9404297, -28.0487804, 159.0853729, -42.3170738, -0.0654612
0.2226562, -0.2871094, -0.96875, -33.5975609, 156.8902435, -39.3902435, -0.0642863
0.0942383, -0.3500977, -1.0517578, -35, 147.3170776, -33.2317085, -0.0632792
0.0922852, -0.3818359, -1.0844727, -34.2073174, 142.0121918, -30.4268303, -0.0652934
0.1967773, -0.418457, -1.1113281, -29.5121956, 132.9878082, -26.7682934, -0.0654612
0.2856445, -0.4199219, -1.1079102, -26.5243912, 129.8780518, -26.6463413, -0.0666361
0.4741211, -0.402832, -1.0996094, -22.1951218, 127.6219559, -28.3536587, -0.0679789
0.550293, -0.3945312, -1.0883789, -21.3414631, 128.5975647, -29.5731716, -0.0587472
0.6484375, -0.3867188, -1.0576172, -22.9268303, 133.1097565, -31.4024391, -0.0414588
0.6586914, -0.3857422, -1.0371094, -24.2073174, 135.7317047, -31.9512196, -0.0303807
0.6176758, -0.3735352, -1.0200195, -26.4634151, 141.2195129, -32.6829262, -0.018967
0.5126953, -0.3413086, -1.03125, -27.3780499, 142.9878082, -32.8658562, -0.0243381
0.4638672, -0.3217773, -1.0297852, -28.7195129, 142.6219482, -32.7439041, -0.0330663
0.4238281, -0.3100586, -0.9819336, -30.1829281, 137.6219482, -32.3170738, -0.0391089
0.4267578, -0.3100586, -0.9370117, -30.5487804, 133.9024353, -32.6829262, -0.0582437
0.449707, -0.3139648, -0.859375, -30.4878063, 127.3780518, -33.2926826, -0.0730144
0.4555664, -0.3149414, -0.8271484, -30.1219521, 125.6097565, -33.2926826, -0.0773785
0.4648438, -0.3100586, -0.7880859, -28.4146347, 124.5121994, -32.5, -0.0810712
0.4599609, -0.3105469, -0.784668, -27.3780499, 124.3902435, -31.6463413, -0.0666361
0.4541016, -0.3154297, -0.7871094, -23.3536587, 123.2926865, -29.6951218, -0.0547189
0.4536133, -0.3266602, -0.7880859, -20.3048782, 121.8292694, -29.0243912, -0.0377661
0.4824219, -0.3588867, -0.7709961, -13.4756098, 118.5975647, -27.8658543, -0.0287022
0.53125, -0.3999023, -0.7578125, -9.1463413, 116.5243912, -27.8048782, -0.0270237
0.5561523, -0.4169922, -0.765625, -0.7926829, 115.2439041, -28.9634151, -0.0256809
0.5756836, -0.421875, -0.84375, 5.1219511, 116.8292694, -29.9390259, -0.01561
0.5625, -0.4042969, -0.9086914, 6.280488, 118.3536606, -30.1829281, -0.0028534
0.546875, -0.3452148, -1.0385742, 5.0609756, 120.6097565, -30.3048782, 0.0099031
0.5493164, -0.3125, -1.0825195, 3.5365853, 120.9146347, -31.0365868, 0.0287022
0.5742188, -0.2734375, -1.1279297, -0.2439024, 119.2073212, -33.2926826, 0.0495155
0.5932617, -0.2680664, -1.1352539, -2.0731707, 117.8048782, -34.6951218, 0.064622
0.6396484, -0.2695312, -1.1591797, -4.9390244, 117.2561035, -35.6707344, 0.0676432
0.6489258, -0.2773438, -1.1899414, -6.5243902, 117.7439041, -35.3658562, 0.0642863
0.6484375, -0.3007812, -1.284668, -10, 121.1585388, -33.3536606, 0.057908
0.6245117, -0.3022461, -1.4086914, -12.8048782, 123.1097565, -31.7682934, 0.0522011
0.6181641, -0.2954102, -1.4584961, -19.6951218, 126.8292694, -28.5975609, 0.036759
0.6230469, -0.2504883, -1.472168, -28.5975609, 129.6951294, -26.6463413, 0.026688
0.6357422, -0.2368164, -1.4160156, -33.4146347, 131.0365906, -27.0731716, 0.0132601
0.6777344, -0.2246094, -1.1914062, -42.1951218, 133.7195129, -30.1829281, -0.0083925
0.6850586, -0.2319336, -1.0551758, -46.2195129, 135, -32.1341476, -0.0209812
0.6430664, -0.2597656, -0.8222656, -51.7073174, 137.1951294, -35.4878044, -0.0290379
0.5991211, -0.2802734, -0.746582, -53.5365868, 137.2561035, -35.8536606, -0.0364233
0.4765625, -0.3222656, -0.6889648, -55.3658562, 135.1829224, -34.4512215, -0.0451514
0.4238281, -0.3486328, -0.7001953, -54.8170738, 132.4390259, -32.6829262, -0.0485084
0.3764648, -0.3862305, -0.7597656, -51.2195129, 124.0853653, -28.7195129, -0.0532082
0.4306641, -0.4042969, -0.8051758, -48.4756126, 119.8170776, -27.2560978, -0.0464942
0.484375, -0.4023438, -0.8178711, -42.1341476, 114.0243912, -25.6707325, -0.0297093
0.6162109, -0.3808594, -0.796875, -35.8536606, 113.8414688, -26.5243912, -0.0129244
0.675293, -0.3647461, -0.7729492, -33.5365868, 115.4878082, -27.9268303, 0.0045319
0.7617188, -0.3369141, -0.71875, -30.5487804, 119.2682953, -31.9512196, 0.0152743
0.7739258, -0.3291016, -0.6953125, -29.4512196, 120.18293, -34.0243912, 0.01561
0.7592773, -0.3300781, -0.6894531, -27.3170738, 120.4268341, -36.8292694, 0.018967
0.7407227, -0.3422852, -0.7104492, -25.9756107, 119.7561035, -38.0487823, 0.0166171
0.6953125, -0.3798828, -0.7548828, -22.0731716, 116.646347, -38.2926826, 0.0115816
0.6875, -0.4047852, -0.777832, -19.0853672, 115.4268341, -38.2317085, 0.0078889
0.6962891, -0.4438477, -0.8217773, -12.9268293, 113.1707306, -38.6585388, -0.0005035
0.7075195, -0.4506836, -0.8618164, -9.3902445, 112.86586, -39.3902435, -0.0104067
0.7114258, -0.4306641, -0.878418, -2.7439024, 114.2682953, -40, -0.0283665
0.7172852, -0.3706055, -0.8969727, 1.1585366, 117.5609818, -40.3048782, -0.0407874
0.7202148, -0.3291016, -0.8916016, 2.3780489, 119.2682953, -40.2439041, -0.0466621
0.7148438, -0.2324219, -0.8583984, 3.8414636, 121.8902435, -41.0365868, -0.0565652
0.7075195, -0.1845703, -0.8447266, 4.0243902, 123.0487823, -41.2804871, -0.0726787
0.6669922, -0.1083984, -0.8618164, 3.1707318, 124.3292694, -42.0121956, -0.1008774
0.6459961, -0.0786133, -0.8862305, 1.2804878, 124.2073212, -41.2804871, -0.1317617
0.6240234, -0.0605469, -0.953125, -5.2439027, 122.5609818, -37.9268303, -0.1619745
0.6416016, -0.0737305, -0.9931641, -8.780488, 121.1585388, -36.2195129, -0.2002441
0.6674805, -0.0942383, -1.0029297, -15.4878054, 119.0243912, -32.6829262, -0.2257572
0.7275391, -0.1464844, -1.0498047, -18.4756107, 118.5975647, -31.5853672, -0.232639
0.746582, -0.1743164, -1.0898438, -23.4146347, 118.9024429, -30.060976, -0.2331426
0.7734375, -0.2441406, -1.1743164, -29.8170738, 120.5487823, -27.8658543, -0.2274357
0.7929688, -0.2753906, -1.1894531, -33.3536606, 121.2804871, -26.3414631, -0.2136721
0.8427734, -0.3266602, -1.1386719, -38.6585388, 123.8414688, -25.7926826, -0.1995727
0.8642578, -0.3505859, -1.0922852, -40.0609779, 125.7317123, -26.8902454, -0.188159
0.871582, -0.3671875, -0.9838867, -41.341465, 130.4268341, -30.5487804, -0.1717098
0.8481445, -0.3642578, -0.9506836, -41.6463432, 132.9878082, -32.0121956, -0.1539178
0.7670898, -0.3613281, -0.9106445, -42.9268303, 136.7073212, -33.0487823, -0.1290761
0.7250977, -0.3652344, -0.8466797, -44.0243912, 137.6219482, -32.9878044, -0.1025559
0.7270508, -0.3701172, -0.7954102, -44.8170738, 135.6707306, -32.6829262, -0.0760357
0.7495117, -0.3930664, -0.6767578, -43.9024391, 133.6585388, -33.4756088, -0.043473
0.7583008, -0.3974609, -0.6206055, -38.841465, 129.5731812, -35.0609779, -0.0065461
0.7661133, -0.3857422, -0.5566406, -32.0121956, 128.2317047, -36.2195129, 0.0250095
0.7607422, -0.3701172, -0.5488281, -28.841465, 128.0487823, -36.1585388, 0.0340734
0.7524414, -0.3168945, -0.5688477, -24.3902435, 127.86586, -36.1585388, -0.0151064
0.7495117, -0.2924805, -0.5878906, -22.3780499, 126.5853653, -36.1585388, -0.0485084
0.7675781, -0.2490234, -0.6298828, -19.8780499, 122.1951218, -35.5487823, -0.0673075
0.7856445, -0.2275391, -0.6547852, -18.5365849, 119.4512253, -35.7926826, -0.0708324
0.8378906, -0.206543, -0.7099609, -16.4634151, 114.6341476, -35.9756088, -0.0552224
0.8813477, -0.2026367, -0.7890625, -15.6097565, 112.6219559, -35.9756088, -0.0273594
0.9008789, -0.2026367, -0.824707, -15.2439032, 108.9634171, -35.4268303, -0.0001678
0.9375, -0.2124023, -0.8710938, -16.4634151, 106.9512253, -34.2073174, 0.030045
0.9462891, -0.2163086, -0.8808594, -16.7682934, 106.7682953, -33.2926826, 0.0448157
0.9487305, -0.2143555, -0.8706055, -17.439024, 106.8902435, -32.4390259, 0.0553902
0.9438477, -0.2119141, -0.862793, -17.0731716, 107.4390259, -31.9512196, 0.0803998
0.9208984, -0.2006836, -0.8330078, -16.5853653, 109.3902435, -31.5243912, 0.1193408
0.9135742, -0.1918945, -0.8154297, -16.4634151, 110.1219559, -31.1585369, 0.1777523
0.8969727, -0.1855469, -0.7724609, -16.1585369, 111.2804871, -31.0365868, 0.2455634
0.8920898, -0.1821289, -0.75, -15.8536587, 110.7926865, -30.8536587, 0.3063249
0.9033203, -0.1787109, -0.7285156, -15.1219511, 109.0853653, -30.1219521, 0.3388876
0.9145508, -0.1796875, -0.7436523, -14.6951227, 108.1097565, -29.8780499, 0.3442588
0.918457, -0.1787109, -0.7709961, -14.8780489, 106.2804871, -28.841465, 0.3187457
0.9404297, -0.1943359, -0.8530273, -16.0975609, 103.5975647, -26.9512196, 0.2789654
0.9589844, -0.190918, -0.8911133, -17.0121956, 102.3170776, -25.8536587, 0.2321355
0.987793, -0.1875, -0.949707, -19.8170738, 100.7317123, -24.4512196, 0.197055
1.0092773, -0.1860352, -0.9589844, -21.0975609, 100.5487823, -24.0853672, 0.170367
1.0273438, -0.1801758, -0.9331055, -23.7195129, 101.3414688, -23.8414631, 0.1498894
1.0341797, -0.1757812, -0.9106445, -25, 102.68293, -23.9024391, 0.1287404
1.019043, -0.1728516, -0.8598633, -26.9512196, 105.4878082, -24.3292694, 0.111284
1.0019531, -0.1748047, -0.8398438, -28.1097565, 106.646347, -24.2682934, 0.0944991
0.9570312, -0.1821289, -0.8212891, -30.9146347, 107.7439041, -24.2073174, 0.0854353
0.9204102, -0.1845703, -0.8237305, -32.6829262, 107.1951218, -23.7195129, 0.079057
0.9106445, -0.1904297, -0.8193359, -35.6707344, 104.2073212, -21.9512196, 0.0666361
0.9248047, -0.1875, -0.7910156, -37.0731697, 100.7926865, -20.6097565, 0.0508583
0.9458008, -0.1879883, -0.7553711, -36.7073174, 99.146347, -20.3658543, 0.043473
0.9799805, -0.2011719, -0.6586914, -34.5121956, 97.3780518, -20.8536587, 0.0313878
0.9936523, -0.2099609, -0.605957, -32.5, 96.646347, -21.4024391, 0.0172885
0.9907227, -0.2241211, -0.53125, -29.2682934, 95.6097565, -21.8292694, -0.0060426
0.9736328, -0.2241211, -0.5087891, -27.8048782, 95.3048782, -21.6463413, -0.0216526
0.9423828, -0.2226562, -0.496582, -25.3658543, 93.5365906, -20.1219521, -0.0297093
0.9296875, -0.21875, -0.4990234, -24.5121956, 91.8292694, -19.7560978, -0.0337377
0.9360352, -0.2104492, -0.5224609, -21.5853672, 87.7439041, -19.5731716, -0.0381018
0.9716797, -0.2075195, -0.550293, -20.060976, 85.18293, -19.8780499, -0.0421302
0.9941406, -0.2036133, -0.5678711, -16.4634151, 81.2195129, -20.4878044, -0.0458228
1.0405273, -0.2011719, -0.5898438, -13.4756098, 78.8414688, -20.5487804, -0.0481727
1.0615234, -0.2001953, -0.6015625, -12.560976, 78.5975647, -20.8536587, -0.0522011
1.0786133, -0.2016602, -0.6206055, -11.5853662, 78.1097565, -21.4024391, -0.0659648
1.0756836, -0.2006836, -0.6293945, -10.9756098, 78.2926865, -21.280489, -0.0793927
1.0488281, -0.2045898, -0.640625, -10.2439022, 77.8048782, -20.7926826, -0.0827497
1.0288086, -0.2055664, -0.6411133, -9.8780489, 77.5609741, -20.2439022, -0.0909743
0.9956055, -0.1894531, -0.644043, -9.1463413, 77.0121994, -19.0853672, -0.1028916
0.9897461, -0.1806641, -0.6484375, -8.9024391, 76.8292694, -19.1463413, -0.1183337
0.9790039, -0.1494141, -0.6518555, -8.6585369, 76.8902435, -19.0243912, -0.1431754
0.9848633, -0.1333008, -0.6484375, -8.841464, 77.4390259, -19.0243912, -0.1539178
0.9858398, -0.1352539, -0.6396484, -9.2073174, 77.3170776, -19.6951218, -0.1586175
0.9975586, -0.1445312, -0.6396484, -9.7560978, 76.2804871, -19.5121956, -0.1534142
0.9916992, -0.1582031, -0.6411133, -10.060976, 76.2195129, -19.4512196, -0.1438468
0.9736328, -0.184082, -0.6503906, -10.9756098, 76.2804871, -18.3536587, -0.1431754
0.9628906, -0.1977539, -0.6582031, -11.0365858, 76.5243912, -17.6829281, -0.1448539
0.953125, -0.2236328, -0.6835938, -10.8536587, 77.3170776, -17.3780499, -0.1418326
0.9560547, -0.2324219, -0.7021484, -10.2439022, 77.5, -16.8902435, -0.139147
0.9658203, -0.234375, -0.7431641, -10.060976, 79.0853653, -17.2560978, -0.1257191
0.9780273, -0.2368164, -0.7475586, -9.8170738, 79.4512177, -17.3780499, -0.1045701
0.9970703, -0.2387695, -0.730957, -9.5731707, 80.9756088, -17.8658543, -0.0921492
0.9960938, -0.237793, -0.6958008, -9.3292685, 81.9512177, -18.5975609, -0.0887922
0.9838867, -0.2280273, -0.6743164, -9.2682924, 84.3902435, -19.1463413, -0.1143053
0.9487305, -0.1992188, -0.6430664, -9.6341467, 87.3780518, -18.7195129, -0.1408255
0.9331055, -0.1855469, -0.6357422, -9.8780489, 88.1707306, -18.2926826, -0.1576104
0.9125977, -0.1577148, -0.6318359, -11.280488, 87.9878082, -18.6585369, -0.1769131
0.9086914, -0.152832, -0.6352539, -11.9512196, 87.2560959, -19.2682934, -0.1968872
0.909668, -0.1630859, -0.6362305, -14.3292685, 85.3658524, -20.3048782, -0.2042725
0.9135742, -0.1733398, -0.628418, -15.6097565, 84.146347, -20.2439022, -0.2150149
0.9394531, -0.1875, -0.5888672, -16.9512196, 81.7682953, -19.8170738, -0.2136721
0.9487305, -0.1982422, -0.5605469, -17.0121956, 81.0975647, -20.1829281, -0.1911803
0.9594727, -0.2207031, -0.5073242, -15.9756098, 81.2804871, -20.9756107, -0.1418326
0.9365234, -0.2299805, -0.4697266, -14.8780489, 81.5853653, -21.4634151, -0.0730144
0.9213867, -0.2260742, -0.4550781, -13.5365858, 81.1585388, -21.0975609, 0.0099031
0.8989258, -0.2094727, -0.4375, -12.4390249, 79.5731735, -20.3658543, 0.0829175
0.8955078, -0.2021484, -0.4306641, -12.1341467, 77.9268341, -20.3658543, 0.1346151
0.9013672, -0.1875, -0.4155273, -11.219512, 75.2439041, -20.8536587, 0.1629816
0.9101562, -0.1816406, -0.4150391, -10.7926836, 73.7195129, -21.0365868, 0.1717098
0.9228516, -0.1723633, -0.4199219, -9.5121956, 70.9756088, -21.280489, 0.1609674
0.9326172, -0.1704102, -0.4228516, -9.2682924, 69.5731735, -21.1585369, 0.1468681
0.9448242, -0.1635742, -0.4267578, -8.1097565, 66.5853653, -20.9756107, 0.1310903
0.9492188, -0.1567383, -0.4306641, -7.5609756, 65.3658524, -20.4878044, 0.1153124
0.9560547, -0.144043, -0.4428711, -6.6463418, 62.4390259, -19.6951218, 0.1045701
0.9658203, -0.1401367, -0.4628906, -6.7073174, 61.2195129, -19.2073174, 0.0840925
0.9594727, -0.137207, -0.4736328, -7.0121951, 59.0853691, -18.5975609, 0.0629435
0.9614258, -0.1430664, -0.4804688, -6.9512196, 55.9146347, -17.6829281, 0.0412909
0.9609375, -0.1484375, -0.4838867, -6.890244, 55.1219521, -17.1341476, 0.026688
0.9658203, -0.1640625, -0.4863281, -6.0975609, 53.0487823, -17.1951218, 0.0172885
0.9638672, -0.1674805, -0.4926758, -5.4878049, 52.1951218, -16.8292694, 0.0162814
0.9516602, -0.1655273, -0.5249023, -5.3658538, 51.2195129, -15.8536587, 0.0127565
0.9433594, -0.1660156, -0.5341797, -6.0975609, 50.6707344, -14.6341467, -0.0015106
0.9365234, -0.1499023, -0.5302734, -6.6463418, 49.4512215, -12.9268293, -0.008896
0.9379883, -0.137207, -0.519043, -7.0731707, 48.6585388, -12.3780489, -0.0176242
0.9580078, -0.1220703, -0.5043945, -6.8292685, 47.3780518, -12.6219511, -0.0223239
0.9624023, -0.1166992, -0.5112305, -7.1951222, 47.4390259, -12.9268293, -0.0270237
0.9648438, -0.1201172, -0.5170898, -8.841464, 46.5853653, -13.2926836, -0.0265202
0.9707031, -0.1376953, -0.5092773, -10.9146347, 45.1829262, -13.0487804, -0.0340734
0.9736328, -0.152832, -0.4926758, -11.5853662, 43.841465, -12.7439032, -0.0424659
0.9833984, -0.1679688, -0.453125, -10.7317076, 42.8658562, -12.6829271, -0.0397803
0.9755859, -0.1694336, -0.4487305, -10.1219511, 43.1707344, -12.560976, -0.0411231
0.9501953, -0.1660156, -0.4667969, -9.1463413, 44.1463432, -11.5243902, -0.0458228
0.9360352, -0.1640625, -0.4755859, -9.0243902, 44.0243912, -10.7926836, -0.0438087
0.9248047, -0.1538086, -0.4897461, -9.6341467, 42.9878044, -9.7560978, -0.0436408
0.9311523, -0.1499023, -0.4892578, -9.4512196, 42.5609779, -9.4512196, -0.0451514
0.9477539, -0.1376953, -0.4863281, -8.9634151, 42.1341476, -10.5487804, -0.0501869
0.9663086, -0.1298828, -0.472168, -8.9024391, 42.1951218, -10.9756098, -0.0475013
0.9716797, -0.1264648, -0.4736328, -8.841464, 42.3170738, -11.5853662, -0.0424659
0.9780273, -0.1230469, -0.4755859, -10.4268293, 41.2804871, -11.7682934, -0.0397803
0.9804688, -0.1181641, -0.487793, -11.4634151, 40.7317085, -11.5243902, -0.0377661
0.9799805, -0.1269531, -0.5087891, -14.7560978, 39.8780479, -9.8780489, -0.0350805
0.9814453, -0.1342773, -0.5078125, -15.7317076, 39.4512215, -9.2073174, -0.0303807
0.9892578, -0.1430664, -0.4848633, -15.9146347, 38.2317085, -8.5975609, -0.0377661
0.9921875, -0.1435547, -0.4760742, -15.1829271, 37.8658562, -8.4146347, -0.0404517
0.9790039, -0.1386719, -0.4682617, -14.0243902, 37.2560997, -8.3536587, -0.0485084
0.9765625, -0.1401367, -0.4628906, -13.841464, 36.8292694, -8.1097565, -0.0641184
0.9765625, -0.1479492, -0.4541016, -14.4512196, 35.1829262, -7.5, -0.0780499
0.9794922, -0.1499023, -0.4335938, -15, 34.0853653, -7.1951222, -0.093492
0.9853516, -0.1547852, -0.421875, -15.4878054, 32.0731697, -5.8536587, -0.1176623
1.0009766, -0.1376953, -0.4101562, -15.4268293, 31.0365868, -5.4268293, -0.1378042
1.0092773, -0.1323242, -0.4057617, -14.8780489, 30.1219521, -5.8536587, -0.160296
1.0205078, -0.1274414, -0.4116211, -14.9390249, 28.1097565, -5.670732, -0.1812772
1.019043, -0.1308594, -0.4160156, -15.060976, 27.1341476, -5.1829271, -0.1955444
1.0268555, -0.1386719, -0.4243164, -16.2195129, 24.4512196, -4.0853658, -0.2106508
1.0307617, -0.1430664, -0.4208984, -16.2195129, 23.2926826, -3.4146342, -0.2190433
1.0351562, -0.1547852, -0.4130859, -16.280489, 21.4634151, -2.804878, -0.2086366
1.0288086, -0.1601562, -0.4072266, -16.0975609, 20.9756107, -2.7439024, -0.1804379
1.019043, -0.1704102, -0.3886719, -15.6707325, 19.7560978, -2.3780489, -0.142504
1.0014648, -0.1733398, -0.3618164, -14.8780489, 19.1463413, -2.2560976, -0.1109483
0.9931641, -0.168457, -0.3476562, -13.841464, 17.0121956, -2.2560976, -0.0908064
0.9755859, -0.1699219, -0.3276367, -12.6219511, 14.5121956, -2.5609756, -0.0626078
0.9672852, -0.1669922, -0.3261719, -12.0731707, 13.5365858, -2.4390244, -0.0337377
0.953125, -0.1625977, -0.3398438, -11.219512, 11.5243902, -1.8902439, -0.0018463
0.9526367, -0.15625, -0.3422852, -10.7317076, 9.8780489, -1.4634147, 0.0340734
0.9589844, -0.1635742, -0.3623047, -9.9390249, 6.7682929, -1.6463414, 0.0770428
0.9682617, -0.1674805, -0.3793945, -9.3902445, 4.7560978, -1.6463414, 0.1206836
0.9853516, -0.1865234, -0.4179688, -8.6585369, 2.4390244, -1.7073171, 0.1589532
0.9868164, -0.1962891, -0.440918, -8.1097565, 1.8902439, -1.5243902, 0.1790951
0.980957, -0.2094727, -0.4716797, -8.1097565, 0.9146342, -0.5487805, 0.1789273
0.9750977, -0.1972656, -0.4799805, -7.8658538, 0.1829268, -0.1829268, 0.1656672
0.9750977, -0.1884766, -0.4790039, -6.6463418, -0.7317073, 0.1829268, 0.1418326
0.9697266, -0.1577148, -0.4663086, -5.3658538, -1.6463414, 0.1219512, 0.1220264
0.9746094, -0.1479492, -0.4584961, -5.2439027, -1.9512196, 0.1829268, 0.0985275
0.9887695, -0.1269531, -0.4306641, -5.4268293, -3.0487804, 0.3048781, 0.0748608
0.9956055, -0.121582, -0.4174805, -5.9146342, -4.0243902, 0.9146342, 0.0548867
1.0048828, -0.1069336, -0.3935547, -6.5853658, -5.670732, 1.4634147, 0.040116
1.0029297, -0.1040039, -0.3950195, -6.890244, -6.4024391, 1.9512196, 0.0250095
0.9916992, -0.0976562, -0.4379883, -8.780488, -8.2926826, 3.6585367, 0.0112459
0.9833984, -0.1000977, -0.4560547, -9.9390249, -9.5731707, 4.5731707, -0.0082246
0.9760742, -0.1123047, -0.4575195, -12.6829271, -12.2560978, 6.7682929, -0.0196384
0.9707031, -0.1298828, -0.4326172, -12.8658543, -13.4756098, 7.2560978, -0.0199741
0.9677734, -0.1391602, -0.4174805, -11.341464, -15.1829271, 6.8292685, -0.0206455
0.9604492, -0.1611328, -0.4018555, -10.4268293, -16.3414631, 6.1585369, -0.0203098
0.9472656, -0.1728516, -0.4052734, -10.3658543, -16.7073174, 6.280488, -0.0092317
0.9233398, -0.1923828, -0.421875, -10.4878054, -19.0243912, 7.5609756, 0.0031891
0.9228516, -0.1938477, -0.434082, -10.9756098, -20.2439022, 8.0487804, 0.01561
0.9331055, -0.1904297, -0.4692383, -10.7317076, -22.8658543, 9.1463413, 0.0283665
0.9516602, -0.1923828, -0.4799805, -10.8536587, -24.2073174, 9.1463413, 0.0317235
0.9853516, -0.1933594, -0.4750977, -10.4268293, -26.0365868, 9.1463413, 0.040116
0.9975586, -0.1962891, -0.4560547, -9.9390249, -26.280489, 9.3292685, 0.0384375
1.0073242, -0.1811523, -0.4111328, -8.780488, -25.9146347, 9.7560978, 0.0276951
0.9970703, -0.1567383, -0.3706055, -8.780488, -25.9756107, 10.060976, 0.0184634
0.9873047, -0.1391602, -0.3623047, -9.2682924, -26.5243912, 10.7317076, 0.0152743
0.9643555, -0.1235352, -0.3828125, -10.9146347, -29.0243912, 10.9146347, 0.0117494
0.9604492, -0.1191406, -0.3994141, -12.2560978, -31.0365868, 11.5853662, 0.0041962
0.9667969, -0.1352539, -0.4155273, -14.3292685, -35.4268303, 12.9268293, 0.0010071
0.9731445, -0.1494141, -0.4194336, -14.6951227, -36.8292694, 13.1707315, -0.0068818
0.9638672, -0.1733398, -0.4414062, -14.8780489, -38.0487823, 13.9634151, -0.0038605
0.9541016, -0.1767578, -0.4575195, -14.9390249, -38.4756088, 14.6341467, -0.0038605
0.9267578, -0.1679688, -0.4838867, -15.6097565, -38.9024391, 16.4024391, -0.0041962
0.9228516, -0.1513672, -0.484375, -15.9756098, -39.5731735, 17.5, -0.0092317
0.9331055, -0.1323242, -0.4760742, -16.4634151, -41.8902435, 18.780489, -0.0176242
0.9707031, -0.1113281, -0.4609375, -16.6463413, -43.2317085, 18.7195129, -0.0229953
0.9853516, -0.105957, -0.4609375, -17.439024, -45.4878044, 18.1707325, -0.0323949
1.0141602, -0.1098633, -0.4829102, -19.3902435, -47.3780518, 18.9634151, -0.0407874
1.019043, -0.1201172, -0.4882812, -20.6707325, -48.841465, 19.6951218, -0.0505226
1.0141602, -0.1391602, -0.4853516, -22.560976, -51.2804909, 22.3170738, -0.0528725
1.0161133, -0.1420898, -0.4785156, -23.1707325, -52.1951218, 23.5365868, -0.0552224
0.9995117, -0.1411133, -0.4672852, -22.9268303, -53.4146347, 25.1829281, -0.0535439
0.9882812, -0.1416016, -0.4628906, -23.1097565, -54.3292694, 26.0975609, -0.0585794
0.9741211, -0.1474609, -0.4550781, -23.780489, -56.9512215, 27.2560978, -0.0525368
0.9716797, -0.1474609, -0.4345703, -24.1463413, -58.1097565, 27.560976, -0.0501869
0.9707031, -0.1425781, -0.4291992, -24.4512196, -60.8536606, 28.1097565, -0.0513619
0.9760742, -0.1313477, -0.4257812, -24.1463413, -62.2560997, 28.841465, -0.056733
0.9775391, -0.1303711, -0.4277344, -24.7560978, -64.6341476, 29.6951218, -0.0652934
0.9868164, -0.1450195, -0.4370117, -25.4878063, -67.3780518, 29.6951218, -0.0639506
0.9814453, -0.1533203, -0.4545898, -25.7926826, -68.9024429, 29.5731716, -0.0679789
0.9604492, -0.1708984, -0.5014648, -27.1341476, -71.7073212, 30.4878063, -0.0750286
0.9487305, -0.1738281, -0.5200195, -28.1097565, -72.9268341, 31.4634151, -0.0780499
0.9477539, -0.171875, -0.5317383, -29.5731716, -75.7926865, 33.3536606, -0.0849317
0.9609375, -0.1733398, -0.5161133, -29.8170738, -76.7682953, 33.4146347, -0.10692
0.9916992, -0.1689453, -0.4560547, -29.3292694, -78.4146347, 31.8902454, -0.1519036
1.0117188, -0.1889648, -0.4077148, -28.9024391, -78.9634171, 30.4878063, -0.1965515
1.0126953, -0.2070312, -0.4018555, -28.7195129, -80.9146347, 29.1463413, -0.2163577
1.0014648, -0.2407227, -0.4428711, -29.2073174, -83.7195129, 29.6341476, -0.2066224
0.9926758, -0.2558594, -0.4736328, -29.8170738, -85.7317123, 30.6707325, -0.1797665
0.9746094, -0.2705078, -0.5351562, -29.5121956, -88.4146347, 33.1707306, -0.1532464
0.9785156, -0.2719727, -0.5585938, -28.7195129, -89.5121994, 33.841465, -0.1223621
0.9916992, -0.2480469, -0.5673828, -25.8536587, -90.3048782, 34.4512215, -0.0998703
0.9960938, -0.2363281, -0.559082, -24.5121956, -90.2439041, 33.9634171, -0.0835889
0.9990234, -0.206543, -0.5195312, -22.6219521, -89.8780518, 32.8658562, -0.0679789
1, -0.1928711, -0.5019531, -21.8902435, -90, 32.5, -0.0431373
0.9780273, -0.1884766, -0.4975586, -22.3170738, -91.8902435, 31.2195129, -0.0125887
0.9296875, -0.1791992, -0.5639648, -23.0487804, -93.4756088, 31.341465, 0.0186313
0.9130859, -0.1777344, -0.6142578, -25.4268303, -97.68293, 34.2073174, 0.036759
0.9145508, -0.1835938, -0.7036133, -27.0731716, -101.8292694, 36.4024391, 0.0505226
0.9296875, -0.1889648, -0.7255859, -27.4390259, -103.4756088, 37.4390259, 0.0508583
0.9731445, -0.2055664, -0.7192383, -26.7073174, -104.8780518, 38.1707344, 0.0548867
0.9926758, -0.2070312, -0.6943359, -25.8536587, -104.9390259, 38.1707344, 0.0594186
1.0107422, -0.215332, -0.6538086, -23.5365868, -104.3292694, 37.3170738, 0.0636149
0.9921875, -0.2182617, -0.6435547, -23.1097565, -104.2073212, 36.9512215, 0.063447
0.9604492, -0.2280273, -0.6318359, -23.2317085, -105.4268341, 37.6219521, 0.0802319
0.9477539, -0.2333984, -0.621582, -23.5365868, -106.5853653, 38.1707344, 0.0951705
0.9360352, -0.2368164, -0.6030273, -23.9634151, -110.2439041, 39.0853653, 0.0998703
0.9326172, -0.2426758, -0.5908203, -23.2317085, -111.7073212, 39.1463432, 0.0976883
0.9277344, -0.237793, -0.5966797, -22.3780499, -113.5365906, 39.0243912, 0.0814069
0.9189453, -0.2211914, -0.6367188, -21.8292694, -115, 39.5731735, 0.0674754
0.9130859, -0.2080078, -0.6591797, -22.1951218, -116.0365906, 39.5731735, 0.0639506
0.9169922, -0.1953125, -0.6831055, -24.3292694, -119.6341476, 40.6707344, 0.0619364
0.9331055, -0.1962891, -0.6850586, -24.9390259, -121.1585388, 40.3048782, 0.0508583
0.9370117, -0.2265625, -0.6977539, -26.0975609, -122.9878082, 39.6951218, 0.0485084
0.9277344, -0.2446289, -0.7182617, -26.5853672, -123.6585388, 39.6341476, 0.0481727
0.9003906, -0.2783203, -0.7587891, -27.560976, -124.3292694, 41.1585388, 0.0417945
0.8857422, -0.2836914, -0.7758789, -27.8048782, -124.4512253, 42.0121956, 0.0246738
0.8696289, -0.277832, -0.7641602, -27.4390259, -124.8780518, 44.0853653, -0.0149386
0.8813477, -0.2587891, -0.7089844, -27.1951218, -124.8170776, 44.4512215, -0.043473
0.8852539, -0.2543945, -0.6777344, -26.280489, -124.0853653, 43.1097565, -0.068986
0.8774414, -0.2524414, -0.6655273, -26.3414631, -123.9634171, 41.5243912, -0.0770428
0.8598633, -0.2597656, -0.6904297, -27.0121956, -124.3292694, 41.2804871, -0.0656291
0.8266602, -0.2744141, -0.7695312, -28.9024391, -126.8292694, 42.6829262, -0.0498512
0.824707, -0.2827148, -0.8129883, -29.7560978, -128.5975647, 43.4756126, -0.0290379
0.8481445, -0.3007812, -0.8505859, -29.9390259, -131.2195129, 45.7926826, -0.0095674
0.8637695, -0.3046875, -0.8530273, -29.2682934, -131.9512177, 46.8292694, 0.0068818
0.8994141, -0.3032227, -0.8261719, -27.6829281, -131.1585388, 47.3780518, 0.0166171
0.9091797, -0.2998047, -0.8085938, -26.8902454, -130.2439117, 47.1951218, 0.0260166
0.9003906, -0.2832031, -0.7651367, -26.7682934, -129.0853729, 46.341465, 0.0280308
0.8730469, -0.2753906, -0.7597656, -27.8658543, -129.5121918, 46.2804871, 0.0293736
0.8510742, -0.2758789, -0.7675781, -30.3048782, -132.3780518, 46.4024391, 0.0287022
0.8271484, -0.2929688, -0.7856445, -31.5853672, -136.5853729, 47.9878044, 0.0172885
0.8325195, -0.3041992, -0.7905273, -31.8292694, -138.7804871, 49.1463432, -0.0045319
0.8544922, -0.3173828, -0.7939453, -29.8780499, -140.7926788, 50.7926826, -0.0407874
0.8652344, -0.3178711, -0.7993164, -28.7195129, -140.9756165, 51.1585388, -0.0757
0.8745117, -0.2973633, -0.8095703, -26.3414631, -141.0975647, 51.8292694, -0.1075914
0.8710938, -0.2763672, -0.8110352, -25.9756107, -140.7317047, 52.3780518, -0.1263905
0.8686523, -0.2446289, -0.8110352, -25.8536587, -141.2195129, 53.3536606, -0.1366293
0.8662109, -0.2294922, -0.8129883, -26.4634151, -142.0121918, 53.6585388, -0.1404898
0.8549805, -0.2202148, -0.8300781, -28.0487804, -143.9634247, 54.0243912, -0.1304189
0.8525391, -0.2314453, -0.8349609, -28.9024391, -145.0609741, 54.6341476, -0.1097734
0.8603516, -0.2543945, -0.8232422, -30.4268303, -147.0731812, 55.6097565, -0.0827497
0.8769531, -0.2836914, -0.7670898, -29.9390259, -148.0487823, 56.8902435, -0.0673075
0.8798828, -0.2924805, -0.7441406, -29.3902454, -148.1707306, 57.1951218, -0.0532082
0.8481445, -0.2963867, -0.71875, -27.3780499, -148.1707306, 56.9512215, -0.0431373
0.831543, -0.3125, -0.7236328, -26.0365868, -148.9634247, 56.5853653, -0.0431373
0.8017578, -0.3481445, -0.7470703, -23.8414631, -152.5, 57.4390259, -0.0433051
0.7973633, -0.3666992, -0.7709961, -22.3780499, -154.6341553, 58.2926826, -0.0364233
0.8110352, -0.3706055, -0.8193359, -19.0853672, -156.4024353, 59.8170738, -0.0243381
0.8227539, -0.3525391, -0.8540039, -17.9268303, -156.2195129, 60.18293, -0.0166171
0.8466797, -0.2993164, -0.9121094, -16.8902435, -154.7561035, 60.18293, -0.0176242
0.878418, -0.2680664, -0.925293, -16.9512196, -153.7804871, 59.5731735, -0.0285344
0.8813477, -0.2675781, -0.9208984, -18.2926826, -152.6829376, 57.7439041, -0.0276951
0.8837891, -0.2851562, -0.9111328, -20.1829281, -151.8902435, 57.7439041, -0.0152743
0.8691406, -0.3007812, -0.918457, -20.9146347, -151.2804871, 58.5365868, 0.0008392
0.8476562, -0.328125, -0.934082, -20.8536587, -150.7926788, 61.2804909, 0.0273594
0.8466797, -0.3339844, -0.9287109, -20.2439022, -150.7317047, 62.5609779, 0.0602579
0.855957, -0.3232422, -0.8808594, -18.1097565, -150.4878082, 62.8048782, 0.0963455
0.8618164, -0.3149414, -0.8598633, -17.3170738, -150.1219482, 62.1951218, 0.1203479
0.8466797, -0.2919922, -0.8535156, -17.7439022, -148.5975647, 60.6707344, 0.1270619
0.828125, -0.2695312, -0.8754883, -19.0853672, -147.2561035, 60.2439041, 0.1226978
0.7983398, -0.2270508, -0.9462891, -23.7195129, -145.5487823, 61.1585388, 0.1015488
0.8325195, -0.2436523, -0.9663086, -26.8902454, -145.4878082, 61.2804909, 0.0740215
0.862793, -0.2739258, -0.9516602, -31.8902454, -148.8414612, 61.2804909, 0.0481727
0.8901367, -0.3383789, -0.9135742, -33.7804871, -152.5609741, 60.6707344, 0.0290379
0.8964844, -0.3720703, -0.90625, -33.5365868, -153.0487823, 61.0365868, 0.002182
0.8852539, -0.4082031, -0.9101562, -31.5243912, -152.3780518, 62.8048782, -0.0203098
0.8652344, -0.4077148, -0.9233398, -30, -151.8902435, 63.4146347, -0.0360876
0.8330078, -0.3852539, -0.9443359, -27.8658543, -151.0975647, 63.0487823, -0.0424659
0.828125, -0.3657227, -0.9467773, -27.3780499, -151.5243988, 62.1341476, -0.0411231
0.8310547, -0.3652344, -0.9418945, -27.9878063, -153.0487823, 59.6341476, -0.0357519
0.8325195, -0.3691406, -0.9355469, -28.7195129, -153.9634247, 58.9024391, -0.051194
0.8208008, -0.3842773, -0.9335938, -29.6341476, -155.9146423, 59.1463432, -0.0652934
0.8125, -0.3735352, -0.9526367, -29.5121956, -156.5853729, 59.6341476, -0.0767071
0.8149414, -0.3618164, -0.9702148, -28.1097565, -157.5609741, 61.1585388, -0.0837568
0.8354492, -0.3383789, -0.9692383, -26.0365868, -158.2317047, 60.9146347, -0.0864424
0.8432617, -0.3330078, -0.9482422, -25.1219521, -158.7195129, 60.6707344, -0.081239
0.847168, -0.3115234, -0.8984375, -23.2926826, -158.2317047, 59.8170738, -0.0721752
0.831543, -0.3110352, -0.8833008, -22.7439022, -157.4390259, 60.3048782, -0.0538796
0.7822266, -0.3154297, -0.9023438, -22.6219521, -157.5609741, 61.0975609, -0.0283665
0.7563477, -0.3134766, -0.9316406, -22.8658543, -157.7439117, 61.7682953, -0.0097353
0.7099609, -0.3251953, -0.9931641, -24.8170738, -159.5121918, 62.9268303, -0.0015106
0.7138672, -0.3364258, -1.0117188, -25.5487804, -160.9146423, 63.3536606, 0.0099031
0.7646484, -0.3706055, -1.0292969, -25.9146347, -164.0853729, 64.3292694, 0.0097353
0.8125, -0.4077148, -1.0244141, -25.4268303, -164.8780518, 64.3902435, -0.0008392
0.8227539, -0.4174805, -1.0214844, -23.4756107, -164.3902435, 65.4268341, -0.018967
0.8222656, -0.4160156, -1.0185547, -20.4878044, -162.1341553, 66.0365906, -0.0464942
0.8032227, -0.4047852, -1.019043, -18.9634151, -160.6097565, 65.7317123, -0.072343
0.7421875, -0.3671875, -1.0297852, -16.6463413, -158.4756165, 65.6707306, -0.10692
0.7211914, -0.3432617, -1.0234375, -16.4634151, -157.9878082, 65.7317123, -0.1263905
0.706543, -0.3183594, -0.9936523, -17.439024, -159.2682953, 64.5121994, -0.1129625
0.706543, -0.3144531, -0.9760742, -18.5365849, -160.0609741, 64.0243912, -0.0840925
0.6884766, -0.3198242, -0.9589844, -21.0975609, -162.3780518, 64.0243912, -0.0486763
0.6767578, -0.3149414, -0.9604492, -22.2560978, -162.6829376, 64.4512177, -0.017792
0.6577148, -0.3022461, -0.9814453, -24.3902435, -161.646347, 64.5121994, -0.0082246
0.6313477, -0.2988281, -1.0239258, -24.6951218, -162.0731812, 64.8170776, -0.005539
0.6367188, -0.3076172, -1.0493164, -26.3414631, -164.3292694, 66.2804871, -0.0142672
0.6865234, -0.3676758, -1.0512695, -28.3536587, -166.4634247, 67.1341476, -0.0172885
0.7138672, -0.4008789, -1.0234375, -28.9024391, -167.3780518, 67.4390259, 0.0018463
0.7270508, -0.4521484, -0.9511719, -27.4390259, -166.7073212, 66.4024429, 0.0152743
0.7041016, -0.4545898, -0.9243164, -25.6707325, -165.5487823, 65.4878082, 0.0196384
0.6132812, -0.4272461, -0.9399414, -22.0731716, -163.6585388, 64.7560959, 0.0159457
0.5703125, -0.4042969, -0.9741211, -20.9756107, -164.0853729, 64.8170776, 0.0078889
0.5268555, -0.371582, -1.0375977, -20.4878044, -167.2561035, 65.0609741, -0.0119173
0.5419922, -0.3681641, -1.0483398, -20.6707325, -169.0853729, 65.0609741, -0.0260166
0.59375, -0.3789062, -1.03125, -20.1219521, -171.5243988, 65.3658524, -0.0354162
0.644043, -0.3876953, -1.0239258, -19.4512196, -171.646347, 65.4878082, -0.0485084
0.65625, -0.3955078, -1.0366211, -18.4146347, -170, 65.7317123, -0.0807355
0.6547852, -0.4042969, -1.0756836, -17.3170738, -169.6341553, 66.4024429, -0.1173266
0.6547852, -0.4106445, -1.0805664, -16.8292694, -169.4512177, 65.9756088, -0.1317617
0.6455078, -0.421875, -1.0561523, -14.8170738, -169.7561035, 65.9756088, -0.1277333
0.6391602, -0.4233398, -1.03125, -13.841464, -169.3292694, 65.5487823, -0.1136339
0.6010742, -0.3945312, -1.0126953, -12.560976, -167.1341553, 64.5731735, -0.0944991
0.5703125, -0.375, -1.0136719, -13.1097565, -166.4024353, 64.3902435, -0.0777142
0.5209961, -0.3486328, -1.0166016, -13.6585369, -166.4024353, 63.9024391, -0.0681468
0.5073242, -0.3452148, -1.0205078, -14.4512196, -167.5609741, 63.9634171, -0.0552224
0.5053711, -0.3461914, -1.0390625, -15.9146347, -169.8780518, 64.3292694, -0.0407874
0.5185547, -0.3500977, -1.0576172, -16.4634151, -170.5487823, 64.9390259, -0.0270237
0.5410156, -0.3378906, -1.0625, -17.3780499, -169.7561035, 66.2804871, -0.0078889
0.5375977, -0.3310547, -1.0664062, -18.2317085, -167.0121918, 65.6097565, 0.026688
0.5400391, -0.3266602, -1.0668945, -18.9634151, -166.9512177, 65.9146347, 0.0582437
0.550293, -0.3393555, -1.0898438, -21.8292694, -167.3170776, 66.6463394, 0.0763714
0.5522461, -0.3544922, -1.1123047, -23.3536587, -167.3780518, 66.6463394, 0.0877852
0.546875, -0.3945312, -1.1430664, -25.6707325, -168.1707306, 67.3170776, 0.0931563
0.546875, -0.4140625, -1.1435547, -26.0365868, -167.86586, 67.3780518, 0.0941634
0.5703125, -0.4472656, -1.109375, -25.8536587, -167.5609741, 66.4024429, 0.0951705
0.5742188, -0.456543, -1.0703125, -24.8780499, -167.0121918, 65.2439041, 0.0944991
0.5458984, -0.46875, -0.9892578, -22.7439022, -165, 62.3170738, 0.0928206
0.480957, -0.4594727, -0.918457, -21.280489, -164.146347, 61.1585388, 0.0815747
0.4443359, -0.4375, -0.8989258, -19.1463413, -162.9268341, 59.0853691, 0.0532082
0.3466797, -0.4077148, -0.9262695, -18.780489, -163.0487823, 57.5609779, 0.0273594
0.3110352, -0.4013672, -0.9594727, -18.5975609, -164.7561035, 58.2317085, 0.0048676
0.3007812, -0.4121094, -1.0283203, -17.8658543, -170.3048859, 60.4878044, -0.0041962
0.3359375, -0.4223633, -1.0424805, -16.9512196, -173.2317047, 61.341465, -0.0166171
0.4438477, -0.440918, -1.0297852, -14.3292685, -175.7317047, 60.6097565, -0.0540475
0.4882812, -0.4360352, -1.0092773, -13.2926836, -174.7561035, 59.8170738, -0.0849317
0.5053711, -0.4023438, -0.9887695, -11.8292685, -169.7561035, 57.5609779, -0.1122911
0.4770508, -0.3730469, -0.9916992, -12.0121956, -167.5, 56.8902435, -0.1656672
0.3803711, -0.3212891, -1.0224609, -12.8658543, -165.5487823, 56.0365868, -0.2072938
0.3198242, -0.3056641, -1.0380859, -14.1463413, -166.5853729, 55.8536606, -0.2224002
0.3164062, -0.3188477, -1.0253906, -15.6097565, -169.9390259, 56.4024391, -0.2472419
0.331543, -0.3515625, -0.9882812, -15.4268293, -172.0731812, 57.0121956, -0.2740978
0.3466797, -0.359375, -0.9868164, -15.1219511, -171.0365906, 57.0121956, -0.2902113
0.3208008, -0.3481445, -1.0415039, -15.3048782, -167.4390259, 56.7073174, -0.2834974
0.3056641, -0.3481445, -1.0732422, -16.0365849, -166.4634247, 57.5, -0.2435492
0.3027344, -0.3535156, -1.0947266, -18.2926826, -167.0731812, 58.3536606, -0.1874876
0.3144531, -0.3540039, -1.0722656, -18.780489, -167.3170776, 57.8048782, -0.1344472
0.3271484, -0.3681641, -0.9921875, -19.2682934, -166.7073212, 55.9756126, -0.0847639
0.2988281, -0.3896484, -0.9130859, -19.2073174, -165.7926941, 55.2439041, -0.0459907
0.2792969, -0.3930664, -0.8930664, -17.9268303, -164.5731812, 55.1219521, -0.0260166
0.2016602, -0.3925781, -0.8916016, -17.0731716, -163.9634247, 54.4512215, -0.0115816
0.1743164, -0.3818359, -0.8989258, -14.6951227, -164.9390259, 55.18293, 0.0052033
0.1469727, -0.362793, -0.918457, -12.0731707, -167.3170776, 54.7560997, 0.0206455
0.1425781, -0.3540039, -0.9453125, -11.8292685, -167.9878082, 54.3292694, 0.0428016
0.1513672, -0.3500977, -1.0141602, -12.3780489, -168.9024506, 54.0243912, 0.0629435
0.1640625, -0.3564453, -1.0410156, -13.4756098, -169.3902435, 54.3902435, 0.0693217
0.2182617, -0.3583984, -1.0551758, -14.2682934, -169.0853729, 54.5121956, 0.0501869
0.2421875, -0.3530273, -1.0493164, -14.6341467, -168.0487823, 53.841465, 0.0179599
0.246582, -0.3286133, -1.0195312, -15.4268293, -164.6951294, 51.6463432, 0.0025177
0.2265625, -0.3208008, -1.0131836, -15.9146347, -163.5975647, 51.0975609, 0.0005035
0.2011719, -0.3227539, -1.0200195, -16.6463413, -164.0243988, 51.4634171, 0.0005035
0.1777344, -0.3461914, -1.0307617, -16.8292694, -164.9390259, 52.4390259, 0.0250095
0.175293, -0.3598633, -1.0234375, -15.4878054, -166.0975647, 54.4512215, 0.0743572
0.1816406, -0.3691406, -0.96875, -12.8048782, -163.8414612, 53.9634171, 0.1139696
0.1728516, -0.355957, -0.9370117, -11.7682934, -161.4634247, 52.4390259, 0.1258869
0.1157227, -0.3320312, -0.9140625, -11.0365858, -158.2317047, 50.0609779, 0.1085985
0.0761719, -0.3286133, -0.921875, -11.5243902, -158.7804871, 50.4268303, 0.0565652
0.0195312, -0.3598633, -0.9604492, -11.8902445, -163.4146423, 53.5365868, 0.0008392
0.0209961, -0.3789062, -0.9785156, -11.4634151, -166.2195129, 55.4268303, -0.0391089
0.0698242, -0.4116211, -1.0078125, -7.3780489, -167.7439117, 57.3170738, -0.0592508
0.1235352, -0.4086914, -1.0219727, -5.2439027, -166.8292694, 57.4390259, -0.0565652
0.1362305, -0.3930664, -1.0146484, -2.2560976, -162.4390259, 56.0365868, -0.0216526
0.1416016, -0.3417969, -0.9765625, -2.0121951, -157.8048859, 53.841465, 0.0488441
0.128418, -0.3115234, -0.9575195, -3.5975611, -156.7073212, 52.6219521, 0.1292439
0.0639648, -0.2695312, -0.9360352, -7.3170733, -155.6707306, 50.9756126, 0.2030976
0.0200195, -0.253418, -0.9482422, -9.6951218, -156.4024353, 51.4024391, 0.2552987
-0.0371094, -0.2636719, -0.9707031, -12.560976, -160.4268341, 53.7804909, 0.2885328
-0.0307617, -0.2856445, -0.9741211, -12.3170738, -162.9268341, 55.2439041, 0.2992752
0.0166016, -0.3422852, -0.9824219, -10.2439022, -166.2804871, 56.9512215, 0.3012894
0.0380859, -0.3676758, -1.0019531, -8.9024391, -165.6097565, 57.2560997, 0.2858473
0.0722656, -0.3852539, -1.0185547, -7.6219516, -161.8902435, 57.8048782, 0.2596628
0.078125, -0.3525391, -0.9931641, -7.5, -159.2682953, 57.4390259, 0.2328069
0.0605469, -0.3208008, -0.9726562, -9.2073174, -155.2439117, 54.4512215, 0.2012512
-0.0058594, -0.2626953, -0.9511719, -13.0487804, -153.5975647, 51.2195129, 0.156939
-0.0444336, -0.2470703, -0.9604492, -15.4268293, -154.0853729, 51.341465, 0.1193408
-0.0913086, -0.2470703, -0.9726562, -19.8170738, -157.3780518, 53.2926826, 0.0891279
-0.0820312, -0.2587891, -0.956543, -20.7926826, -159.0853729, 54.1463432, 0.0696574
-0.0400391, -0.2880859, -0.8798828, -20.9146347, -160.1829376, 53.2926826, 0.0582437
-0.0239258, -0.3046875, -0.8364258, -20.3658543, -159.2682953, 52.3170738, 0.0397803
-0.0551758, -0.3115234, -0.8203125, -20.3048782, -156.646347, 50.9756126, 0.0179599
-0.0966797, -0.3149414, -0.8540039, -20.6097565, -156.4024353, 51.8902435, 0.0062104
-0.1557617, -0.3320312, -0.9716797, -21.0975609, -157.6219482, 55.6097565, -0.005539
-0.1274414, -0.3623047, -1.0488281, -20.4878044, -159.2682953, 57.5609779, -0.0203098
-0.0878906, -0.3745117, -1.0488281, -16.7073174, -160.5487823, 58.0487823, -0.0417945
-0.015625, -0.3818359, -0.9848633, -12.1341467, -157.2561035, 55.5487823, -0.061265
0.0063477, -0.3823242, -0.9326172, -10.4268293, -154.2073212, 54.2682953, -0.0847639
0.0009766, -0.3657227, -0.8588867, -8.9634151, -147.6829376, 52.1341476, -0.1005417
-0.0410156, -0.3500977, -0.8540039, -8.9024391, -145.7317047, 51.8292694, -0.1030594
-0.1352539, -0.324707, -0.8955078, -9.8780489, -146.0365906, 52.5, -0.1149767
-0.1679688, -0.3178711, -0.9233398, -9.6951218, -147.8048859, 53.1097565, -0.1319295
-0.1914062, -0.3061523, -0.9707031, -8.1097565, -151.5853729, 53.6585388, -0.1552605
-0.1835938, -0.3037109, -0.9941406, -7.1341467, -152.9878082, 53.6585388, -0.1777523
-0.1357422, -0.2954102, -1.0024414, -5.7317076, -152.4390259, 54.2073174, -0.2056153
-0.0742188, -0.293457, -0.9594727, -5.609756, -151.2804871, 53.7195129, -0.2588235
-0.0610352, -0.2783203, -0.9238281, -6.5853658, -147.9878082, 52.0731735, -0.3012894
-0.081543, -0.2636719, -0.8515625, -8.4756098, -145.6097565, 50.4268303, -0.3311666
-0.1123047, -0.2612305, -0.8217773, -9.5731707, -145.2439117, 50.4268303, -0.3466087
-0.1850586, -0.2490234, -0.8198242, -11.0365858, -145.36586, 51.4634171, -0.3563439
-0.2241211, -0.237793, -0.8432617, -11.5853662, -146.1585388, 52.4390259, -0.3563439
-0.2670898, -0.2324219, -0.9023438, -13.2317076, -146.2804871, 53.3536606, -0.3378805
-0.2773438, -0.2319336, -0.9116211, -14.1463413, -147.1341553, 53.841465, -0.3190814
-0.2426758, -0.2421875, -0.8881836, -15.2439032, -148.2926788, 53.7195129, -0.3103532
-0.2197266, -0.2441406, -0.8598633, -16.0365849, -148.1707306, 53.4756126, -0.3137102
-0.1948242, -0.2543945, -0.8344727, -17.8048782, -146.7682953, 53.1707344, -0.3279774
-0.2172852, -0.2773438, -0.8642578, -18.6585369, -145.9146423, 53.7195129, -0.3244526
-0.234375, -0.2885742, -0.8833008, -19.8780499, -145.4878082, 56.0975609, -0.2915541
-0.2456055, -0.2973633, -0.8754883, -19.0853672, -144.8780518, 57.4390259, -0.2368353
-0.2456055, -0.284668, -0.8466797, -18.2317085, -144.0243988, 56.8902435, -0.1707027
-0.2583008, -0.2631836, -0.8242188, -18.4146347, -141.4634247, 53.9634171, -0.0874495
-0.2807617, -0.2573242, -0.8491211, -19.8170738, -140.6097565, 53.2317085, -0.0025177
-0.315918, -0.284668, -0.909668, -23.5975609, -140.7317047, 54.0243912, 0.0703288
-0.3100586, -0.3110352, -0.9301758, -24.3292694, -142.1951294, 55.2439041, 0.1173266
-0.2636719, -0.3525391, -0.9570312, -22.439024, -143.9634247, 56.341465, 0.1643244
-0.2373047, -0.3686523, -0.9575195, -20.1219521, -143.1707306, 55.8536606, 0.2019226
-0.1923828, -0.3930664, -0.9174805, -15.3048782, -138.7804871, 54.1463432, 0.2344854
-0.1879883, -0.3657227, -0.8442383, -13.9024391, -135.6097565, 52.9268303, 0.2599985
-0.2167969, -0.3295898, -0.8081055, -13.5365858, -129.7561035, 49.5731735, 0.2749371
-0.3071289, -0.2553711, -0.7666016, -15.8536587, -126.5853653, 46.6463432, 0.2803082
-0.3598633, -0.2241211, -0.7597656, -17.560976, -126.8292694, 46.0975609, 0.2804761
-0.4311523, -0.2016602, -0.78125, -21.5853672, -130.1219482, 46.5243912, 0.2724193
-0.434082, -0.2119141, -0.796875, -23.1097565, -132.3780518, 46.7073174, 0.261677
-0.4018555, -0.2597656, -0.8085938, -24.6341476, -135.2439117, 48.1707344, 0.251606
-0.3676758, -0.2783203, -0.7998047, -24.2682934, -135.5487823, 48.9024391, 0.2428779
-0.3017578, -0.2988281, -0.7910156, -21.8902435, -133.1707306, 48.7195129, 0.2274357
-0.2915039, -0.2973633, -0.8129883, -21.1585369, -131.1585388, 48.5365868, 0.1958801
-0.2954102, -0.2983398, -0.8930664, -21.7682934, -127.86586, 48.841465, 0.1498894
-0.3139648, -0.2895508, -0.9375, -22.9268303, -127.4390259, 49.6341476, 0.1045701
-0.2944336, -0.2783203, -0.9262695, -24.3292694, -127.2561035, 50.3658562, 0.0699931
-0.2485352, -0.262207, -0.8427734, -25.7317085, -126.8292694, 47.1341476, 0.0428016
-0.2504883, -0.2519531, -0.7871094, -26.5243912, -125.5487823, 45.3048782, 0.0129244
-0.3076172, -0.2202148, -0.7231445, -29.5121956, -122.0121994, 44.0243912, -0.0203098
-0.3613281, -0.2026367, -0.7338867, -31.4634151, -120.9756088, 44.3902435, -0.0508583
-0.4458008, -0.1884766, -0.7890625, -34.8780479, -121.4634171, 47.3780518, -0.0679789
