Application:, Trigno Discover (1.6.5)
Date/Time:, 05/02/2025 16:22:08
Collection Length (seconds):, 23.949
wrist (81457), , , , , , bicep (81139)
sensor mode: 609, , , , , , sensor mode: 40
ACC X (G), ACC Y (G), ACC Z (G), GYRO X (deg/s), GYRO Y (deg/s), GYRO Z (deg/s), EMG 1 (mV)
370.3704 Hz, 370.3704 Hz, 370.3704 Hz, 370.3704 Hz, 370.3704 Hz, 370.3704 Hz, 2148.1481 Hz
0.9492188, -0.1376953, -0.1655273, -20.6097565, -5.8536587, 1.7682927, 0.0152743
0.9472656, -0.140625, -0.1665039, -20.9146347, -5.7926831, 2.5609756, 0.0092317
0.9555664, -0.1396484, -0.1645508, -20.1829281, -5.3048782, 2.7439024, 0.0146029
0.9624023, -0.1376953, -0.1679688, -19.7560978, -5.2439027, 2.8658538, 0.0018463
0.9736328, -0.140625, -0.1762695, -19.3292694, -5, 2.3170731, -0.0112459
0.9785156, -0.1401367, -0.1821289, -18.9024391, -5, 2.0731707, -0.01561
0.9858398, -0.1464844, -0.1899414, -19.3292694, -5.0609756, 2.2560976, -0.0139315
0.9951172, -0.1435547, -0.1757812, -19.5731716, -5.0609756, 2.4390244, -0.0176242
0.9970703, -0.1386719, -0.1733398, -18.9024391, -3.6585367, 2.9268293, -0.0206455
1, -0.1220703, -0.1728516, -18.6585369, -3.0487804, 2.8658538, -0.0152743
0.9985352, -0.1142578, -0.1767578, -17.6829281, -2.4390244, 3.2317073, -0.0176242
0.9956055, -0.1040039, -0.1894531, -17.6219521, -2.9268293, 3.2926829, -0.0236667
0.9931641, -0.1044922, -0.1948242, -18.4756107, -3.8414636, 3.1707318, -0.0243381
0.9956055, -0.1171875, -0.1918945, -20.1829281, -6.0975609, 3.0487804, -0.0313878
0.9990234, -0.1279297, -0.1899414, -20.9146347, -6.5853658, 3.2926829, -0.0243381
1.0043945, -0.1499023, -0.1772461, -21.6463413, -6.5243902, 3.3536587, -0.012253
1.0053711, -0.1523438, -0.1708984, -20.9146347, -6.280488, 3.3536587, -0.0162814
1, -0.1552734, -0.1503906, -19.5731716, -5.0609756, 3.1097562, -0.012253
0.9848633, -0.1503906, -0.1474609, -18.6585369, -4.8170733, 3.2317073, -0.0052033
0.9819336, -0.1445312, -0.1494141, -18.3536587, -4.2682929, 3.1097562, -0.008896
0.9741211, -0.1416016, -0.1552734, -18.4146347, -5.0609756, 2.9268293, 0.0005035
0.9697266, -0.1386719, -0.1552734, -19.6341476, -5.9756098, 3.1707318, 0.0085603
0.9702148, -0.1259766, -0.1503906, -20.1219521, -6.280488, 3.6585367, -0.0095674
0.9672852, -0.1279297, -0.1445312, -20.2439022, -7.1951222, 3.6585367, -0.0015106
0.9682617, -0.1318359, -0.1479492, -19.7560978, -7.5, 3.7195122, -0.0082246
0.9731445, -0.1328125, -0.1508789, -19.5731716, -7.6219516, 3.4756098, -0.0206455
0.9746094, -0.1469727, -0.15625, -19.6951218, -8.1097565, 3.2317073, -0.0224918
0.9750977, -0.1508789, -0.1567383, -20, -8.2926826, 3.2317073, -0.0327306
0.9785156, -0.1674805, -0.1469727, -20.4878044, -8.6585369, 2.9878049, -0.0421302
0.9746094, -0.1669922, -0.1479492, -19.8780499, -8.780488, 3.1097562, -0.0397803
0.9716797, -0.1645508, -0.1489258, -17.9268303, -9.0243902, 2.6829269, -0.0159457
0.9707031, -0.159668, -0.1625977, -17.2560978, -9.3902445, 2.7439024, 0.0283665
0.9741211, -0.1542969, -0.1674805, -16.3414631, -9.6951218, 3.0487804, 0.0703288
0.9819336, -0.1450195, -0.171875, -16.4024391, -9.6951218, 3.0487804, 0.0810712
0.9819336, -0.1425781, -0.1738281, -17.0121956, -9.5121956, 3.3536587, 0.0834211
0.9907227, -0.1352539, -0.1635742, -17.7439022, -8.9634151, 3.0487804, 0.0710002
0.9873047, -0.1279297, -0.1625977, -17.5, -8.5365858, 2.7439024, 0.0558938
0.9853516, -0.121582, -0.1645508, -17.439024, -8.0487804, 2.7439024, 0.0290379
0.9760742, -0.1235352, -0.1723633, -17.5, -7.5, 3.1707318, 0.0035248
0.965332, -0.1171875, -0.1811523, -17.8658543, -7.0731707, 4.3292685, -0.018967
0.9638672, -0.1088867, -0.1826172, -17.8048782, -7.3170733, 4.6341462, -0.0290379
0.9658203, -0.1074219, -0.1816406, -18.8414631, -7.1951222, 4.8780489, -0.0344091
0.9790039, -0.1235352, -0.1870117, -19.0243912, -7.1341467, 4.7560978, -0.0364233
0.9790039, -0.1313477, -0.1870117, -20.6707325, -7.5609756, 3.9634147, -0.0397803
0.9785156, -0.1547852, -0.1821289, -21.0365868, -7.5609756, 3.7804878, -0.0552224
0.9790039, -0.1616211, -0.1796875, -21.0975609, -7.3170733, 3.5365853, -0.0693217
0.9765625, -0.171875, -0.1733398, -20, -6.8292685, 3.7195122, -0.0797284
0.9755859, -0.175293, -0.1723633, -19.4512196, -6.3414636, 3.8414636, -0.0887922
0.9780273, -0.1704102, -0.1704102, -18.0487804, -5.4878049, 3.9024391, -0.0911421
0.9814453, -0.1674805, -0.168457, -17.6219521, -5, 4.0853658, -0.087953
0.9868164, -0.1499023, -0.15625, -17.1951218, -3.9024391, 4.2682929, -0.0834211
0.9897461, -0.1245117, -0.1489258, -16.8292694, -2.9878049, 4.1463413, -0.0827497
0.9882812, -0.112793, -0.1494141, -16.5243912, -2.4390244, 3.9024391, -0.0882887
0.9868164, -0.1040039, -0.1625977, -16.8292694, -2.8658538, 3.7195122, -0.0797284
0.9848633, -0.1040039, -0.1645508, -17.6219521, -3.5365853, 3.7804878, -0.0699931
0.9916992, -0.1191406, -0.1738281, -18.7195129, -4.4512196, 3.5975611, -0.0639506
0.9916992, -0.1289062, -0.1704102, -20.2439022, -5.5487804, 3.4146342, -0.0565652
0.9936523, -0.1533203, -0.1679688, -21.0365868, -5.670732, 3.5365853, -0.057908
0.9970703, -0.1621094, -0.1586914, -21.0975609, -5.2439027, 3.6585367, -0.0679789
0.9926758, -0.171875, -0.1547852, -19.6951218, -4.390244, 2.8658538, -0.0686503
0.987793, -0.168457, -0.1557617, -19.0853672, -3.7195122, 2.8658538, -0.0636149
0.9780273, -0.1655273, -0.1625977, -18.5365849, -3.2926829, 2.5609756, -0.0696574
0.9638672, -0.1523438, -0.1704102, -18.7195129, -2.9268293, 2.7439024, -0.0664683
0.9589844, -0.1469727, -0.1674805, -18.9634151, -3.0487804, 2.804878, -0.0713359
0.9643555, -0.1352539, -0.1616211, -19.6341476, -3.1707318, 2.7439024, -0.054551
0.9628906, -0.1347656, -0.1601562, -19.939024, -3.9024391, 2.4390244, -0.0498512
0.9746094, -0.1401367, -0.1513672, -20.1219521, -4.1463413, 2.3170731, -0.0525368
0.9770508, -0.1411133, -0.1474609, -20.8536587, -4.0243902, 2.5609756, -0.0417945
0.9760742, -0.1455078, -0.1494141, -20.8536587, -3.7195122, 2.3780489, -0.0384375
0.9750977, -0.1430664, -0.1552734, -20.7926826, -3.7804878, 2.6219513, -0.0374304
0.9736328, -0.1381836, -0.1713867, -20.4878044, -3.7804878, 2.4390244, -0.0317235
0.9726562, -0.1333008, -0.1826172, -20.4268303, -3.9024391, 2.6219513, -0.0280308
0.9707031, -0.1308594, -0.184082, -21.6463413, -3.7804878, 3.5365853, -0.0273594
0.9775391, -0.1308594, -0.1616211, -21.4634151, -3.7804878, 3.9634147, -0.0193027
0.9848633, -0.1323242, -0.1523438, -21.7682934, -3.5365853, 4.0853658, -0.0152743
0.9794922, -0.1328125, -0.1401367, -21.280489, -3.3536587, 3.8414636, -0.0206455
0.9780273, -0.1362305, -0.1381836, -20.9756107, -3.2317073, 3.2317073, -0.0234989
0.9682617, -0.1367188, -0.1484375, -20.8536587, -3.0487804, 3.1097562, -0.0109102
0.9667969, -0.1367188, -0.1572266, -21.280489, -4.1463413, 3.4146342, -0.0082246
0.9658203, -0.1411133, -0.1743164, -22.1341476, -4.6951222, 3.4756098, -0.0085603
0.9672852, -0.1479492, -0.1762695, -22.0121956, -5.1829271, 3.7804878, -0.0041962
0.9746094, -0.1523438, -0.1601562, -21.4024391, -4.6951222, 4.2682929, 0.0005035
0.9780273, -0.1464844, -0.1518555, -21.0975609, -4.5731707, 4.2682929, 0.0025177
0.9882812, -0.1425781, -0.1367188, -19.939024, -3.8414636, 4.5121951, 0.002182
0.9912109, -0.1396484, -0.1411133, -19.1463413, -3.4756098, 4.0243902, -0.0008392
0.987793, -0.1430664, -0.1489258, -19.4512196, -3.9024391, 3.5365853, -0.0041962
0.9863281, -0.1513672, -0.1582031, -19.8780499, -4.1463413, 3.2317073, -0.005539
0.9775391, -0.1542969, -0.1547852, -20.7317085, -5.1829271, 3.2317073, -0.0005035
0.9760742, -0.1518555, -0.1455078, -21.0975609, -5.4268293, 3.2926829, -0.0028534
0.9790039, -0.1518555, -0.1396484, -20.5487804, -5.670732, 3.5975611, -0.008896
0.9824219, -0.1455078, -0.1333008, -19.3292694, -5.609756, 3.2926829, 0.0005035
0.9858398, -0.1391602, -0.1333008, -18.9634151, -5.5487804, 3.1707318, 0.0105745
0.9897461, -0.1435547, -0.1464844, -18.9634151, -5.7317076, 2.6219513, 0.0132601
0.9936523, -0.1523438, -0.1542969, -19.3292694, -6.3414636, 2.4390244, 0.0271916
0.9936523, -0.1547852, -0.1601562, -20.060976, -7.3170733, 2.1341465, 0.0219883
0.9936523, -0.1625977, -0.1552734, -20.3658543, -7.4390244, 1.8292683, 0.0270237
0.9975586, -0.1635742, -0.1489258, -20, -7.1341467, 2.1341465, 0.0318914
0.9936523, -0.152832, -0.1499023, -19.7560978, -6.8292685, 2.0121951, 0.0246738
0.9946289, -0.1450195, -0.1450195, -18.8414631, -6.2195125, 2.0121951, 0.012253
0.9907227, -0.1376953, -0.1513672, -18.1707325, -5.7926831, 1.9512196, 0.0159457
0.9902344, -0.1313477, -0.1601562, -18.5365849, -6.0365853, 1.097561, 0.0193027
0.9863281, -0.1342773, -0.1645508, -19.3292694, -6.7682929, 0.7317073, 0.0105745
0.9858398, -0.1376953, -0.1650391, -20.2439022, -7.2560978, 0.7926829, 0.0199741
0.9921875, -0.1445312, -0.1606445, -21.5243912, -7.8048782, 0.6707317, 0.0075532
0.9902344, -0.144043, -0.1557617, -21.6463413, -7.8048782, 0.5487805, 0.0025177
0.9873047, -0.1455078, -0.15625, -22.0731716, -7.6219516, 0.4878049, -0.0015106
0.9848633, -0.1430664, -0.1469727, -21.7682934, -7.6219516, 0.3048781, 0.0023499
0.9819336, -0.137207, -0.1464844, -21.6463413, -7.5, 0, -0.0001678
0.984375, -0.1342773, -0.1420898, -21.5243912, -7.7439027, -0.0609756, 0.0001678
0.9833984, -0.1347656, -0.1386719, -21.280489, -8.1097565, -0.1829268, -0.0031891
0.96875, -0.1391602, -0.1386719, -21.3414631, -7.8658538, -0.1829268, 0.0030213
0.9614258, -0.1357422, -0.1362305, -21.1585369, -7.8048782, -0.3048781, -0.0010071
0.9458008, -0.1318359, -0.1342773, -21.3414631, -7.6219516, 0.5487805, -0.0125887
0.9428711, -0.1279297, -0.1386719, -21.0975609, -7.9878049, 0.6097561, -0.0196384
0.9350586, -0.1254883, -0.1547852, -21.3414631, -8.719512, 0.8536586, -0.0263523
0.9365234, -0.1259766, -0.1728516, -21.7073174, -9.2682924, 0.9756098, -0.0323949
0.9433594, -0.1235352, -0.1787109, -22.3170738, -9.9390249, 1.3414634, -0.0276951
0.96875, -0.1298828, -0.1791992, -22.6219521, -10.2439022, 1.5853659, -0.0323949
0.9819336, -0.1245117, -0.1733398, -22.3170738, -10.3048782, 2.0121951, -0.0501869
1.0039062, -0.1201172, -0.1621094, -21.8902435, -9.6951218, 2.3170731, -0.0592508
1.0078125, -0.1137695, -0.1621094, -20.9146347, -8.3536587, 2.6829269, -0.0464942
1.0195312, -0.109375, -0.1669922, -20.4878044, -8.0487804, 2.7439024, -0.0498512
1.0219727, -0.1108398, -0.1704102, -20.1219521, -7.3780489, 2.7439024, -0.0525368
1.0146484, -0.1162109, -0.1713867, -20.5487804, -7.1341467, 2.6219513, -0.0525368
1.0078125, -0.1162109, -0.1689453, -20.5487804, -7.3170733, 2.7439024, -0.0547189
1, -0.1230469, -0.1650391, -19.8170738, -7.1341467, 3.3536587, -0.0508583
0.9926758, -0.1308594, -0.1572266, -19.6341476, -6.9512196, 3.4146342, -0.0528725
0.9887695, -0.1333008, -0.1542969, -18.8414631, -6.9512196, 3.4756098, -0.0599222
0.9819336, -0.1450195, -0.1445312, -18.5975609, -6.890244, 3.4146342, -0.057908
0.9780273, -0.1479492, -0.1416016, -18.5975609, -8.1707315, 3.3536587, -0.0533761
0.9848633, -0.1645508, -0.1396484, -18.8414631, -8.6585369, 3.5365853, -0.0464942
0.9853516, -0.168457, -0.1425781, -18.2926826, -9.4512196, 2.9268293, -0.0407874
0.9882812, -0.1743164, -0.1469727, -17.8658543, -9.6951218, 2.6219513, -0.047837
0.9912109, -0.1713867, -0.1523438, -16.5853653, -9.5731707, 2.4390244, -0.054551
0.9956055, -0.1640625, -0.1586914, -15.5487804, -9.3902445, 2.3780489, -0.0543832
0.9975586, -0.1572266, -0.1645508, -15.060976, -9.4512196, 2.4390244, -0.0381018
0.9975586, -0.1479492, -0.1650391, -14.9390249, -9.3902445, 2.9268293, -0.0391089
0.9941406, -0.1264648, -0.1533203, -15.1219511, -9.3292685, 3.2317073, -0.0433051
0.9892578, -0.1108398, -0.152832, -15.6707325, -8.9634151, 3.2926829, -0.051194
0.9858398, -0.1010742, -0.1625977, -15.7926836, -9.2073174, 3.1707318, -0.0562295
0.9868164, -0.1049805, -0.1708984, -16.9512196, -9.4512196, 2.195122, -0.0498512
0.9765625, -0.1254883, -0.1772461, -17.8048782, -10, 2.195122, -0.0466621
0.9765625, -0.1347656, -0.1723633, -19.0243912, -10.9146347, 1.8292683, -0.0439765
0.9716797, -0.1523438, -0.1508789, -19.5121956, -10.7926836, 2.0731707, -0.04448
0.9648438, -0.1557617, -0.1381836, -18.4146347, -10.4878054, 2.0731707, -0.0397803
0.9589844, -0.1542969, -0.1303711, -16.5243912, -9.2073174, 2.0731707, -0.0377661
0.9580078, -0.1489258, -0.1328125, -15.6097565, -8.5975609, 1.8902439, -0.0461585
0.9428711, -0.1425781, -0.1484375, -14.8170738, -9.2682924, 1.8902439, -0.0417945
0.9384766, -0.1416016, -0.1767578, -15.060976, -9.4512196, 1.9512196, -0.0360876
0.9375, -0.1416016, -0.1884766, -15.8536587, -10.7317076, 1.5853659, -0.0276951
0.9545898, -0.1459961, -0.1953125, -15.9756098, -11.4024391, 1.7073171, -0.0283665
0.9614258, -0.1464844, -0.1967773, -16.280489, -11.0975609, 2.1341465, -0.0250095
0.9707031, -0.1411133, -0.1831055, -15.9146347, -10.8536587, 2.195122, -0.0206455
0.9790039, -0.1381836, -0.1826172, -14.9390249, -9.5731707, 2.5609756, -0.0256809
0.9873047, -0.1220703, -0.1787109, -14.3292685, -8.841464, 2.6829269, -0.0203098
0.9897461, -0.1162109, -0.1811523, -14.1463413, -7.9268293, 2.5609756, -0.0203098
0.9819336, -0.0991211, -0.2045898, -15.1219511, -7.8048782, 2.6219513, -0.0243381
0.9726562, -0.09375, -0.2104492, -16.1585369, -8.1097565, 3.3536587, -0.011078
0.9648438, -0.0810547, -0.2192383, -18.2317085, -8.0487804, 4.5121951, -0.0036927
0.9731445, -0.0820312, -0.2041016, -18.9024391, -8.0487804, 4.8780489, -0.0099031
0.9794922, -0.0888672, -0.1972656, -19.6341476, -7.9878049, 5.0609756, -0.0082246
0.9916992, -0.1108398, -0.1884766, -19.939024, -8.3536587, 5.1829271, -0.0062104
0.9931641, -0.1308594, -0.1845703, -20.060976, -8.6585369, 5.0609756, -0.0048676
0.9946289, -0.1572266, -0.1860352, -20.1219521, -8.5365858, 5.1829271, -0.0048676
0.9892578, -0.1694336, -0.1821289, -19.6951218, -7.5, 5.670732, 0.0052033
0.9814453, -0.1806641, -0.1772461, -17.8658543, -6.6463418, 6.0365853, 0.0065461
0.9814453, -0.1865234, -0.1772461, -16.9512196, -6.6463418, 5.609756, 0.0015106
0.9790039, -0.1914062, -0.1845703, -15.4878054, -6.3414636, 5.7317076, -0.0085603
0.9746094, -0.1899414, -0.1870117, -15, -6.280488, 5.609756, -0.0001678
0.9692383, -0.1811523, -0.1782227, -14.5121956, -6.0365853, 5.609756, 0.0048676
0.9746094, -0.1547852, -0.1708984, -14.3902445, -5.9146342, 5.7317076, 0.0048676
0.9746094, -0.1430664, -0.1616211, -13.780488, -5.4878049, 5.5487804, 0.0104067
0.9887695, -0.1181641, -0.1557617, -13.4756098, -5.4268293, 5.609756, 0.0169528
0.9956055, -0.1196289, -0.15625, -13.9634151, -6.3414636, 4.6951222, 0.0224918
1.0043945, -0.1264648, -0.1650391, -14.5731707, -6.5243902, 4.4512196, 0.0186313
1.0029297, -0.1391602, -0.1738281, -16.280489, -7.5, 3.7195122, 0.0031891
0.9936523, -0.1704102, -0.1855469, -17.439024, -7.1951222, 3.4756098, -0.0152743
0.9853516, -0.1772461, -0.1865234, -17.1951218, -6.9512196, 3.3536587, -0.0350805
0.9711914, -0.1850586, -0.1796875, -15.4268293, -5.609756, 4.4512196, -0.0424659
0.9682617, -0.1713867, -0.1748047, -13.6585369, -4.9390244, 5.1219511, -0.0468299
0.9648438, -0.1567383, -0.1621094, -11.1585369, -4.2073174, 4.8780489, -0.027863
0.9672852, -0.1420898, -0.1665039, -10.5487804, -4.2682929, 4.5731707, 0.0146029
0.9604492, -0.1401367, -0.1699219, -11.7073174, -4.8780489, 3.7195122, 0.043473
0.9589844, -0.1469727, -0.1738281, -12.6219511, -5.4268293, 3.4756098, 0.0616007
0.9555664, -0.1479492, -0.1777344, -14.2073174, -5.8536587, 3.7804878, 0.068986
0.9541016, -0.1469727, -0.1777344, -14.3292685, -5.9756098, 4.2682929, 0.0595865
0.9575195, -0.1459961, -0.1826172, -13.7195129, -6.280488, 5.5487804, 0.0407874
0.9716797, -0.1425781, -0.1865234, -12.9878054, -6.280488, 5.9756098, 0.0130922
0.9833984, -0.1420898, -0.1928711, -12.6829271, -6.2195125, 6.280488, -0.0115816
0.9995117, -0.1401367, -0.1977539, -12.9268293, -5.9756098, 6.0975609, -0.0223239
1.0073242, -0.1391602, -0.1972656, -13.1707315, -5.670732, 6.5853658, -0.026688
1.0097656, -0.1240234, -0.1914062, -13.4756098, -5, 6.6463418, -0.0396124
1.0092773, -0.1147461, -0.1806641, -13.4146347, -4.6341462, 7.1341467, -0.0498512
0.9985352, -0.1103516, -0.1762695, -14.0243902, -4.5731707, 7.1341467, -0.0575723
0.9931641, -0.1049805, -0.1674805, -14.5121956, -4.7560978, 7.9878049, -0.0676432
0.9873047, -0.1088867, -0.1665039, -15.3048782, -5.8536587, 8.2926826, -0.0767071
0.9794922, -0.1220703, -0.1694336, -15.9756098, -6.5853658, 8.0487804, -0.0827497
0.9794922, -0.128418, -0.1723633, -17.0731716, -8.1707315, 8.1707315, -0.0814069
0.9804688, -0.1430664, -0.171875, -17.5, -9.0853662, 8.2926826, -0.0849317
0.9794922, -0.1513672, -0.1708984, -17.6829281, -9.2073174, 8.4146347, -0.0867781
0.9863281, -0.1591797, -0.1640625, -17.1951218, -9.4512196, 8.6585369, -0.0840925
0.9926758, -0.1611328, -0.1713867, -17.0121956, -9.5121956, 8.5975609, -0.0767071
0.9897461, -0.1601562, -0.1875, -16.7073174, -9.2073174, 8.5365858, -0.0715038
0.9868164, -0.1674805, -0.2021484, -16.7682934, -9.4512196, 8.3536587, -0.0639506
0.9892578, -0.1689453, -0.203125, -17.5, -9.4512196, 8.4756098, -0.0563973
0.9819336, -0.1694336, -0.1904297, -17.560976, -9.2073174, 8.5975609, -0.0454871
0.9741211, -0.1650391, -0.1826172, -17.1951218, -8.4756098, 8.780488, -0.0337377
0.9658203, -0.1479492, -0.175293, -16.7073174, -8.0487804, 8.719512, -0.0270237
0.9599609, -0.1435547, -0.175293, -16.0365849, -7.9268293, 8.719512, -0.0283665
0.9536133, -0.1357422, -0.1816406, -16.5243912, -8.5365858, 8.5975609, -0.0072175
0.9521484, -0.1367188, -0.1831055, -17.1951218, -9.0243902, 8.5365858, 0.0052033
0.9580078, -0.1401367, -0.1791992, -18.4146347, -10.2439022, 9.0243902, 0.0105745
0.9580078, -0.1455078, -0.1660156, -18.5975609, -10.9146347, 9.2073174, 0.0172885
0.9624023, -0.1591797, -0.1435547, -17.439024, -11.341464, 9.2682924, 0.0330663
0.9711914, -0.1557617, -0.1420898, -16.3414631, -11.4634151, 9.0243902, 0.0381018
0.9726562, -0.1557617, -0.1445312, -15.2439032, -11.9512196, 9.0243902, 0.0397803
0.9736328, -0.1621094, -0.1713867, -15.3658543, -12.2560978, 9.2682924, 0.0273594
0.9731445, -0.1611328, -0.1865234, -16.3414631, -13.1707315, 9.3292685, 0.0219883
0.9677734, -0.1508789, -0.1953125, -17.560976, -13.9634151, 9.5731707, 0.0125887
0.9697266, -0.1386719, -0.1933594, -18.9024391, -14.6951227, 10.4878054, 0.0011749
0.9770508, -0.1186523, -0.1835938, -19.3902435, -15.7926836, 11.341464, -0.0068818
0.980957, -0.112793, -0.1850586, -19.7560978, -16.4024391, 11.5243902, -0.0216526
0.9985352, -0.1259766, -0.1958008, -20.9756107, -18.0487804, 11.1585369, -0.021149
1.0048828, -0.137207, -0.199707, -21.7682934, -19.0853672, 10.9146347, -0.0135958
1.0087891, -0.1655273, -0.1962891, -24.0243912, -20.1219521, 10.5487804, -0.0238346
0.9858398, -0.1918945, -0.1972656, -24.3292694, -20.2439022, 10.3658543, -0.0260166
0.9790039, -0.2011719, -0.1928711, -24.4512196, -20.1829281, 11.0975609, -0.0317235
0.9570312, -0.206543, -0.1923828, -23.6585369, -20.1219521, 11.5243902, -0.0310521
0.9501953, -0.2011719, -0.1943359, -22.3780499, -20.7926826, 12.3170738, -0.0270237
0.9335938, -0.1811523, -0.2114258, -21.9512196, -21.4024391, 12.4390249, -0.0203098
0.9282227, -0.1723633, -0.2182617, -22.9268303, -22.1951218, 12.9268293, -0.0297093
0.9238281, -0.1660156, -0.2236328, -25.1219521, -24.2073174, 13.5365858, -0.0290379
0.9321289, -0.171875, -0.2177734, -26.4024391, -25.060976, 13.780488, -0.017792
0.9604492, -0.1899414, -0.2109375, -27.8658543, -28.2317085, 12.8658543, -0.0204776
0.9765625, -0.1962891, -0.2099609, -28.4756107, -29.0243912, 12.1951218, -0.0229953
0.9951172, -0.2124023, -0.2148438, -28.4146347, -29.6951218, 11.219512, -0.0250095
1.0068359, -0.2089844, -0.1977539, -28.4756107, -29.6341476, 11.219512, -0.0347448
1.0063477, -0.2070312, -0.1835938, -27.9878063, -29.8170738, 11.341464, -0.0364233
0.9990234, -0.1953125, -0.1484375, -27.5, -30.4268303, 11.1585369, -0.0374304
0.9853516, -0.1875, -0.1391602, -27.1341476, -31.5853672, 10.7926836, -0.0407874
0.9472656, -0.1713867, -0.1513672, -27.3170738, -32.5609779, 10.6097565, -0.0323949
0.9282227, -0.1655273, -0.1694336, -28.5975609, -35.3048782, 10.8536587, -0.04448
0.9003906, -0.1757812, -0.1982422, -30.1829281, -38.841465, 10.7926836, -0.0453193
0.9013672, -0.1875, -0.2075195, -30.9146347, -40.7317085, 10.5487804, -0.0480049
0.9106445, -0.2094727, -0.2114258, -31.5853672, -43.5975609, 9.9390249, -0.04448
0.9179688, -0.2158203, -0.2099609, -31.5853672, -43.9024391, 9.5731707, -0.0317235
0.9331055, -0.2158203, -0.2138672, -30.4268303, -43.4146347, 8.9024391, -0.0246738
0.9482422, -0.2070312, -0.2265625, -29.6951218, -43.5365868, 8.5365858, -0.0260166
0.9521484, -0.2026367, -0.2416992, -28.4146347, -43.6585388, 8.3536587, -0.0273594
0.9643555, -0.1796875, -0.2905273, -28.5365868, -44.2073174, 8.1707315, -0.030045
0.9760742, -0.1704102, -0.315918, -30.2439022, -44.0853653, 8.9024391, -0.0229953
0.9853516, -0.1367188, -0.3530273, -30.9146347, -43.9024391, 9.5731707, -0.018967
0.9921875, -0.1259766, -0.3588867, -31.8902454, -42.2560997, 11.5243902, -0.0124208
1.019043, -0.1196289, -0.3481445, -32.3780479, -40.1829262, 12.560976, -0.0149386
1.0268555, -0.1245117, -0.3364258, -32.3170738, -39.6951218, 12.7439032, -0.0135958
1.0263672, -0.1489258, -0.3095703, -32.9268303, -38.2926826, 13.3536587, -0.0099031
1.0214844, -0.1591797, -0.2958984, -33.7804871, -37.6219521, 13.5365858, -0.0095674
0.9990234, -0.1694336, -0.2685547, -35.1219521, -36.4634171, 14.4512196, -0.0223239
0.9755859, -0.1796875, -0.2529297, -35.6707344, -36.341465, 14.3902445, -0.0125887
0.9643555, -0.1835938, -0.2543945, -36.0365868, -37.1951218, 14.3292685, -0.0162814
0.9594727, -0.1992188, -0.265625, -35.9756088, -38.2317085, 14.2073174, -0.0139315
0.9638672, -0.2021484, -0.2705078, -36.7682953, -40.0609779, 13.841464, -0.0199741
0.9819336, -0.2124023, -0.2744141, -36.9512215, -40.7926826, 13.9024391, -0.0219883
0.9921875, -0.2172852, -0.2709961, -37.0731697, -41.1585388, 13.4146347, -0.0196384
1.0078125, -0.2260742, -0.2753906, -36.6463432, -41.2195129, 12.8658543, -0.0159457
1.0161133, -0.2294922, -0.2666016, -36.0975609, -41.341465, 12.3170738, -0.0203098
1.0263672, -0.2329102, -0.2573242, -34.2682953, -41.8902435, 11.4024391, -0.0159457
1.0131836, -0.2373047, -0.2666016, -33.9024391, -42.2560997, 10.9756098, -0.0135958
1.0043945, -0.2363281, -0.2797852, -32.7439041, -42.2560997, 10.6707315, -0.0112459
0.9731445, -0.2211914, -0.3061523, -32.1341476, -42.2560997, 10.5487804, -0.0124208
0.9604492, -0.2172852, -0.3222656, -31.8292694, -42.0121956, 10.6097565, -0.0216526
0.9462891, -0.1972656, -0.3510742, -31.8292694, -42.7439041, 10.8536587, -0.0209812
0.9453125, -0.1958008, -0.3540039, -32.0121956, -44.3902435, 10.4878054, -0.0142672
0.9560547, -0.2041016, -0.3413086, -32.5, -45.3658562, 10.4268293, -0.0125887
0.9643555, -0.2133789, -0.3276367, -34.4512215, -47.2560997, 10.1219511, -0.0075532
0.9912109, -0.2260742, -0.2949219, -34.8170738, -48.5365868, 9.9390249, -0.0058747
0.9990234, -0.230957, -0.2836914, -33.9024391, -49.3292694, 9.5731707, -0.0065461
1.0102539, -0.2397461, -0.2666016, -31.8292694, -51.0975609, 8.6585369, -0.0109102
1.0048828, -0.2368164, -0.2802734, -31.4634151, -52.3170738, 8.6585369, -0.0072175
1.0024414, -0.2348633, -0.2875977, -30.3658543, -54.3902435, 9.5121956, -0.0078889
1.0048828, -0.2075195, -0.2939453, -30.060976, -55.3658562, 10.060976, -0.0125887
1.0014648, -0.1865234, -0.296875, -29.4512196, -56.8292694, 10.9756098, -0.0176242
0.9995117, -0.1606445, -0.3261719, -29.3902454, -57.6219521, 10.6097565, -0.0166171
1.0029297, -0.1582031, -0.3525391, -29.6341476, -59.0853691, 10.7926836, -0.0115816
1.0063477, -0.1650391, -0.4101562, -30.6097565, -60, 10.7926836, -0.0041962
1.0141602, -0.1748047, -0.4213867, -33.1707306, -61.6463432, 11.280488, -0.0063783
1.0297852, -0.1962891, -0.3945312, -34.2682953, -62.8048782, 11.5243902, 0.0011749
1.0356445, -0.2094727, -0.3759766, -33.7195129, -62.9268303, 11.5243902, 0.0085603
1.0258789, -0.2226562, -0.3569336, -32.6219521, -61.8292694, 12.0121956, 0.0193027
0.9970703, -0.2158203, -0.3730469, -31.9512196, -60.9146347, 12.4390249, 0.0172885
0.9790039, -0.2036133, -0.378418, -31.280489, -60.2439041, 13.1097565, 0.0223239
0.9619141, -0.1782227, -0.3769531, -31.0975609, -60.4878044, 13.2926836, 0.0229953
0.9594727, -0.171875, -0.375, -30.8536587, -62.6219521, 13.5365858, 0.0146029
0.9584961, -0.1733398, -0.3803711, -31.1585369, -63.4756126, 13.4756098, 0.0035248
0.9633789, -0.1806641, -0.3847656, -31.8902454, -64.6341476, 12.9878054, 0.0031891
0.9575195, -0.2143555, -0.3837891, -32.3780479, -65.0609741, 12.9268293, -0.0005035
0.9545898, -0.2319336, -0.3813477, -33.4146347, -65.4878082, 12.9878054, -0.0005035
0.9482422, -0.2446289, -0.3789062, -32.3170738, -65.7926865, 13.5365858, -0.0003357
0.9433594, -0.2382812, -0.3764648, -31.5853672, -66.0365906, 13.9024391, 0.0058747
0.9443359, -0.21875, -0.3740234, -29.3292694, -66.4024429, 14.5731707, 0.005539
0.9467773, -0.203125, -0.3710938, -28.7195129, -66.6463394, 14.7560978, 0.0035248
0.953125, -0.1943359, -0.3637695, -28.5975609, -68.1707306, 15.3048782, -0.0025177
0.9541016, -0.1845703, -0.3618164, -28.9024391, -68.7804871, 15.2439032, -0.0028534
0.9541016, -0.1835938, -0.3759766, -29.7560978, -69.6341476, 15.5487804, -0.0125887
0.9404297, -0.1821289, -0.425293, -29.8170738, -69.5731735, 15.4878054, -0.0276951
0.9384766, -0.1821289, -0.4438477, -30.3658543, -69.8780518, 16.0365849, -0.0340734
0.9428711, -0.1665039, -0.4511719, -30.8536587, -70.7317123, 16.4024391, -0.0327306
0.9511719, -0.1665039, -0.4438477, -31.4024391, -71.2195129, 17.439024, -0.0330663
0.9638672, -0.1811523, -0.4179688, -31.8292694, -71.7682953, 17.9878044, -0.0372625
0.9663086, -0.1889648, -0.4106445, -32.1951218, -71.6463394, 18.2317085, -0.0345769
0.9492188, -0.1967773, -0.4086914, -33.1097565, -71.8292694, 18.4146347, -0.0397803
0.9375, -0.1894531, -0.3994141, -33.0487823, -72.0731735, 18.6585369, -0.051194
0.9282227, -0.184082, -0.3955078, -32.1951218, -73.1097565, 18.5975609, -0.0488441
0.9272461, -0.1782227, -0.3994141, -32.0121956, -73.9634171, 18.4756107, -0.0495155
0.9316406, -0.1875, -0.4179688, -32.6829262, -75.6707306, 18.7195129, -0.054551
0.9321289, -0.2045898, -0.4458008, -33.5365868, -76.3414688, 18.5975609, -0.0522011
0.9379883, -0.2109375, -0.453125, -35.2439041, -77.68293, 18.7195129, -0.0360876
0.9506836, -0.2226562, -0.453125, -35.1219521, -78.4146347, 18.9024391, -0.0250095
0.9594727, -0.230957, -0.4423828, -33.841465, -79.2073212, 18.4756107, -0.0219883
0.9746094, -0.2436523, -0.4301758, -32.5, -79.6341476, 18.780489, -0.0323949
0.9746094, -0.2441406, -0.4267578, -31.8292694, -79.7560959, 18.6585369, -0.0323949
0.9760742, -0.2412109, -0.434082, -31.280489, -80.6097565, 18.2926826, -0.0406195
0.9638672, -0.2231445, -0.4462891, -31.2195129, -81.3414688, 18.0487804, -0.0428016
0.9541016, -0.2084961, -0.4560547, -31.8292694, -83.5365906, 17.8048782, -0.0318914
0.9506836, -0.1928711, -0.4736328, -32.1341476, -84.3902435, 17.8658543, -0.0391089
0.9506836, -0.1870117, -0.4902344, -32.9268303, -86.0365906, 18.2317085, -0.0394446
0.9663086, -0.1762695, -0.512207, -33.6585388, -86.7073212, 18.3536587, -0.0318914
0.9814453, -0.1816406, -0.5175781, -34.4512215, -87.5609741, 18.2317085, -0.0370947
1, -0.1884766, -0.4970703, -35.2439041, -88.0487823, 17.9268303, -0.0439765
1.0048828, -0.1894531, -0.487793, -35.0609779, -88.4146347, 18.5365849, -0.0350805
1.0039062, -0.1982422, -0.4794922, -35.1829262, -88.3536606, 19.5121956, -0.0404517
0.9931641, -0.2011719, -0.484375, -35.1829262, -88.4146347, 20.060976, -0.0364233
0.9624023, -0.1958008, -0.5029297, -35.6707344, -89.9390259, 21.8292694, -0.0028534
0.9389648, -0.1738281, -0.4985352, -36.2195129, -91.0365906, 22.2560978, 0.0372625
0.9326172, -0.1611328, -0.4912109, -37.3170738, -93.1707306, 23.2317085, 0.0716716
0.9384766, -0.1513672, -0.4863281, -37.8658562, -94.3292694, 23.6585369, 0.0924849
0.9467773, -0.1533203, -0.4926758, -38.9634171, -96.7073212, 23.780489, 0.0916457
0.980957, -0.1791992, -0.5244141, -39.6951218, -98.0487823, 23.4146347, 0.0783856
0.9941406, -0.2070312, -0.5292969, -41.0975609, -101.4634171, 22.6219521, 0.0683146
1.0136719, -0.2651367, -0.5415039, -41.6463432, -102.3780518, 22.439024, 0.0347448
1.0117188, -0.2871094, -0.5571289, -41.341465, -102.5609818, 23.4146347, 0.0035248
0.9926758, -0.2758789, -0.5996094, -38.841465, -100.1219559, 24.8170738, -0.0099031
0.9833984, -0.2514648, -0.6191406, -37.1341476, -98.7195129, 25.7317085, -0.023331
0.9853516, -0.1899414, -0.6494141, -34.8780479, -96.9512253, 26.5853672, -0.040116
1.0126953, -0.1464844, -0.644043, -34.8780479, -96.7682953, 26.7682934, -0.047837
1.027832, -0.1411133, -0.6274414, -37.5609779, -97.4390259, 26.1585369, -0.0431373
1.050293, -0.1645508, -0.5620117, -39.2073174, -98.5365906, 25.7926826, -0.0471656
1.0454102, -0.1875, -0.5332031, -42.4390259, -100.4268341, 25.2439022, -0.047837
1.0078125, -0.21875, -0.5214844, -43.1097565, -100.6707306, 25.4268303, -0.0505226
0.9775391, -0.2182617, -0.5361328, -42.2560997, -101.7073212, 26.2195129, -0.0451514
0.9140625, -0.215332, -0.5654297, -39.8170738, -102.9878082, 27.560976, -0.0532082
0.9042969, -0.2119141, -0.5761719, -39.1463432, -104.3902435, 28.780489, -0.0703288
0.9125977, -0.2001953, -0.5966797, -38.7804871, -107.0731735, 29.3292694, -0.0793927
0.9291992, -0.1992188, -0.6005859, -39.3902435, -107.9878082, 28.780489, -0.0867781
0.9594727, -0.2138672, -0.5976562, -40.7317085, -109.5121994, 27.1951218, -0.0822461
0.9838867, -0.2514648, -0.5917969, -41.0365868, -109.8170776, 26.5853672, -0.0861067
0.9833984, -0.2602539, -0.6015625, -41.0365868, -109.8170776, 25.7317085, -0.0807355
0.9765625, -0.265625, -0.6176758, -40.3048782, -109.9390259, 25.7926826, -0.0867781
0.9667969, -0.2612305, -0.6274414, -38.4146347, -109.5731735, 25.6097565, -0.0948348
0.9555664, -0.2490234, -0.6538086, -37.3170738, -109.5731735, 25.5487804, -0.0983597
0.9516602, -0.2441406, -0.6733398, -36.0365868, -109.3292694, 25.9146347, -0.0991989
0.9501953, -0.2280273, -0.7226562, -36.0975609, -108.9024429, 25.9756107, -0.0834211
0.953125, -0.2275391, -0.7397461, -36.4634171, -108.5365906, 25.6707325, -0.0877852
0.9750977, -0.2407227, -0.7358398, -36.8292694, -107.9878082, 25.7926826, -0.0787213
0.9873047, -0.2553711, -0.7099609, -37.1341476, -107.8048782, 25.7926826, -0.0616007
1.0112305, -0.2871094, -0.6464844, -35.6707344, -107.1341476, 25.7926826, -0.0525368
0.996582, -0.2866211, -0.6376953, -35.4268303, -106.5853653, 25.2439022, -0.0461585
0.9760742, -0.2768555, -0.6557617, -33.7195129, -105.5487823, 24.3902435, -0.0310521
0.934082, -0.2524414, -0.7016602, -33.5365868, -105.4268341, 24.0853672, -0.0226596
0.9189453, -0.246582, -0.7163086, -33.6585388, -107.1341476, 23.6585369, -0.0223239
0.9179688, -0.2573242, -0.7099609, -33.7804871, -108.6585388, 23.6585369, -0.0243381
0.9228516, -0.2626953, -0.6938477, -34.6951218, -110.0609818, 24.1463413, -0.0199741
0.9282227, -0.2563477, -0.675293, -33.4146347, -109.3902435, 24.4512196, -0.0149386
0.9243164, -0.2402344, -0.6787109, -32.0731697, -108.1707306, 24.5731716, -0.0203098
0.9165039, -0.203125, -0.6870117, -29.8780499, -107.4390259, 24.8780499, -0.0219883
0.9165039, -0.1884766, -0.690918, -29.6951218, -107.68293, 25.060976, -0.0283665
0.9267578, -0.1772461, -0.6894531, -30.7317085, -109.7561035, 25, -0.0280308
0.9233398, -0.1904297, -0.7109375, -31.5853672, -110.6707306, 24.9390259, -0.0323949
0.9243164, -0.1948242, -0.7304688, -33.6585388, -111.7073212, 25.6707325, -0.0350805
0.9243164, -0.2011719, -0.7397461, -34.3292694, -111.9512253, 25.5487804, -0.0330663
0.934082, -0.2128906, -0.7236328, -34.4512215, -112.5609818, 25.9146347, -0.0297093
0.9384766, -0.2592773, -0.6855469, -34.4512215, -113.1097565, 25.9146347, -0.0263523
0.9375, -0.2792969, -0.6791992, -33.4146347, -113.5365906, 25.4268303, -0.0280308
0.9077148, -0.296875, -0.6977539, -31.8902454, -114.2073212, 24.1463413, -0.0146029
0.8881836, -0.2949219, -0.7192383, -30.8536587, -114.5731735, 23.7195129, -0.0062104
0.8491211, -0.2807617, -0.7583008, -29.9390259, -115, 24.0853672, -0.0041962
0.8417969, -0.2705078, -0.7700195, -29.5121956, -115.2439041, 24.5731716, -0.0159457
0.8457031, -0.2460938, -0.7563477, -29.0853672, -116.7682953, 24.8170738, -0.0162814
0.862793, -0.2260742, -0.7080078, -29.1463413, -117.86586, 24.8780499, -0.0236667
0.8730469, -0.2280273, -0.6870117, -28.2926826, -120.0609818, 25.3048782, -0.0273594
0.8759766, -0.2348633, -0.6958008, -28.4756107, -120.5487823, 25.3048782, -0.0364233
0.8666992, -0.2397461, -0.7285156, -27.4390259, -120.4878082, 26.5853672, -0.0404517
0.8408203, -0.2392578, -0.815918, -26.8902454, -120.6097565, 26.6463413, -0.0381018
0.8359375, -0.2446289, -0.8417969, -26.0365868, -121.2804871, 27.8048782, -0.0404517
0.8505859, -0.2509766, -0.8588867, -26.280489, -121.8292694, 29.5731716, -0.0451514
0.8642578, -0.2485352, -0.8461914, -26.280489, -120.9756088, 29.8780499, -0.04448
0.8979492, -0.2412109, -0.7998047, -26.1585369, -119.5731735, 29.3292694, -0.0433051
0.9038086, -0.2446289, -0.7714844, -26.280489, -118.9634171, 28.5975609, -0.0377661
0.8813477, -0.2426758, -0.7412109, -26.2195129, -118.2926865, 27.0731716, -0.04448
0.8242188, -0.2202148, -0.7807617, -26.2195129, -118.1707382, 26.4024391, -0.0558938
0.7890625, -0.2080078, -0.809082, -26.8292694, -118.7804871, 25.9146347, -0.0506905
0.75, -0.184082, -0.8618164, -28.1097565, -119.2073212, 26.0975609, -0.0431373
0.7421875, -0.1723633, -0.8686523, -31.4634151, -120.5487823, 27.560976, -0.0417945
0.7626953, -0.1967773, -0.8232422, -33.2926826, -121.2804871, 28.0487804, -0.0320592
0.7841797, -0.2294922, -0.7880859, -36.5243912, -122.86586, 29.3292694, -0.0223239
0.7949219, -0.2871094, -0.7587891, -36.5243912, -122.7439041, 30, -0.0243381
0.7900391, -0.3017578, -0.7753906, -35.1219521, -121.7682953, 30.1219521, -0.0320592
0.7636719, -0.2836914, -0.8222656, -31.6463413, -120.2439041, 29.5731716, -0.0276951
0.7587891, -0.2680664, -0.8364258, -30, -119.4512253, 29.4512196, -0.0169528
0.7636719, -0.2333984, -0.8496094, -29.1463413, -119.146347, 29.1463413, -0.0115816
0.7797852, -0.2216797, -0.8696289, -29.6341476, -119.146347, 29.0853672, -0.0162814
0.7915039, -0.2260742, -0.8955078, -31.5243912, -118.7195129, 29.7560978, -0.0164492
0.8100586, -0.2421875, -0.9379883, -32.3780479, -118.9024429, 30.060976, -0.0038605
0.824707, -0.2519531, -0.9316406, -34.0243912, -118.8414688, 31.0365868, -0.0072175
0.8466797, -0.2734375, -0.8842773, -34.3292694, -118.1097565, 31.2195129, -0.0105745
0.8491211, -0.2822266, -0.847168, -33.5365868, -114.9390259, 30.7317085, 0.0011749
0.8334961, -0.3105469, -0.8027344, -31.7073174, -112.6219559, 29.5121956, 0.0095674
0.8095703, -0.3251953, -0.7973633, -30.5487804, -112.1341476, 28.9634151, -0.0045319
0.7475586, -0.3432617, -0.815918, -27.6219521, -112.6219559, 27.9878063, -0.002182
0.7211914, -0.347168, -0.828125, -25.5487804, -113.4146347, 27.8658543, 0.0077211
0.6928711, -0.3579102, -0.8291016, -23.6585369, -115.5487823, 26.6463413, -0.0031891
0.6835938, -0.3701172, -0.8256836, -22.6829281, -116.2804871, 26.1585369, -0.0028534
0.6831055, -0.362793, -0.8388672, -21.5853672, -117.4390259, 24.6341476, -0.0048676
0.6831055, -0.3344727, -0.8623047, -21.1585369, -117.86586, 24.1463413, -0.0065461
0.6894531, -0.3051758, -0.8701172, -19.939024, -118.9634171, 22.439024, 0.0001678
0.7075195, -0.2597656, -0.8608398, -19.2682934, -120.0609818, 22.1951218, 0.0119173
0.7241211, -0.2524414, -0.8574219, -18.9024391, -121.1585388, 21.4024391, 0.0112459
0.7490234, -0.2412109, -0.8618164, -19.0853672, -120.6097565, 21.7682934, 0.0179599
0.7539062, -0.2436523, -0.878418, -19.1463413, -120.4878082, 22.2560978, 0.0203098
0.7485352, -0.2617188, -0.9321289, -18.8414631, -119.8170776, 23.1097565, 0.0102388
0.7451172, -0.2612305, -0.9526367, -18.7195129, -120, 23.8414631, 0.0010071
0.7407227, -0.2539062, -0.9702148, -19.2682934, -119.6951218, 24.7560978, -0.0028534
0.7602539, -0.2348633, -0.9365234, -20, -119.5731735, 25.1829281, -0.0115816
0.7666016, -0.2236328, -0.9086914, -21.5243912, -118.3536606, 24.7560978, -0.0169528
0.7705078, -0.2260742, -0.8818359, -22.1341476, -118.2317123, 24.2073174, -0.0250095
0.7631836, -0.237793, -0.8808594, -24.7560978, -119.6951218, 23.1707325, -0.0243381
0.737793, -0.2680664, -0.8837891, -26.2195129, -121.2804871, 23.3536587, -0.0260166
0.7299805, -0.2885742, -0.8779297, -27.6219521, -124.6341476, 24.2073174, -0.0273594
0.7138672, -0.3081055, -0.8696289, -26.5853672, -125.7317123, 23.8414631, -0.0206455
0.7094727, -0.3066406, -0.8725586, -25.7317085, -125.0609818, 23.7195129, -0.0273594
0.6904297, -0.2856445, -0.9072266, -24.5121956, -123.5975647, 22.560976, -0.0253452
0.684082, -0.2807617, -0.9199219, -24.4512196, -123.5365906, 22.1341476, -0.0256809
0.6650391, -0.2758789, -0.9194336, -26.280489, -124.4512253, 21.8902435, -0.0384375
0.6606445, -0.2646484, -0.8979492, -27.6829281, -124.9390259, 22.0121956, -0.0446479
0.6542969, -0.25, -0.890625, -29.1463413, -125, 21.8902435, -0.0459907
0.6420898, -0.2119141, -0.9008789, -28.9024391, -124.6341476, 21.7073174, -0.0471656
0.6396484, -0.1948242, -0.9082031, -28.6585369, -124.8780518, 21.7682934, -0.054551
0.6318359, -0.1865234, -0.8930664, -29.3292694, -125.7926865, 21.5243912, -0.0602579
0.6303711, -0.2075195, -0.8833008, -31.7073174, -128.3536682, 21.8902435, -0.0525368
0.6162109, -0.2587891, -0.8979492, -33.9024391, -129.8170776, 23.2317085, -0.0552224
0.5932617, -0.2788086, -0.9331055, -34.2682953, -130.4878082, 24.1463413, -0.0746929
0.5712891, -0.2885742, -1.0292969, -32.7439041, -130.7317047, 26.6463413, -0.0887922
0.5986328, -0.2641602, -1.0761719, -31.9512196, -131.0975647, 27.5, -0.1055772
0.6289062, -0.2558594, -1.0717773, -31.280489, -130.1219482, 28.7195129, -0.1156481
0.6811523, -0.2529297, -1.0327148, -31.280489, -128.9024353, 29.3292694, -0.0840925
0.706543, -0.2543945, -1.0112305, -31.280489, -125.5487823, 30.4268303, -0.0431373
0.7436523, -0.2524414, -0.9848633, -30.8536587, -124.2073212, 29.8170738, -0.0135958
0.7451172, -0.2514648, -0.9907227, -29.8780499, -121.9512253, 28.2317085, 0.0223239
0.7236328, -0.2626953, -1.0263672, -29.6341476, -121.4634171, 27.2560978, 0.0414588
0.7026367, -0.2753906, -1.0361328, -29.3292694, -120.9146347, 26.1585369, 0.0451514
0.6743164, -0.3061523, -1.0234375, -29.4512196, -119.8170776, 26.3414631, 0.0394446
0.6728516, -0.3154297, -1.0102539, -29.4512196, -119.2073212, 26.1585369, 0.0260166
0.6591797, -0.3349609, -0.9692383, -27.8048782, -118.6585388, 25.060976, 0.0129244
0.6401367, -0.3339844, -0.9418945, -27.1951218, -118.9634171, 24.5121956, -0.011078
0.625, -0.328125, -0.9375, -25.3048782, -119.6951218, 22.9268303, -0.018967
0.5947266, -0.2949219, -0.9282227, -24.0853672, -120.2439041, 21.9512196, -0.0169528
0.5800781, -0.2783203, -0.9296875, -23.1097565, -121.8292694, 20.1829281, -0.0162814
0.5546875, -0.2436523, -0.9306641, -23.1097565, -122.5609818, 19.2073174, -0.0209812
0.543457, -0.2285156, -0.9370117, -24.2073174, -124.2073212, 17.7439022, -0.0276951
0.5268555, -0.2197266, -0.9467773, -25, -125.18293, 17.439024, -0.0229953
0.5180664, -0.2314453, -0.9570312, -27.0121956, -127.9878082, 17.6219521, -0.0028534
0.515625, -0.2548828, -0.9785156, -28.5365868, -131.2195129, 18.6585369, 0.0011749
0.5234375, -0.2675781, -0.9799805, -28.7195129, -132.5609741, 19.3902435, 0.0105745
0.5527344, -0.2749023, -0.9755859, -27.1951218, -133.4146423, 19.939024, 0.0058747
0.5639648, -0.2851562, -0.9863281, -26.0975609, -132.86586, 19.8170738, -0.008896
0.5615234, -0.2905273, -1.0014648, -23.8414631, -131.0365906, 20.1219521, -0.0176242
0.5507812, -0.2915039, -1.0522461, -22.6829281, -130.1219482, 20.060976, -0.0135958
0.5424805, -0.2900391, -1.0766602, -21.3414631, -129.9390259, 20.6097565, -0.0031891
0.5512695, -0.2963867, -1.0737305, -20.7317085, -130.4268341, 21.2195129, -0.0082246
0.5664062, -0.3027344, -1.043457, -20, -131.646347, 22.6829281, -0.0206455
0.5849609, -0.3041992, -0.9960938, -19.3902435, -130.9756165, 22.3170738, -0.0104067
0.5786133, -0.3032227, -0.9946289, -16.4634151, -128.2926788, 20.8536587, -0.0109102
0.5415039, -0.2900391, -1.0009766, -11.341464, -126.8902435, 20.1219521, -0.0203098
0.5258789, -0.2841797, -1.003418, -9.2073174, -126.7073212, 20.060976, -0.0256809
0.4990234, -0.2958984, -1.0263672, -7.4390244, -127.1341476, 21.0365868, -0.0313878
0.4824219, -0.2875977, -1.0908203, -7.1951222, -127.0731735, 21.7073174, -0.0340734
0.4780273, -0.2680664, -1.1181641, -7.1951222, -126.7682953, 22.439024, -0.0354162
0.4882812, -0.2353516, -1.1235352, -7.2560978, -126.7682953, 22.3170738, -0.0417945
0.4980469, -0.2231445, -1.0922852, -7.9268293, -127.4390259, 22.8658543, -0.0381018
0.5195312, -0.2250977, -0.9887695, -8.780488, -127.0731735, 23.1707325, -0.036759
0.5244141, -0.2319336, -0.9624023, -9.5121956, -125.7926865, 24.0853672, -0.026688
0.4804688, -0.2519531, -0.9985352, -9.3292685, -125.36586, 24.2682934, -0.0243381
0.4536133, -0.2553711, -1.03125, -7.6829271, -125.3048782, 25.3658543, -0.0310521
0.4179688, -0.2548828, -1.0478516, -6.7682929, -127.3780518, 26.3414631, -0.0357519
0.40625, -0.2514648, -1.0253906, -7.5, -128.0487823, 26.2195129, -0.033402
0.4008789, -0.2421875, -0.9868164, -9.6341467, -127.86586, 26.0975609, -0.0384375
0.3666992, -0.2041016, -1.0234375, -10.7317076, -127.5, 25.4878063, -0.0384375
0.3505859, -0.1816406, -1.0625, -13.0487804, -128.6585388, 24.5121956, -0.0323949
0.3398438, -0.1733398, -1.1132812, -14.2682934, -130.2439117, 24.5121956, -0.0370947
0.3540039, -0.1855469, -1.1064453, -18.1707325, -135.0609741, 26.2195129, -0.0330663
0.4155273, -0.2387695, -1.0375977, -20.1829281, -136.9512177, 27.5, -0.0273594
0.4477539, -0.2734375, -1.0039062, -22.5, -137.9268341, 28.780489, -0.0276951
0.4580078, -0.3276367, -0.9804688, -21.8902435, -136.5853729, 28.4756107, -0.0246738
0.4443359, -0.3520508, -0.9970703, -17.5, -134.0243988, 27.1341476, -0.0253452
0.4091797, -0.3764648, -1.0332031, -12.1951218, -132.5, 26.1585369, -0.0285344
0.394043, -0.3789062, -1.0458984, -10.4268293, -132.5, 25.5487804, -0.0204776
0.3613281, -0.3520508, -1.0712891, -8.780488, -131.8292694, 24.3292694, -0.0223239
0.3354492, -0.2885742, -1.1074219, -8.841464, -130.9146423, 23.8414631, -0.0283665
0.3276367, -0.2592773, -1.1166992, -8.9634151, -130.9756165, 22.6219521, -0.0236667
0.3300781, -0.2148438, -1.0922852, -9.3902445, -132.0121918, 22.1341476, -0.018967
0.3378906, -0.2084961, -1.0761719, -11.7073174, -134.4512177, 21.7682934, -0.0142672
0.3530273, -0.2285156, -1.0639648, -13.0487804, -135.5487823, 21.9512196, -0.0149386
0.3554688, -0.2480469, -1.065918, -13.841464, -135.9146423, 23.9634151, -0.0184634
0.3496094, -0.2666016, -1.0825195, -13.0487804, -135.6707306, 24.8780499, -0.0164492
0.3476562, -0.2661133, -1.0996094, -10.1219511, -133.3536682, 26.3414631, -0.01561
0.340332, -0.265625, -1.1323242, -7.6219516, -131.4634247, 27.5, -0.0162814
0.3457031, -0.2675781, -1.1484375, -7.3170733, -130.9756165, 28.1097565, -0.0085603
0.3569336, -0.2626953, -1.1508789, -8.9024391, -130.6097565, 28.780489, -0.012253
0.3662109, -0.2358398, -1.1337891, -10.3048782, -130.4878082, 28.4756107, -0.0176242
0.3608398, -0.2158203, -1.1191406, -12.9268293, -129.3292694, 26.5243912, -0.0139315
0.3310547, -0.1733398, -1.0942383, -13.4756098, -128.7195129, 25.6707325, -0.0085603
0.3081055, -0.1665039, -1.0830078, -14.8170738, -127.9268341, 25.3048782, -0.008896
0.2719727, -0.1699219, -1.0678711, -15.9756098, -128.1707306, 25.9756107, -0.002182
0.2563477, -0.184082, -1.0585938, -18.0487804, -129.5731812, 28.1097565, 0.0011749
0.234375, -0.2358398, -1.0166016, -20, -130.6707306, 29.3292694, 0.0041962
0.2197266, -0.2602539, -0.9916992, -19.939024, -131.5243988, 29.3292694, 0.0035248
0.1933594, -0.3203125, -0.9506836, -18.5365849, -132.86586, 27.7439022, -0.0028534
0.1713867, -0.3398438, -0.9589844, -17.1951218, -132.9878082, 27.0731716, 0.0005035
0.1147461, -0.3491211, -1.0322266, -14.1463413, -131.8292694, 26.0365868, -0.0008392
0.0849609, -0.3227539, -1.1181641, -12.6829271, -131.7073212, 26.0365868, -0.0001678
0.0966797, -0.300293, -1.1323242, -11.219512, -134.7561035, 26.5853672, -0.0001678
0.1591797, -0.2885742, -1.0927734, -11.0975609, -137.6219482, 26.3414631, -0.0070497
0.1933594, -0.2905273, -1.0581055, -11.9512196, -141.4024353, 26.1585369, -0.0015106
0.2441406, -0.2963867, -1.0219727, -12.3170738, -141.4634247, 26.2195129, -0.0072175
0.2529297, -0.284668, -1.03125, -11.0365858, -136.9512177, 25.6097565, -0.018967
0.2285156, -0.2607422, -1.0947266, -8.0487804, -132.2561035, 23.9634151, -0.0280308
0.2089844, -0.2602539, -1.121582, -6.9512196, -132.0121918, 23.9024391, -0.0193027
0.1923828, -0.2797852, -1.1098633, -7.2560978, -135.7926788, 25.1829281, -0.0172885
0.1918945, -0.2866211, -1.0839844, -8.4756098, -137.3780518, 25.6097565, -0.0050355
0.1796875, -0.2875977, -1.0693359, -9.3902445, -136.5243988, 25.7317085, 0.0035248
0.1479492, -0.2607422, -1.1000977, -8.6585369, -134.9390259, 25.2439022, 0.0092317
0.1289062, -0.246582, -1.1132812, -6.6463418, -133.7804871, 25.3658543, 0.0036927
0.1220703, -0.2138672, -1.1210938, -6.5853658, -134.6341553, 25.8536587, -0.0008392
0.1308594, -0.2075195, -1.121582, -8.9024391, -136.7682953, 26.5243912, 0.0018463
0.1508789, -0.1943359, -1.1298828, -11.280488, -137.6829376, 26.9512196, 0.0005035
0.159668, -0.1835938, -1.1259766, -15.5487804, -138.1707306, 26.8292694, 0.0025177
0.1665039, -0.1777344, -1.1254883, -18.5975609, -137.6219482, 26.8902454, -0.0035248
0.1625977, -0.1816406, -1.1303711, -19.1463413, -137.1341553, 27.0731716, -0.0018463
0.1630859, -0.2050781, -1.1791992, -20.3658543, -135.3048859, 29.2073174, -0.002182
0.1660156, -0.2231445, -1.206543, -20.7317085, -134.6341553, 30.9146347, -0.0075532
0.1923828, -0.2519531, -1.1928711, -21.0975609, -133.9024353, 33.5975609, -0.0041962
0.2114258, -0.2631836, -1.1005859, -20.9756107, -133.2317047, 33.9024391, -0.0015106
0.2041016, -0.2612305, -1.0581055, -21.3414631, -128.7195129, 31.8902454, -0.0035248
0.1367188, -0.2304688, -1.0351562, -21.5853672, -125.4878082, 29.7560978, -0.0015106
0.0859375, -0.2148438, -1.0297852, -22.8658543, -121.646347, 27.6829281, 0.0078889
-0.0024414, -0.1884766, -1.0170898, -23.9634151, -122.4390259, 26.8902454, 0.0005035
-0.0322266, -0.1987305, -0.9951172, -26.0365868, -129.2073212, 26.6463413, -0.0015106
-0.059082, -0.2412109, -0.9677734, -28.4756107, -135.9146423, 27.6219521, 0.0090639
-0.0625, -0.2827148, -0.9663086, -28.4756107, -137.86586, 28.3536587, 0.0058747
-0.0571289, -0.3505859, -0.9780273, -25.1829281, -138.9634247, 29.0853672, -0.0001678
-0.0546875, -0.3759766, -0.9799805, -22.6829281, -138.5365906, 28.780489, -0.0025177
-0.0463867, -0.3691406, -0.9726562, -16.4024391, -137.0121918, 26.4634151, 0.0038605
-0.0522461, -0.3125, -0.9741211, -13.9634151, -136.0975647, 24.8780499, -0.0052033
-0.0595703, -0.284668, -0.9882812, -11.0365858, -134.5731812, 22.1951218, -0.0068818
-0.0625, -0.2602539, -1.0341797, -11.6463413, -135.4268341, 21.0975609, -0.0135958
-0.0595703, -0.2563477, -1.0493164, -14.3292685, -139.4512177, 21.3414631, -0.0231632
-0.0307617, -0.2661133, -1.0541992, -15.3658543, -141.8292694, 21.5853672, -0.0323949
-0.0126953, -0.2626953, -1.0390625, -15.1829271, -144.5121918, 22.2560978, -0.0421302
0.0087891, -0.2358398, -1.0112305, -12.5, -142.6829376, 21.8292694, -0.0532082
0.0068359, -0.2128906, -1.0234375, -11.280488, -140.1219482, 21.7682934, -0.0592508
-0.0273438, -0.1713867, -1.0976562, -10.5487804, -134.6951294, 22.560976, -0.0525368
-0.0498047, -0.1582031, -1.1416016, -11.4634151, -134.0243988, 24.1463413, -0.0525368
-0.0483398, -0.1459961, -1.1733398, -14.2073174, -137.5, 28.2317085, -0.0498512
0.0024414, -0.1674805, -1.1474609, -15.9146347, -139.8170776, 29.5731716, -0.0515297
0.0283203, -0.1870117, -1.140625, -19.1463413, -140.6097565, 30.9756107, -0.0552224
0.0610352, -0.2373047, -1.1582031, -20.1219521, -138.6585388, 31.5243912, -0.051194
0.0668945, -0.2524414, -1.1694336, -19.6951218, -133.5975647, 33.0487823, -0.0439765
0.081543, -0.2719727, -1.1591797, -18.780489, -131.5853729, 33.4146347, -0.0352483
0.0820312, -0.2641602, -1.1279297, -17.1951218, -127.7439041, 33.841465, -0.0404517
0.0541992, -0.2202148, -1.0532227, -17.1341476, -121.8902435, 31.5853672, -0.0481727
0.0234375, -0.1816406, -1.0288086, -18.2317085, -118.3536606, 30.060976, -0.0532082
-0.078125, -0.128418, -1.0366211, -21.0365868, -114.0853653, 27.8048782, -0.0518654
-0.1279297, -0.121582, -1.0498047, -22.8048782, -114.5121994, 28.1707325, -0.0495155
-0.1855469, -0.1591797, -1.0449219, -26.3414631, -121.9512253, 31.2195129, -0.0686503
-0.175293, -0.2333984, -0.9790039, -27.6829281, -126.4634171, 32.4390259, -0.0639506
-0.15625, -0.2695312, -0.9277344, -27.6829281, -132.5609741, 33.3536606, -0.033402
-0.1455078, -0.3012695, -0.875, -26.4024391, -132.1951294, 32.6829262, 0.0146029
-0.1586914, -0.3066406, -0.8852539, -23.0487804, -126.646347, 30.060976, 0.0528725
-0.2119141, -0.2998047, -0.9526367, -21.7073174, -123.9634171, 29.2073174, 0.0904707
-0.2368164, -0.2939453, -0.9936523, -20.3048782, -122.9878082, 28.0487804, 0.1052415
-0.2524414, -0.2841797, -1.0463867, -21.5853672, -128.4756165, 28.1097565, 0.1059129
-0.2392578, -0.2822266, -1.0473633, -22.1951218, -132.1951294, 28.2926826, 0.0854353
-0.1860352, -0.269043, -1.0351562, -22.7439022, -137.4390259, 27.6829281, 0.0656291
-0.1538086, -0.2626953, -1.0283203, -22.2560978, -137.7439117, 27.4390259, 0.0532082
-0.1035156, -0.2592773, -1.0390625, -21.0365868, -134.146347, 26.7073174, 0.0438087
-0.0751953, -0.2480469, -1.0561523, -20.1219521, -131.2804871, 27.0121956, 0.0297093
-0.0654297, -0.2387695, -1.0493164, -19.2682934, -126.7073212, 27.3780499, 0.0199741
-0.078125, -0.2177734, -1.0234375, -19.0243912, -124.6341476, 26.8902454, 0.0068818
-0.0952148, -0.206543, -1.0151367, -18.9024391, -121.2804871, 26.5243912, -0.0095674
-0.1430664, -0.2070312, -1.0024414, -18.6585369, -120, 26.5853672, -0.0194705
-0.168457, -0.215332, -0.9946289, -17.9878044, -119.5121994, 27.8048782, -0.0364233
-0.1938477, -0.2412109, -0.9858398, -17.9268303, -121.0975647, 29.3902454, -0.0498512
-0.203125, -0.2470703, -0.9897461, -17.8658543, -121.8292694, 29.9390259, -0.0585794
-0.2133789, -0.2382812, -1.0219727, -17.2560978, -121.0975647, 31.5243912, -0.0741894
-0.2158203, -0.2246094, -1.050293, -16.5243912, -119.8780518, 31.8292694, -0.0814069
-0.2084961, -0.1899414, -1.1210938, -16.7682934, -117.3170776, 32.2560997, -0.0861067
-0.171875, -0.1972656, -1.1577148, -18.0487804, -117.0121994, 32.8048782, -0.0854353
-0.1386719, -0.2109375, -1.144043, -21.4634151, -118.7804871, 35.0609779, -0.0850996
-0.0742188, -0.2402344, -1.0473633, -23.2926826, -119.4512253, 35.8536606, -0.0844282
-0.046875, -0.2524414, -0.9838867, -24.2682934, -118.5975647, 35.1829262, -0.0847639
-0.0566406, -0.2563477, -0.9130859, -23.7195129, -115.6097565, 34.0853653, -0.0938277
-0.1020508, -0.2407227, -0.9111328, -21.9512196, -107.1341476, 32.3170738, -0.0955062
-0.2246094, -0.1787109, -0.9306641, -20.4878044, -100.6707306, 31.8292694, -0.0882887
-0.2875977, -0.1499023, -0.9272461, -20.9146347, -101.1585388, 32.0121956, -0.0941634
-0.3652344, -0.1186523, -0.8623047, -23.9634151, -108.9634171, 31.9512196, -0.0908064
-0.3945312, -0.1289062, -0.8291016, -26.5243912, -114.0243912, 32.1951218, -0.0814069
-0.4301758, -0.1787109, -0.824707, -31.4024391, -120.4878082, 34.1463432, -0.0762036
-0.4335938, -0.2382812, -0.8540039, -32.3780479, -123.2317123, 35.3048782, -0.0716716
-0.4213867, -0.2602539, -0.859375, -32.0731697, -128.7804871, 36.0975609, -0.0686503
-0.3793945, -0.2983398, -0.8496094, -31.0365868, -131.7682953, 35.7317085, -0.0605936
-0.362793, -0.3081055, -0.8447266, -28.841465, -135.9756165, 34.6951218, -0.0673075
-0.3417969, -0.3012695, -0.8789062, -27.6829281, -136.0365906, 34.2682953, -0.0592508
-0.3374023, -0.2841797, -0.9150391, -26.0365868, -134.5731812, 35.1829262, -0.0565652
-0.3222656, -0.2260742, -0.9702148, -24.7560978, -133.4146423, 35.7926826, -0.0552224
-0.3120117, -0.1894531, -0.9829102, -24.8170738, -133.5365906, 35.6097565, -0.0463264
-0.2866211, -0.1333008, -1.0024414, -26.8292694, -134.0243988, 34.6341476, -0.0565652
-0.2651367, -0.1230469, -1.0292969, -28.841465, -133.3536682, 34.3902435, -0.0574044
-0.2509766, -0.1474609, -1.0600586, -32.0121956, -131.9512177, 36.0365868, -0.0535439
-0.2124023, -0.2192383, -1.0810547, -33.1097565, -132.0121918, 37.6829262, -0.0391089
-0.1855469, -0.2626953, -1.0625, -33.2317085, -132.86586, 40.3048782, -0.023331
-0.1523438, -0.3125, -0.9956055, -32.0121956, -132.2561035, 40.9146347, -0.0135958
-0.15625, -0.3125, -0.9711914, -28.1097565, -126.1585388, 40.6707344, -0.0015106
-0.1953125, -0.2724609, -0.9584961, -25.5487804, -121.0365906, 40, 0.0031891
-0.2324219, -0.2397461, -0.9770508, -23.0487804, -112.0121994, 38.0487823, -0.0068818
-0.3154297, -0.171875, -1.0493164, -24.6951218, -108.3536606, 37.1341476, -0.0041962
-0.3505859, -0.1455078, -1.0649414, -27.0731716, -109.3902435, 36.8902435, 0.0099031
-0.3710938, -0.1108398, -1.0073242, -33.5365868, -115.18293, 36.7073174, 0.0169528
-0.3515625, -0.1347656, -0.8769531, -36.2804871, -118.7195129, 36.6463432, 0.0142672
-0.3383789, -0.1704102, -0.8334961, -40.0609779, -121.1585388, 36.0365868, 0.0099031
-0.3476562, -0.2246094, -0.8217773, -40.8536606, -119.7561035, 35.8536606, 0.0135958
-0.3745117, -0.2363281, -0.8461914, -39.2682953, -114.8170776, 36.7682953, 0.0072175
-0.4301758, -0.2060547, -0.887207, -37.8658562, -112.7439041, 37.3170738, 0.0030213
-0.449707, -0.1801758, -0.8833008, -35.5487823, -112.9268341, 37.4390259, -0.0028534
-0.4692383, -0.1416016, -0.8383789, -35.7317085, -114.6951218, 37.1341476, -0.002182
-0.4775391, -0.1333008, -0.8154297, -37.9268303, -117.68293, 36.6463432, 0.0058747
-0.4858398, -0.1455078, -0.7963867, -39.6951218, -120.8536606, 37.5609779, -0.0015106
-0.4848633, -0.1757812, -0.7939453, -39.9390259, -122.5, 38.6585388, -0.0043641
-0.4682617, -0.2451172, -0.8041992, -38.2317085, -125.6707382, 40.3658562, -0.0082246
-0.4438477, -0.3051758, -0.8330078, -36.341465, -126.3414688, 41.0975609, -0.0109102
-0.4379883, -0.3198242, -0.8579102, -31.1585369, -125.7926865, 41.7073174, -0.01561
-0.4370117, -0.3076172, -0.8911133, -29.0243912, -124.7561035, 41.8292694, -0.0179599
-0.4399414, -0.2719727, -0.9013672, -25.6707325, -122.0121994, 42.0121956, -0.0152743
-0.4316406, -0.1870117, -0.9057617, -25.060976, -121.1585388, 41.2804871, -0.0146029
-0.4311523, -0.1508789, -0.894043, -25.4878063, -121.8292694, 39.5731735, -0.024506
-0.4350586, -0.1098633, -0.8491211, -26.8902454, -122.7439041, 38.5975609, -0.0243381
-0.4345703, -0.1113281, -0.8286133, -30.4878063, -124.8780518, 37.4390259, -0.0162814
-0.4384766, -0.1430664, -0.8378906, -34.3292694, -125.6097565, 38.1097565, -0.0176242
-0.4477539, -0.1645508, -0.8662109, -35.9756088, -125.5487823, 38.841465, -0.0077211
-0.4584961, -0.2021484, -0.9526367, -37.1951218, -124.9390259, 40.2439041, -0.0038605
-0.4506836, -0.230957, -0.9975586, -37.0121956, -125.2439041, 41.1585388, -0.0041962
-0.4301758, -0.2421875, -0.9770508, -34.5731697, -127.5, 43.2317085, -0.005539
-0.362793, -0.234375, -0.8500977, -33.4756088, -128.4146423, 43.2926826, 0.002182
-0.3447266, -0.2075195, -0.8061523, -31.7682934, -125.4878082, 40.9146347, 0.0052033
-0.3740234, -0.1342773, -0.8237305, -31.8902454, -120.1219559, 38.1707344, 0.0075532
-0.425293, -0.1035156, -0.8847656, -34.3292694, -109.9390259, 34.7560997, 0.0011749
-0.512207, -0.0849609, -0.9658203, -36.2804871, -108.4756088, 35, -0.0015106
-0.5253906, -0.1020508, -0.9438477, -40.9756088, -114.6951218, 36.8902435, 0.0065461
-0.4902344, -0.1723633, -0.800293, -43.9024391, -123.8414688, 37.7439041, 0.0048676
-0.4702148, -0.2050781, -0.7236328, -43.7804871, -124.6341476, 37.1951218, -0.0052033
-0.4838867, -0.2373047, -0.6928711, -39.6951218, -118.6585388, 35.8536606, -0.0310521
-0.550293, -0.2280273, -0.7832031, -36.2804871, -114.0853653, 35.9146347, -0.0639506
-0.5737305, -0.215332, -0.8183594, -31.7073174, -109.9390259, 37.9878044, -0.0847639
-0.5805664, -0.1782227, -0.8237305, -30.7317085, -110.9756088, 38.5365868, -0.0876173
-0.5756836, -0.1625977, -0.8017578, -32.2560997, -114.5731735, 37.0121956, -0.0699931
-0.5629883, -0.1606445, -0.7724609, -33.1097565, -116.0975647, 35.8536606, -0.0448157
-0.5507812, -0.1723633, -0.7666016, -34.3902435, -117.6219559, 35.1829262, 0.0072175
-0.5288086, -0.1923828, -0.7670898, -34.5121956, -117.6219559, 34.7560997, 0.0532082
-0.5224609, -0.2006836, -0.7807617, -32.9878044, -116.0975647, 33.7804871, 0.0924849
-0.5322266, -0.1894531, -0.8212891, -30.6097565, -112.8048782, 33.7195129, 0.0965133
-0.5366211, -0.1738281, -0.8217773, -29.5731716, -111.0975647, 34.0853653, 0.079057
-0.53125, -0.137207, -0.7661133, -28.9634151, -110.4268341, 34.3292694, 0.070161
-0.5385742, -0.1152344, -0.6738281, -29.2682934, -110.2439041, 33.0487823, 0.040116
-0.5576172, -0.105957, -0.6484375, -31.0365868, -108.6585388, 30.7926846, 0.002182
-0.6176758, -0.109375, -0.6396484, -31.6463413, -107.6219559, 30.1829281, -0.018967
-0.6489258, -0.1176758, -0.6572266, -32.1951218, -107.6219559, 30.5487804, -0.0340734
-0.6889648, -0.1416016, -0.722168, -31.8292694, -108.7804871, 31.4634151, -0.0471656
-0.6958008, -0.1577148, -0.7568359, -32.0731697, -112.9268341, 33.9634171, -0.0558938
-0.6635742, -0.1611328, -0.7954102, -32.3170738, -115.7317123, 35.1219521, -0.0605936
-0.6391602, -0.1425781, -0.8056641, -33.7195129, -119.3292694, 35.5487823, -0.0619364
-0.5947266, -0.0810547, -0.8300781, -36.2195129, -117.9268341, 33.2926826, -0.0552224
-0.5786133, -0.0449219, -0.8330078, -38.0487823, -116.4634171, 32.2560997, -0.0525368
-0.5507812, -0.0161133, -0.8056641, -42.3780479, -115.0609818, 31.8902454, -0.0458228
-0.5195312, -0.0527344, -0.730957, -44.4512215, -115.1219559, 32.2560997, -0.0480049
-0.5112305, -0.0839844, -0.699707, -46.7073174, -113.2317123, 33.1097565, -0.0565652
-0.512207, -0.140625, -0.7089844, -46.4634171, -111.0365906, 33.5365868, -0.064622
-0.5195312, -0.1577148, -0.7416992, -43.7195129, -103.3536606, 34.8780479, -0.0753643
-0.5449219, -0.1660156, -0.8227539, -41.341465, -98.6585388, 35.2439041, -0.0710002
-0.5546875, -0.1611328, -0.8422852, -37.0121956, -92.8048782, 35.1829262, -0.0652934
-0.5507812, -0.15625, -0.7973633, -36.0975609, -91.9512253, 34.6951218, -0.0619364
-0.5429688, -0.1513672, -0.7397461, -35.3658562, -92.0121994, 31.8902454, -0.0538796
-0.5478516, -0.1269531, -0.5922852, -35.2439041, -90.1219559, 27.6219521, -0.0522011
-0.5732422, -0.1108398, -0.5341797, -35, -87.68293, 25.5487804, -0.0616007
-0.6577148, -0.1010742, -0.4682617, -34.1463432, -83.1707306, 22.560976, -0.0605936
-0.7475586, -0.1293945, -0.4570312, -33.5365868, -82.3780518, 21.9512196, -0.0609293
-0.7856445, -0.1508789, -0.4648438, -33.7195129, -86.3414688, 22.0121956, -0.0652934
-0.828125, -0.2016602, -0.5087891, -33.7804871, -90.7317123, 22.3170738, -0.0585794
-0.8305664, -0.2241211, -0.5610352, -32.9268303, -99.8780518, 22.8048782, -0.0605936
-0.8164062, -0.25, -0.6835938, -31.7073174, -103.4146347, 23.4146347, -0.0552224
-0.7792969, -0.2387695, -0.7138672, -27.0121956, -109.5731735, 24.3902435, -0.0505226
-0.6850586, -0.1835938, -0.6606445, -22.6829281, -113.9024429, 23.0487804, -0.047837
-0.637207, -0.1464844, -0.6020508, -20.9756107, -114.0853653, 21.0365868, -0.0391089
-0.5766602, -0.0712891, -0.5004883, -19.8170738, -109.9390259, 16.4024391, -0.0256809
-0.5742188, -0.034668, -0.4921875, -20.4268303, -105.7926865, 15, -0.0152743
-0.6103516, 0.0180664, -0.5615234, -23.5975609, -98.0487823, 15.3048782, -0.0142672
-0.6645508, 0.0400391, -0.7055664, -25.7926826, -95.4878082, 16.4024391, -0.0125887
-0.6831055, 0.0380859, -0.7636719, -30.1829281, -94.9390259, 20.4268303, -0.0082246
-0.6743164, 0.0087891, -0.7817383, -31.8292694, -97.5609741, 22.9878063, -0.0028534
-0.6474609, -0.0097656, -0.7329102, -33.1097565, -104.2682953, 26.7682934, 0.0078889
-0.5732422, -0.0410156, -0.5927734, -32.9268303, -106.4024429, 27.560976, 0.0085603
-0.5488281, -0.0458984, -0.5405273, -32.2560997, -103.9634171, 25.9146347, 0.0132601
-0.5576172, -0.0463867, -0.5366211, -32.2560997, -94.6951218, 23.8414631, 0.0112459
-0.5834961, -0.0356445, -0.5844727, -33.1097565, -89.3292694, 23.6585369, 0.0112459
-0.6484375, -0.0131836, -0.6787109, -35.6707344, -83.6585388, 24.3902435, 0.0085603
-0.6713867, -0.0195312, -0.6865234, -36.7682953, -84.3292694, 25, -0.0028534
-0.668457, -0.0478516, -0.6123047, -37.9878044, -89.6341476, 25.3658543, -0.0075532
-0.6503906, -0.0947266, -0.5014648, -38.1097565, -92.5609741, 25.060976, -0.0008392
-0.6435547, -0.1176758, -0.4648438, -36.2195129, -94.146347, 23.3536587, 0.0105745
-0.6567383, -0.125, -0.4458008, -35.1219521, -92.5, 22.6829281, 0.0186313
-0.675293, -0.1147461, -0.4550781, -32.5609779, -87.2560959, 22.0121956, 0.0260166
-0.7128906, -0.0966797, -0.4980469, -31.8292694, -84.8780518, 21.3414631, 0.0293736
-0.7319336, -0.0991211, -0.5205078, -30.2439022, -84.0243912, 20.4268303, 0.0471656
-0.7441406, -0.1352539, -0.5483398, -28.5365868, -86.9512253, 20.9756107, 0.0629435
-0.7333984, -0.1582031, -0.5585938, -27.2560978, -88.6585388, 21.7073174, 0.0730144
-0.6914062, -0.1762695, -0.5703125, -23.7195129, -90.2439041, 21.2195129, 0.0683146
-0.6708984, -0.1669922, -0.5610352, -21.9512196, -89.6341476, 20.7926826, 0.0515297
-0.6303711, -0.105957, -0.4985352, -18.9024391, -85.1219559, 18.1097565, 0.0441444
-0.6254883, -0.0302734, -0.418457, -18.4146347, -82.0731735, 16.4634151, 0.0256809
-0.6411133, -0.0087891, -0.4047852, -18.7195129, -75.6097565, 12.560976, 0.0068818
-0.6972656, 0.0078125, -0.4487305, -19.0853672, -73.3536606, 12.2560978, -0.0031891
-0.7241211, -0.0024414, -0.4912109, -20.8536587, -70.2439041, 15.3658543, -0.002182
-0.7480469, 0.0112305, -0.5424805, -21.2195129, -70.18293, 17.560976, -0.0162814
-0.7446289, 0.0239258, -0.53125, -20.2439022, -70.1219559, 20.7317085, -0.0270237
-0.7231445, 0.0288086, -0.4438477, -19.0243912, -71.3414688, 20.7926826, -0.030045
-0.7104492, 0.0195312, -0.3828125, -18.5365849, -71.4634171, 20.1219521, -0.0377661
-0.7016602, -0.0244141, -0.3081055, -18.9024391, -69.9390259, 18.4756107, -0.040116
-0.7138672, -0.0400391, -0.3154297, -19.3902435, -68.2317123, 18.4756107, -0.0488441
-0.7583008, -0.03125, -0.3964844, -19.3902435, -64.3292694, 19.3902435, -0.0636149
-0.7954102, 0.0048828, -0.484375, -19.0243912, -62.9878082, 20.3658543, -0.0710002
-0.7939453, 0.0200195, -0.5019531, -18.780489, -63.841465, 22.0731716, -0.0762036
-0.7607422, 0.0292969, -0.4858398, -18.780489, -65.9146347, 22.6829281, -0.0795605
-0.7397461, 0.0263672, -0.4575195, -20.1219521, -69.5121994, 22.439024, -0.0767071
-0.699707, 0.0209961, -0.4067383, -20.8536587, -70, 22.1951218, -0.0847639
-0.6816406, 0.0234375, -0.3945312, -22.7439022, -67.3170776, 21.0365868, -0.0908064
-0.6713867, 0.0214844, -0.4057617, -25.060976, -61.5243912, 19.2682934, -0.0960098
-0.6865234, 0.0219727, -0.4199219, -26.280489, -59.0853691, 18.780489, -0.103563
-0.7177734, 0.0068359, -0.4448242, -28.1097565, -56.6463432, 19.0243912, -0.1109483
-0.7294922, -0.0136719, -0.4418945, -28.3536587, -57.1951218, 19.5121956, -0.1025559
-0.7236328, -0.0488281, -0.4316406, -27.5, -58.3536606, 20.6707325, -0.0921492
-0.7177734, -0.0449219, -0.4433594, -26.7073174, -58.1097565, 20.3658543, -0.0861067
-0.71875, -0.03125, -0.4560547, -25.6707325, -55.8536606, 19.3292694, -0.0773785
-0.7250977, 0.0083008, -0.4467773, -25.7926826, -54.1463432, 18.0487804, -0.0673075
-0.7280273, 0.019043, -0.4223633, -26.7682934, -52.5, 16.1585369, -0.0599222
-0.7250977, 0.0039062, -0.3681641, -27.1341476, -52.3170738, 15.3048782, -0.0446479
-0.7241211, -0.0083008, -0.3510742, -26.9512196, -51.4024391, 13.780488, -0.0439765
-0.7446289, -0.0253906, -0.3476562, -25.9756107, -50.0609779, 13.1097565, -0.0404517
-0.7558594, -0.0307617, -0.3466797, -24.8170738, -49.2073174, 13.1707315, -0.0344091
-0.7817383, -0.0327148, -0.3535156, -21.6463413, -47.7439041, 13.2926836, -0.0270237
-0.7871094, -0.0307617, -0.3637695, -20.3048782, -47.1951218, 13.6585369, -0.0166171
-0.7890625, -0.0302734, -0.4233398, -19.7560978, -47.0121956, 14.0853662, -0.0159457
-0.7827148, 0.0102539, -0.456543, -20.4268303, -46.7073174, 14.2073174, -0.0172885
-0.7753906, 0.0371094, -0.4389648, -22.6829281, -46.2195129, 14.0243902, -0.0184634
-0.7548828, 0.0556641, -0.3422852, -23.5365868, -45.9146347, 12.8658543, -0.0243381
-0.7421875, 0.0478516, -0.2929688, -24.0243912, -45.4268303, 10.2439022, -0.0216526
-0.7563477, 0.0136719, -0.2583008, -23.7195129, -44.8780479, 9.6951218, -0.0117494
-0.7680664, -0.0009766, -0.2919922, -23.4756107, -41.8902435, 9.6341467, -0.0085603
-0.8032227, -0.0039062, -0.3950195, -24.2682934, -38.9634171, 11.280488, -0.005539
-0.8164062, -0.0043945, -0.4316406, -24.0853672, -38.9634171, 12.1341467, -0.0057069
-0.8071289, -0.0004883, -0.4272461, -22.0121956, -41.7073174, 13.6585369, 0.0070497
-0.7915039, -0.0039062, -0.3999023, -20.8536587, -43.5365868, 13.841464, 0.0008392
-0.7612305, 0.0092773, -0.3666992, -19.3902435, -44.6341476, 12.8658543, 0.0011749
-0.7475586, 0.0371094, -0.4291992, -19.8170738, -42.9878044, 12.7439032, 0.0092317
-0.753418, 0.0537109, -0.4741211, -23.9634151, -38.1097565, 12.0731707, 0.0137636
-0.7514648, 0.0673828, -0.5004883, -26.0975609, -35.7926826, 12.0731707, 0.0159457
-0.7495117, 0.0600586, -0.4609375, -28.4756107, -35.0609779, 11.4024391, 0.0105745
-0.7202148, 0.0234375, -0.3354492, -28.3536587, -35.7926826, 11.0975609, 0.0095674
-0.7177734, -0.0029297, -0.2792969, -25.6097565, -35.8536606, 9.3292685, 0.0105745
-0.7460938, -0.0214844, -0.253418, -22.6829281, -30.9146347, 8.5975609, 0.0238346
-0.7758789, -0.0131836, -0.2895508, -21.8292694, -27.8658543, 8.6585369, 0.0374304
-0.8398438, 0.0249023, -0.3808594, -21.8902435, -25.3048782, 9.6341467, 0.026688
-0.8618164, 0.0400391, -0.4077148, -22.0121956, -26.7682934, 10.1829271, 0.0139315
-0.8642578, 0.0473633, -0.3911133, -22.439024, -32.5609779, 11.219512, 0.0048676
-0.8330078, 0.0136719, -0.3540039, -22.0121956, -35.6097565, 11.0365858, 0.0005035
-0.8071289, 0.0004883, -0.3466797, -21.5243912, -38.0487823, 10.5487804, -0.0075532
-0.78125, -0.0004883, -0.3642578, -21.280489, -37.5, 10.5487804, -0.0115816
-0.7734375, 0.0029297, -0.375, -20.4878044, -34.2682953, 9.7560978, -0.0109102
-0.7646484, -0.0029297, -0.3774414, -19.6341476, -32.8658562, 9.0243902, -0.012253
-0.7666016, -0.0097656, -0.371582, -17.8048782, -31.2195129, 8.719512, -0.0095674
-0.7832031, -0.0053711, -0.3637695, -15.9756098, -30.060976, 8.719512, 0.0001678
-0.7939453, 0.003418, -0.3603516, -15.060976, -29.3292694, 9.1463413, 0.026688
-0.8120117, 0.043457, -0.3491211, -14.4512196, -27.4390259, 9.0853662, 0.0508583
-0.8168945, 0.0693359, -0.3413086, -14.6341467, -26.3414631, 8.9634151, 0.0770428
-0.8330078, 0.0844727, -0.3510742, -16.7073174, -25.5487804, 7.8658538, 0.0931563
-0.8476562, 0.0615234, -0.3544922, -17.8048782, -25.9756107, 7.8048782, 0.0918135
-0.8447266, 0.0400391, -0.3398438, -20.1219521, -28.5975609, 8.1097565, 0.0800641
-0.8378906, 0.0141602, -0.315918, -20.6707325, -29.5121956, 8.1097565, 0.0681468
-0.8295898, 0.0141602, -0.3115234, -20.4268303, -29.5731716, 7.3780489, 0.0441444
-0.8286133, 0.0405273, -0.347168, -20.3658543, -29.2073174, 7.2560978, 0.0149386
-0.8325195, 0.0532227, -0.3725586, -21.7073174, -28.0487804, 6.4024391, -0.0018463
-0.8344727, 0.0664062, -0.4130859, -23.8414631, -28.4756107, 6.7682929, -0.0082246
-0.8286133, 0.0698242, -0.4047852, -23.9634151, -29.3292694, 7.1951222, -0.0125887
-0.8032227, 0.0473633, -0.3374023, -23.6585369, -29.8780499, 7.2560978, -0.0364233
-0.7836914, 0.034668, -0.2583008, -22.7439022, -28.9634151, 7.1341467, -0.0560616
-0.7875977, 0.0288086, -0.2368164, -20.7317085, -24.7560978, 5.5487804, -0.0629435
-0.8183594, 0.0361328, -0.2348633, -20.060976, -22.0121956, 4.6341462, -0.0726787
-0.8413086, 0.0302734, -0.253418, -19.5121956, -18.8414631, 3.8414636, -0.0814069
-0.8808594, 0.0073242, -0.3046875, -19.0243912, -18.780489, 3.9024391, -0.0944991
-0.8881836, 0, -0.3378906, -17.3780499, -21.7682934, 4.8780489, -0.0904707
-0.8759766, 0.0024414, -0.3798828, -16.5243912, -24.2073174, 5.670732, -0.0928206
-0.8583984, 0.0087891, -0.3911133, -13.6585369, -27.3780499, 6.6463418, -0.0981918
-0.8017578, 0.0375977, -0.362793, -10.6097565, -25.9756107, 6.4634147, -0.0943313
-0.7792969, 0.0498047, -0.3525391, -9.9390249, -23.6585369, 5.9756098, -0.0887922
-0.765625, 0.0756836, -0.34375, -10.8536587, -17.5, 4.3292685, -0.0869459
-0.7836914, 0.0756836, -0.3422852, -11.7073174, -14.7560978, 3.4756098, -0.0809033
-0.796875, 0.0639648, -0.3383789, -13.2926836, -12.0731707, 3.2926829, -0.0938277
-0.8168945, 0.0351562, -0.3188477, -12.9878054, -11.4634151, 3.3536587, -0.0820783
-0.8232422, 0.0307617, -0.3120117, -11.7073174, -10.9146347, 3.4146342, -0.0746929
-0.831543, 0.0356445, -0.3237305, -10.7926836, -9.6951218, 3.0487804, -0.0793927
-0.8378906, 0.050293, -0.331543, -10.6097565, -7.4390244, 2.8658538, -0.0780499
-0.8442383, 0.0576172, -0.3457031, -10.9756098, -6.8292685, 3.1707318, -0.0693217
-0.8461914, 0.0625, -0.347168, -12.560976, -5.670732, 2.6829269, -0.0659648
-0.8398438, 0.0571289, -0.3393555, -13.9634151, -5.3658538, 1.8902439, -0.0632792
-0.8369141, 0.0493164, -0.3237305, -14.2073174, -5.1219511, 1.4634147, -0.0552224
-0.831543, 0.0507812, -0.2851562, -13.9634151, -3.1707318, 0.6707317, -0.0377661
-0.8427734, 0.0678711, -0.2578125, -13.780488, -1.8902439, 0.3048781, -0.0325628
-0.8544922, 0.0737305, -0.2485352, -14.0243902, 1.4634147, -0.8536586, -0.0350805
-0.8813477, 0.059082, -0.2490234, -14.2682934, 2.6829269, -1.0365853, -0.0236667
-0.8930664, 0.0517578, -0.2543945, -15.4268293, 3.1097562, -1.3414634, -0.0135958
-0.9003906, 0.0166016, -0.2827148, -16.2195129, 2.6219513, -1.4634147, -0.0213169
-0.8945312, 0.0063477, -0.2939453, -16.1585369, 0.7926829, -1.6463414, -0.0243381
-0.8745117, 0.003418, -0.3105469, -15.6707325, 0.1219512, -2.195122, -0.018967
-0.8662109, 0.0112305, -0.3144531, -14.6951227, 0.0609756, -3.2926829, -0.0095674
-0.8496094, 0.0458984, -0.3198242, -14.2073174, 2.4390244, -3.9024391, -0.0065461
-0.8447266, 0.0629883, -0.3115234, -14.0853662, 4.2682929, -4.1463413, 0.0025177
-0.8422852, 0.0761719, -0.2944336, -13.841464, 8.2317076, -4.1463413, 0.0045319
-0.847168, 0.0556641, -0.293457, -13.5365858, 10.060976, -4.0243902, 0.0085603
-0.8510742, 0.0458984, -0.2973633, -13.2926836, 12.7439032, -3.6585367, 0.011078
-0.8535156, 0.0239258, -0.3212891, -12.7439032, 13.5365858, -3.5365853, 0.0139315
-0.8549805, 0.0224609, -0.3369141, -11.7073174, 14.5731707, -2.8658538, 0.012253
-0.8481445, 0.0332031, -0.3603516, -11.6463413, 15.7926836, -2.9878049, 0.0062104
-0.8408203, 0.0375977, -0.3588867, -11.219512, 17.9268303, -3.3536587, 0.0052033
-0.8339844, 0.0439453, -0.3334961, -10.9146347, 19.2682934, -3.4146342, 0.0058747
-0.828125, 0.0415039, -0.3203125, -10.1829271, 22.3780499, -4.5121951, -0.0008392
-0.8251953, 0.0341797, -0.3061523, -9.0243902, 25.9146347, -5.1829271, 0.0083925
-0.8310547, 0.0332031, -0.3037109, -8.3536587, 27.6829281, -5.3048782, 0.0050355
-0.8496094, 0.0429688, -0.3081055, -6.7073174, 30.8536587, -5.670732, -0.0041962
-0.8662109, 0.0356445, -0.2973633, -5.7926831, 31.8902454, -5.5487804, -0.0005035
-0.8671875, 0.0297852, -0.2983398, -4.2073174, 33.1707306, -5.4878049, -0.0075532
-0.8657227, 0.0288086, -0.3012695, -4.1463413, 33.3536606, -6.0975609, -0.0124208
-0.8652344, 0.0351562, -0.3144531, -5, 34.0853653, -7.3780489, -0.0162814
-0.871582, 0.0351562, -0.3632812, -6.3414636, 34.6341476, -8.1097565, -0.0246738
-0.8681641, 0.0249023, -0.3803711, -8.841464, 34.5121956, -8.5975609, -0.0287022
-0.8442383, 0.0092773, -0.3798828, -9.2073174, 34.4512215, -9.0243902, -0.0256809
-0.828125, 0.0117188, -0.3569336, -8.841464, 34.4512215, -9.6341467, -0.0399481
-0.7978516, 0.0327148, -0.2958984, -7.6219516, 38.2317085, -11.5853662, -0.0532082
-0.7939453, 0.0405273, -0.2709961, -6.890244, 40.8536606, -12.8658543, -0.0565652
-0.8076172, 0.0356445, -0.25, -6.9512196, 45.5487823, -15.060976, -0.0652934
-0.847168, 0.0068359, -0.2617188, -7.3170733, 46.7682953, -15.6707325, -0.0676432
-0.8657227, -0.0107422, -0.269043, -7.6219516, 47.0731735, -16.8292694, -0.0599222
-0.8891602, -0.0200195, -0.2841797, -7.7439027, 46.7682953, -17.2560978, -0.0505226
-0.8935547, -0.0185547, -0.3051758, -7.8658538, 45.4268303, -18.6585369, -0.0417945
-0.8852539, 0.0131836, -0.3383789, -8.1097565, 44.3292694, -19.6341476, -0.0394446
-0.8735352, 0.0292969, -0.3393555, -10.2439022, 42.9268303, -21.1585369, -0.0332341
-0.8432617, 0.0366211, -0.3208008, -11.0975609, 42.1341476, -21.8292694, -0.0243381
-0.8232422, 0.0273438, -0.3095703, -12.0731707, 41.6463432, -22.6219521, -0.0310521
-0.7919922, 0.0063477, -0.3208008, -11.4024391, 43.1707344, -22.9268303, -0.0350805
-0.7856445, 0, -0.3442383, -10.6097565, 44.9390259, -22.7439022, -0.0350805
-0.7719727, -0.0043945, -0.4086914, -9.3902445, 48.4146347, -21.4634151, -0.0370947
-0.7583008, 0.0024414, -0.4462891, -8.9634151, 50, -20.7317085, -0.0384375
-0.75, 0.0083008, -0.453125, -7.0731707, 52.8658562, -19.5731716, -0.0370947
-0.7314453, 0.0107422, -0.4619141, -5.9756098, 54.4512215, -18.7195129, -0.0256809
-0.71875, 0.0073242, -0.4619141, -5, 58.5365868, -17.9268303, -0.0203098
-0.7075195, -0.0068359, -0.4633789, -4.390244, 61.0365868, -17.439024, -0.0209812
-0.7094727, -0.0112305, -0.4628906, -4.0243902, 66.9512177, -17.6219521, -0.0129244
-0.7182617, -0.0136719, -0.4682617, -4.2073174, 72.1341476, -19.0243912, -0.0075532
-0.7314453, -0.012207, -0.4667969, -4.390244, 73.6585388, -19.4512196, 0.0005035
-0.7543945, -0.0180664, -0.4301758, -4.2682929, 75.7317123, -20, 0.0092317
-0.7607422, -0.0283203, -0.4023438, -3.8414636, 76.3414688, -20.4268303, -0.0075532
-0.7695312, -0.0454102, -0.3618164, -1.8902439, 77.8048782, -20.9756107, -0.0149386
-0.7929688, -0.0551758, -0.3652344, -0.1829268, 78.6585388, -21.1585369, -0.0182956
-0.8027344, -0.0537109, -0.3754883, 1.2804878, 80.4268341, -21.4634151, -0.005539
-0.8051758, -0.0371094, -0.4125977, 1.6463414, 81.0365906, -21.4024391, 0.0146029
-0.8066406, -0.0292969, -0.4375, 0, 80.7926865, -22.3170738, 0.0293736
-0.8007812, -0.0136719, -0.4707031, -1.8902439, 80.18293, -22.9268303, 0.0347448
-0.7871094, -0.0063477, -0.4716797, -6.1585369, 78.4756088, -24.5731716, 0.0330663
-0.7626953, -0.0087891, -0.4448242, -8.841464, 76.646347, -25, 0.0320592
-0.7451172, -0.0170898, -0.4174805, -9.6341467, 76.4634171, -25.5487804, 0.0280308
-0.7182617, -0.0395508, -0.3779297, -9.0853662, 77.6219559, -27.4390259, 0.0276951
-0.7104492, -0.0483398, -0.3681641, -8.9634151, 79.3292694, -28.1097565, 0.0193027
-0.7255859, -0.0639648, -0.3706055, -8.0487804, 82.1341476, -28.9634151, 0.0179599
-0.7475586, -0.0668945, -0.3881836, -7.7439027, 82.8658524, -29.3902454, 0.0119173
-0.7558594, -0.0576172, -0.4121094, -7.3780489, 82.9268341, -30.4268303, 0.0125887
-0.7700195, -0.0371094, -0.4580078, -7.7439027, 82.4390259, -31.0365868, 0.0105745
-0.7705078, -0.0297852, -0.4716797, -9.7560978, 80.18293, -31.5853672, 0.0011749
-0.7568359, -0.0292969, -0.4902344, -10.7926836, 78.7804871, -31.5243912, -0.0095674
-0.7407227, -0.0292969, -0.5087891, -13.1097565, 76.2804871, -31.341465, -0.0149386
-0.7036133, -0.0288086, -0.5556641, -14.4512196, 75.18293, -30.3658543, -0.0290379
-0.6811523, -0.0302734, -0.5869141, -14.8170738, 75.7317123, -29.9390259, -0.0381018
-0.6386719, -0.0297852, -0.6264648, -14.8170738, 77.5609741, -28.1097565, -0.0417945
-0.6157227, -0.046875, -0.6401367, -13.9634151, 78.6585388, -27.0731716, -0.0404517
-0.5712891, -0.0712891, -0.6323242, -9.8170738, 82.3170776, -23.5975609, -0.0528725
-0.5356445, -0.0927734, -0.6064453, -6.5853658, 84.9390259, -22.0731716, -0.0491798
-0.5317383, -0.0878906, -0.5957031, 0, 94.3902435, -19.939024, -0.0394446
-0.5571289, -0.0751953, -0.5878906, 2.6219513, 100, -19.1463413, -0.018967
-0.5786133, -0.0742188, -0.5922852, 5.4268293, 109.8170776, -19.6951218, -0.0290379
-0.6313477, -0.0883789, -0.6381836, 5.7926831, 112.2561035, -20.1829281, -0.0532082
-0.6567383, -0.1010742, -0.6586914, 3.9024391, 111.8292694, -20.6097565, -0.0652934
-0.6992188, -0.1269531, -0.6845703, 1.7682927, 107.3780518, -20.2439022, -0.0753643
-0.7021484, -0.1230469, -0.6777344, 1.2804878, 105.3048782, -20.2439022, -0.0787213
-0.6889648, -0.0791016, -0.65625, 0.7317073, 103.8414688, -21.0365868, -0.0797284
-0.6772461, -0.0390625, -0.6455078, 0.2439024, 105.0609818, -21.8292694, -0.0941634
-0.6669922, 0.0229492, -0.6357422, -2.1341465, 108.5365906, -23.4146347, -0.1132982
-0.6616211, 0.0102539, -0.6333008, -4.2073174, 109.6951218, -23.8414631, -0.1237049
-0.6523438, -0.0244141, -0.6376953, -7.9268293, 108.4146347, -23.4756107, -0.1253834
-0.6254883, -0.105957, -0.6489258, -9.1463413, 107.1341476, -22.9878063, -0.105745
-0.6103516, -0.1362305, -0.6450195, -9.6951218, 104.7561035, -22.2560978, -0.0595865
-0.5839844, -0.1542969, -0.5854492, -8.780488, 104.8780518, -22.3170738, -0.0109102
-0.5825195, -0.1518555, -0.5410156, -5.0609756, 107.7439041, -23.9024391, 0.0285344
-0.5976562, -0.1313477, -0.4863281, -0.2439024, 111.4634171, -26.280489, 0.0515297
-0.6171875, -0.1201172, -0.4951172, 1.0365853, 112.68293, -27.4390259, 0.056733
-0.6733398, -0.1025391, -0.5532227, 1.5243902, 112.1951218, -28.5975609, 0.047837
-0.6958008, -0.097168, -0.5830078, 0.6097561, 109.9390259, -28.9024391, 0.0320592
-0.7099609, -0.1025391, -0.5825195, -0.6097561, 103.0487823, -29.8170738, 0.0092317
-0.6875, -0.1210938, -0.5327148, -0.1219512, 98.9024429, -30.4878063, -0.008896
-0.6743164, -0.1318359, -0.5107422, 2.3780489, 93.1097565, -32.8048782, -0.0130922
-0.6533203, -0.1469727, -0.534668, 4.5121951, 91.8902435, -34.2073174, -0.0196384
-0.644043, -0.1445312, -0.5703125, 7.3780489, 92.8048782, -35.7317085, -0.0354162
-0.6323242, -0.1254883, -0.6738281, 7.6219516, 93.5365906, -36.0975609, -0.0310521
-0.6235352, -0.1088867, -0.7402344, 4.6341462, 94.8780518, -35.6097565, -0.0360876
-0.5996094, -0.0664062, -0.8461914, 0.1219512, 93.9634171, -33.5365868, -0.0357519
-0.5756836, -0.0522461, -0.8754883, -1.2804878, 93.4146347, -32.4390259, -0.0471656
-0.5009766, -0.0366211, -0.8959961, -1.8292683, 95.4268341, -30.7926846, -0.0488441
-0.4628906, -0.0449219, -0.890625, -0.9146342, 97.68293, -30.2439022, -0.0441444
-0.3867188, -0.1040039, -0.8730469, 2.0121951, 103.7195129, -28.7195129, -0.0481727
-0.3339844, -0.1708984, -0.8432617, 3.5365853, 107.3780518, -27.7439022, -0.04448
-0.3271484, -0.1875, -0.8320312, 6.3414636, 116.0365906, -25.6097565, -0.0399481
-0.3520508, -0.1845703, -0.8095703, 7.6219516, 121.2195129, -25.1829281, -0.0327306
-0.387207, -0.1665039, -0.7851562, 10.4268293, 131.2195129, -25.1219521, -0.0419623
-0.4853516, -0.1352539, -0.7299805, 12.4390249, 135, -25.1219521, -0.0253452
-0.5366211, -0.1210938, -0.7128906, 15.9756098, 138.1707306, -25.4878063, -0.012253
-0.6152344, -0.1118164, -0.7338867, 17.2560978, 135.7926788, -25.2439022, -0.0172885
-0.6420898, -0.1123047, -0.7734375, 16.280489, 133.2317047, -24.9390259, -0.0276951
-0.6586914, -0.0996094, -0.8710938, 10, 127.1341476, -24.3292694, -0.0310521
-0.6479492, -0.0771484, -0.8857422, 6.0365853, 123.9024429, -24.5121956, -0.0169528
-0.5810547, -0.0483398, -0.8364258, -0.1829268, 119.146347, -26.2195129, -0.002182
-0.5083008, -0.0483398, -0.7353516, -2.0731707, 117.5, -27.3170738, 0.0078889
-0.4726562, -0.0668945, -0.6889648, -2.9878049, 115.0609818, -30.3048782, 0.0052033
-0.4423828, -0.1298828, -0.6591797, -2.4390244, 115.4878082, -31.5853672, -0.0005035
-0.4404297, -0.1523438, -0.6821289, -1.7682927, 116.7073212, -32.5609779, 0.0065461
-0.4594727, -0.1948242, -0.7954102, -2.0121951, 117.1951218, -32.8658562, 0.0223239
-0.4741211, -0.203125, -0.8554688, -2.0731707, 117.6219559, -33.2317085, 0.0347448
-0.4887695, -0.2089844, -0.9072266, -1.5853659, 116.2195129, -32.6219521, 0.0364233
-0.4794922, -0.2060547, -0.8828125, -1.097561, 115.0609818, -32.6829262, 0.0213169
-0.4541016, -0.1738281, -0.7675781, 1.402439, 115, -33.1097565, 0.0085603
-0.453125, -0.1469727, -0.7114258, 2.6829269, 116.4024429, -33.9634171, 0.0045319
-0.4848633, -0.1025391, -0.6713867, 5.1829271, 120.6707382, -36.4634171, 0.0052033
-0.5556641, -0.0766602, -0.7241211, 5.3658538, 122.1341476, -37.6219521, -0.0001678
-0.5947266, -0.0708008, -0.7714844, 2.3170731, 119.9390259, -37.9268303, -0.0119173
-0.6367188, -0.0834961, -0.8291016, -0.0609756, 116.2195129, -37.5, -0.0095674
-0.6367188, -0.1079102, -0.8354492, -4.6951222, 106.4024429, -35, -0.0221561
-0.5864258, -0.1621094, -0.8232422, -5.9146342, 101.9512253, -33.7195129, -0.0164492
-0.5541992, -0.1865234, -0.8291016, -6.5853658, 96.8292694, -31.2195129, -0.0115816
-0.4921875, -0.2314453, -0.8476562, -3.7195122, 96.0975647, -29.3902454, -0.023331
-0.4638672, -0.2470703, -0.84375, -1.5853659, 97.1341476, -28.5975609, -0.0243381
-0.4165039, -0.2578125, -0.7988281, 4.0853658, 100.3048782, -27.8048782, -0.0303807
-0.3945312, -0.2446289, -0.7822266, 6.8292685, 102.9268341, -28.2926826, -0.0283665
-0.375, -0.2119141, -0.8686523, 10.4268293, 108.7195129, -30.1219521, -0.0182956
-0.3779297, -0.1689453, -1.0620117, 10.1219511, 111.5243912, -31.2195129, -0.0199741
-0.3774414, -0.1582031, -1.1459961, 6.2195125, 113.5365906, -32.2560997, -0.0243381
-0.3320312, -0.1557617, -1.1469727, 2.6219513, 111.7073212, -31.9512196, -0.0250095
-0.2875977, -0.1621094, -1.0756836, -2.1341465, 108.1097565, -29.9390259, -0.0240024
-0.2080078, -0.1645508, -0.9355469, -2.5, 108.4756088, -29.3902454, -0.0370947
-0.1899414, -0.1547852, -0.9023438, -0.0609756, 115.9146347, -29.5731716, -0.0407874
-0.237793, -0.1166992, -0.9599609, 2.4390244, 127.3780518, -30.9756107, -0.0391089
-0.277832, -0.0961914, -1.0117188, 2.1341465, 130.9756165, -30.9756107, -0.0453193
-0.371582, -0.0844727, -1.0322266, -2.804878, 131.3414612, -29.5121956, -0.0493477
-0.4057617, -0.1171875, -0.9116211, -5.9756098, 128.6585388, -28.4146347, -0.043473
-0.4091797, -0.1416016, -0.8300781, -10.060976, 121.646347, -27.1341476, -0.0454871
-0.4169922, -0.1894531, -0.7172852, -10.6707315, 118.6585388, -28.0487804, -0.0449836
-0.4335938, -0.2050781, -0.7124023, -10.8536587, 114.6341476, -31.5853672, -0.0263523
-0.4960938, -0.2104492, -0.7607422, -11.0365858, 113.0487823, -33.6585388, -0.0310521
-0.534668, -0.2021484, -0.7832031, -12.2560978, 108.8414688, -35.8536606, -0.0293736
-0.5634766, -0.2011719, -0.7885742, -12.9268293, 105.5487823, -36.1585388, -0.0350805
-0.5463867, -0.2119141, -0.7983398, -12.560976, 98.2317123, -34.7560997, -0.0287022
-0.4658203, -0.2373047, -0.8754883, -11.4634151, 94.146347, -33.2317085, -0.0260166
-0.4130859, -0.2587891, -0.9536133, -11.4634151, 94.2682953, -33.2317085, -0.0139315
-0.3022461, -0.2871094, -1.0922852, -11.8292685, 96.9512253, -32.5609779, -0.0115816
-0.1933594, -0.3125, -1.1308594, -11.5243902, 98.5365906, -31.8902454, -0.0209812
-0.1391602, -0.3076172, -1.1044922, -9.5731707, 102.0731735, -31.4634151, -0.03122
-0.0512695, -0.2724609, -1.0185547, -7.7439027, 104.5121994, -31.4024391, -0.0276951
-0.034668, -0.2387695, -0.987793, -2.1341465, 114.3292694, -32.9268303, -0.0223239
-0.0732422, -0.1547852, -0.9804688, 0.7317073, 120.7317123, -34.3902435, -0.0226596
-0.1230469, -0.1230469, -0.9946289, 4.6951222, 130.5487823, -35.6097565, -0.0328985
-0.2519531, -0.1040039, -0.9765625, 5.3658538, 132.1951294, -35.3048782, -0.0270237
-0.3110352, -0.1162109, -0.9414062, 3.8414636, 128.5975647, -31.4634151, -0.0216526
-0.4042969, -0.1591797, -0.878418, 2.3170731, 123.2317123, -26.5853672, -0.017792
-0.4360352, -0.1796875, -0.8793945, 2.6829269, 121.4634171, -25.1219521, -0.0048676
-0.4614258, -0.2197266, -0.9458008, 3.2926829, 119.3292694, -23.5975609, -0.0028534
-0.4223633, -0.2768555, -1.0615234, 3.6585367, 118.2317123, -23.4756107, -0.0102388
-0.3754883, -0.3066406, -1.1069336, 2.4390244, 114.5121994, -23.1707325, -0.0151064
-0.246582, -0.3569336, -1.144043, 1.2195122, 112.68293, -22.7439022, -0.0127565
-0.1806641, -0.3662109, -1.1191406, -0.9756098, 111.7073212, -22.560976, -0.0209812
-0.0629883, -0.3369141, -1.0175781, -0.7317073, 112.3780518, -22.9268303, -0.0139315
-0.0292969, -0.3022461, -0.953125, 3.5365853, 117.0121994, -25.6097565, -0.0219883
-0.0390625, -0.171875, -0.8662109, 6.2195125, 120.4878082, -27.6829281, -0.0310521
-0.09375, -0.1005859, -0.8427734, 9.9390249, 126.7682953, -32.5609779, -0.0307164
-0.2441406, 0.0151367, -0.855957, 7.3780489, 128.5975647, -34.8780479, -0.0196384
-0.324707, 0.0458984, -0.90625, 3.7804878, 127.1341476, -34.5731697, -0.0095674
-0.4243164, 0.0170898, -1.0541992, -8.1097565, 119.0853653, -30.8536587, -0.0041962
-0.4057617, -0.1108398, -1.1269531, -15.2439032, 112.7439041, -28.4146347, -0.0003357
-0.3540039, -0.1962891, -1.0947266, -26.0975609, 98.8414688, -23.7195129, -0.005539
-0.2075195, -0.3530273, -0.9130859, -28.7195129, 92.7439041, -22.5, -0.0115816
-0.1367188, -0.4072266, -0.8100586, -25.7926826, 87.5, -22.7439022, -0.012253
-0.0722656, -0.4125977, -0.7045898, -21.4024391, 89.3902435, -25.060976, -0.01561
-0.090332, -0.3642578, -0.734375, -9.8170738, 99.8780518, -31.0365868, -0.0240024
-0.1850586, -0.203125, -0.9277344, -4.8170733, 105.4268341, -33.7804871, -0.0283665
-0.2373047, -0.125, -1.0454102, -1.8292683, 111.0365906, -36.4024391, -0.0344091
-0.2885742, -0.0390625, -1.1689453, -9.0243902, 105.9146347, -34.2073174, -0.0438087
-0.2724609, -0.0419922, -1.1650391, -14.5121956, 101.2804871, -31.9512196, -0.0485084
-0.1860352, -0.1108398, -1.0830078, -24.2682934, 94.3902435, -27.4390259, -0.0466621
-0.074707, -0.2148438, -1.0449219, -26.2195129, 93.9634171, -26.280489, -0.0471656
-0.0302734, -0.2592773, -1.0698242, -23.7195129, 99.8170776, -25.6097565, -0.0481727
0.0200195, -0.331543, -1.1459961, -20.7317085, 103.9024429, -25.9756107, -0.0520333
0.0341797, -0.3662109, -1.1616211, -12.9878054, 109.0853653, -26.280489, -0.0505226
0.0600586, -0.3964844, -1.1220703, -9.0243902, 110.5487823, -25.6097565, -0.043473
0.0673828, -0.3916016, -1.0742188, -1.2804878, 116.0365906, -23.4756107, -0.0384375
0.046875, -0.3178711, -0.9980469, 2.4390244, 120.6097565, -22.9878063, -0.0243381
0.0068359, -0.2504883, -0.9863281, 9.2073174, 131.5853729, -24.2073174, -0.0280308
-0.1147461, -0.0991211, -1.0234375, 12.5, 139.2073212, -26.0365868, -0.0253452
-0.1757812, -0.0336914, -1.0561523, 11.9512196, 139.5121918, -26.8902454, -0.0258488
-0.2558594, 0.0112305, -1.105957, 4.6341462, 134.5121918, -26.5243912, -0.0263523
-0.230957, -0.0581055, -1.1420898, -0.9146342, 130, -25.4268303, -0.0340734
-0.1865234, -0.1206055, -1.1582031, -12.9878054, 120.6707382, -22.560976, -0.0330663
-0.0566406, -0.2490234, -1.1762695, -18.3536587, 116.8292694, -21.7073174, -0.0298772
0.0126953, -0.3037109, -1.1547852, -23.4756107, 113.2926865, -20.5487804, -0.0236667
0.1313477, -0.3769531, -1.0419922, -22.9878063, 113.1097565, -20.6097565, -0.0102388
0.171875, -0.3867188, -0.9853516, -16.280489, 117.1951218, -21.8902435, 0.0085603
0.1806641, -0.3540039, -0.9130859, -11.5243902, 121.4024429, -23.0487804, 0.0125887
0.1416016, -0.2963867, -0.8969727, -1.7682927, 129.9390259, -25.7926826, 0.0025177
0.0107422, -0.15625, -0.8476562, 4.2073174, 132.4390259, -28.9024391, 0.0025177
-0.0722656, -0.0976562, -0.8056641, 5.1829271, 130.6707306, -29.7560978, 0.0025177
-0.2285156, -0.0361328, -0.703125, 2.195122, 121.5243912, -30.5487804, -0.0193027
-0.3457031, -0.0708008, -0.6777344, -0.8536586, 115.18293, -30.6097565, -0.0377661
-0.3769531, -0.1069336, -0.7172852, -9.5121956, 100.3658524, -30.5487804, -0.0488441
-0.3652344, -0.1904297, -0.9194336, -13.841464, 92.8658524, -30.6707325, -0.061265
-0.315918, -0.2285156, -1.0473633, -21.7682934, 79.6341476, -30.9756107, -0.0713359
-0.1425781, -0.3007812, -1.265625, -24.8170738, 74.2682953, -30.9756107, -0.0777142
-0.0317383, -0.3320312, -1.324707, -28.2926826, 68.7195129, -28.4146347, -0.0419623
0.2202148, -0.3725586, -1.3369141, -28.1097565, 68.9024429, -26.3414631, 0.0097353
0.3408203, -0.3847656, -1.3100586, -23.0487804, 77.8658524, -20.9146347, 0.0485084
0.5449219, -0.371582, -1.215332, -12.4390249, 97.6219559, -17.2560978, 0.1032273
0.6020508, -0.3491211, -1.1665039, -5.670732, 108.7804871, -17.3170738, 0.1270619
0.6132812, -0.3095703, -1.0678711, 9.5121956, 129.4512177, -20.5487804, 0.1367971
0.4936523, -0.2573242, -1.0136719, 16.7073174, 136.5853729, -23.5975609, 0.1290761
0.3891602, -0.2402344, -1.0205078, 25.8536587, 144.6951294, -29.0243912, 0.1017166
0.1459961, -0.2050781, -1.0913086, 27.6829281, 146.2804871, -30.4268303, 0.0830854
0.0288086, -0.184082, -1.128418, 25.4268303, 146.1585388, -30.9756107, 0.0763714
-0.1357422, -0.15625, -1.1508789, 22.7439022, 144.5121918, -29.7560978, 0.0743572
-0.1767578, -0.1533203, -1.1289062, 16.5243912, 137.5609741, -26.4634151, 0.0522011
-0.1640625, -0.1699219, -1.0488281, 10.7317076, 129.6951294, -22.8048782, 0.0250095
-0.1245117, -0.1831055, -1.0170898, 8.719512, 126.4634171, -21.9512196, 0.0176242
-0.0180664, -0.1933594, -0.9799805, 4.4512196, 122.6219559, -21.9512196, 0.0031891
0.0332031, -0.175293, -0.9697266, 2.195122, 121.9512253, -22.3170738, -0.0057069
0.1201172, -0.1323242, -0.9916992, -1.7073171, 123.4756088, -24.2073174, -0.0102388
0.1791992, -0.1230469, -1.0478516, -3.5975611, 123.7804871, -25, -0.0310521
0.1938477, -0.1381836, -1.0610352, -7.7439027, 119.8780518, -24.5121956, -0.0438087
0.2382812, -0.1967773, -1.0361328, -10.1829271, 116.3414688, -23.3536587, -0.0525368
0.2592773, -0.2211914, -1.0048828, -13.4756098, 111.0365906, -20.3048782, -0.0609293
0.28125, -0.2451172, -0.9692383, -14.0243902, 110.7317123, -19.6951218, -0.0673075
0.2714844, -0.2368164, -0.9838867, -11.8902445, 115, -19.6951218, -0.0798962
0.2104492, -0.1958008, -1.0581055, -10.3658543, 119.5121994, -20.7317085, -0.0835889
0.1801758, -0.1748047, -1.0874023, -10.9146347, 119.6341476, -20.8536587, -0.0955062
0.1450195, -0.1489258, -1.0859375, -15.4878054, 115.9756088, -20.4878044, -0.0975204
0.144043, -0.1557617, -1.0532227, -19.0243912, 112.6219559, -19.8170738, -0.0995346
0.1655273, -0.175293, -0.9814453, -25.7317085, 108.6585388, -19.7560978, -0.103563
0.1904297, -0.2109375, -0.980957, -27.9878063, 107.9268341, -20.3048782, -0.0908064
0.1972656, -0.2333984, -1.0151367, -27.9268303, 107.5, -21.280489, -0.0820783
0.2109375, -0.3007812, -1.0932617, -26.3414631, 107.0121994, -21.6463413, -0.0730144
0.237793, -0.3325195, -1.1005859, -21.4024391, 104.6951218, -19.2073174, -0.0840925
0.309082, -0.3881836, -1.03125, -18.2317085, 104.0853653, -17.7439022, -0.0773785
0.34375, -0.4077148, -0.9853516, -10.4268293, 106.7073212, -15.4268293, -0.0666361
0.3881836, -0.3916016, -0.9501953, -2.1341465, 115.5487823, -17.3780499, -0.0565652
0.3808594, -0.3666992, -0.980957, 2.0121951, 119.5731735, -19.3292694, -0.0622721
0.3242188, -0.3012695, -1.0805664, 8.0487804, 122.7439041, -24.0243912, -0.0592508
0.2861328, -0.2719727, -1.1069336, 9.2073174, 121.2804871, -25, -0.0572366
0.234375, -0.230957, -1.0424805, 9.6341467, 115.36586, -23.780489, -0.0505226
0.2294922, -0.2260742, -0.8842773, 10.2439022, 112.6219559, -22.3170738, -0.0491798
0.2333984, -0.2265625, -0.8408203, 13.5975609, 111.2195129, -20.1829281, -0.0488441
0.2084961, -0.1977539, -0.8896484, 16.4024391, 112.5609818, -20.060976, -0.0498512
0.1875, -0.1772461, -0.972168, 22.0121956, 116.1585388, -20, -0.061265
0.1606445, -0.1259766, -1.1142578, 22.6219521, 116.7073212, -19.939024, -0.0605936
0.1728516, -0.1118164, -1.1425781, 18.5975609, 114.5121994, -18.0487804, -0.0552224
0.2543945, -0.109375, -1.1367188, 7.8658538, 111.0365906, -15.3048782, -0.0498512
0.3037109, -0.1113281, -1.1376953, 2.1341465, 110.6097565, -15.060976, -0.0426337
0.3994141, -0.1357422, -1.171875, -7.7439027, 110.1219559, -16.1585369, -0.0448157
0.4311523, -0.1567383, -1.1972656, -11.7073174, 110.0609818, -17.3170738, -0.0357519
0.4829102, -0.2094727, -1.2084961, -16.4634151, 109.3902435, -18.3536587, -0.0302129
0.5253906, -0.2646484, -1.1835938, -18.5365849, 110.6707306, -18.2926826, -0.040116
0.5336914, -0.2890625, -1.1689453, -20, 115.9146347, -17.6829281, -0.0438087
0.5341797, -0.293457, -1.1401367, -20.5487804, 119.7561035, -17.9268303, -0.0411231
0.5180664, -0.2817383, -1.1186523, -19.8170738, 125.9146347, -19.6951218, -0.0424659
0.4648438, -0.2641602, -1.043457, -19.7560978, 128.1097565, -21.2195129, -0.0344091
0.4379883, -0.2612305, -0.9892578, -19.3292694, 128.4756165, -24.2682934, -0.018967
0.3574219, -0.2695312, -0.9091797, -18.5365849, 126.8902435, -26.6463413, 0.0005035
0.3164062, -0.2758789, -0.894043, -17.5, 125.6097565, -27.3170738, -0.0135958
0.2446289, -0.300293, -0.8862305, -14.5731707, 121.0975647, -27.6829281, -0.0166171
0.2265625, -0.3149414, -0.8637695, -13.0487804, 117.5, -27.9268303, -0.005539
0.206543, -0.3496094, -0.7612305, -8.4756098, 110.4878082, -27.3780499, 0.0146029
0.2138672, -0.3686523, -0.6665039, -5.4878049, 107.7439041, -27.560976, 0.0297093
0.2099609, -0.3583984, -0.6542969, 1.2804878, 104.7561035, -29.2073174, 0.0629435
0.199707, -0.300293, -0.7368164, 4.8780489, 103.7195129, -30.1829281, 0.0800641
0.2001953, -0.2558594, -0.8344727, 10.9146347, 102.5, -30.6707325, 0.0679789
0.2460938, -0.1645508, -1.0654297, 12.2560978, 102.5, -29.8170738, 0.0475013
0.2905273, -0.1396484, -1.1777344, 10.7317076, 102.1951218, -25.1829281, 0.0229953
0.4453125, -0.1323242, -1.2924805, 5.7926831, 101.646347, -17.5, 0.0038605
0.5454102, -0.1577148, -1.2905273, 3.5975611, 101.4634171, -13.5975609, -0.0031891
0.7382812, -0.2177734, -1.1728516, 0.7317073, 106.1585388, -6.9512196, 0.0172885
0.8183594, -0.2373047, -1.0800781, 1.7682927, 110.9756088, -5.4268293, 0.0448157
0.8720703, -0.2304688, -0.9008789, 8.4756098, 124.5731735, -8.1707315, 0.068986
0.7568359, -0.1635742, -0.7875977, 14.2682934, 130.6097565, -11.8292685, 0.0884565
0.6508789, -0.1308594, -0.7880859, 23.5975609, 137.5609741, -18.0487804, 0.0854353
0.4077148, -0.0751953, -0.9003906, 25.7317085, 138.2317047, -19.6951218, 0.0715038
0.3027344, -0.0634766, -0.9868164, 19.8170738, 134.0243988, -18.4756107, 0.0414588
0.1875, -0.081543, -1.1298828, 13.1097565, 129.8780518, -15.6097565, 0.005539
0.1826172, -0.109375, -1.1474609, -3.9634147, 118.1707382, -10.6097565, -0.0196384
0.2592773, -0.1972656, -1.0288086, -18.1707325, 105.4878082, -7.3780489, -0.0292058
0.3261719, -0.2431641, -0.9116211, -21.8902435, 100.7926865, -7.2560978, -0.0448157
0.4643555, -0.3017578, -0.6933594, -21.0975609, 98.1707306, -9.6951218, -0.0599222
0.5078125, -0.3115234, -0.6333008, -17.8658543, 100, -12.0731707, -0.0582437
0.5224609, -0.3071289, -0.6479492, -10, 103.9634171, -17.560976, -0.0538796
0.4790039, -0.3051758, -0.7988281, -6.7682929, 103.9024429, -19.8170738, -0.04448
0.4619141, -0.3183594, -0.8911133, -4.6951222, 99.2682953, -22.1341476, -0.0018463
0.4736328, -0.3701172, -1.0571289, -6.0365853, 95.7317123, -21.8902435, 0.0506905
0.5058594, -0.3979492, -1.1176758, -11.5853662, 90.1219559, -19.939024, 0.0632792
0.6010742, -0.4287109, -1.1723633, -14.4512196, 89.6341476, -18.8414631, 0.0676432
0.6547852, -0.4208984, -1.1689453, -17.1341476, 93.9634171, -18.4146347, 0.0683146
0.7617188, -0.3515625, -1.1547852, -14.5731707, 105.6707306, -20.3048782, 0.0575723
0.8056641, -0.309082, -1.1621094, -12.1951218, 113.2317123, -22.0121956, 0.0475013
0.8452148, -0.2529297, -1.1865234, -8.6585369, 126.4024429, -24.6341476, 0.0236667
0.8486328, -0.2387695, -1.175293, -8.2926826, 130.3048859, -25.5487804, -0.0001678
0.8510742, -0.2514648, -1.059082, -9.4512196, 132.8048859, -25.6097565, -0.0229953
0.8164062, -0.2895508, -0.8491211, -10.3048782, 132.5609741, -25.3658543, -0.0350805
0.7714844, -0.3056641, -0.7563477, -9.5731707, 132.7439117, -26.5853672, -0.0451514
0.6293945, -0.3100586, -0.6606445, -6.6463418, 132.4390259, -27.8658543, -0.0595865
0.5332031, -0.2900391, -0.6650391, 2.0121951, 131.0975647, -30.4268303, -0.0558938
0.3613281, -0.2260742, -0.7563477, 6.0365853, 129.2073212, -31.4024391, -0.0562295
0.3022461, -0.1918945, -0.8203125, 10.3048782, 123.9024429, -29.2073174, -0.0532082
0.2636719, -0.1381836, -0.9052734, 6.0365853, 116.8292694, -23.7195129, -0.0532082
0.2866211, -0.1289062, -0.9038086, 2.2560976, 112.6219559, -20.4878044, -0.0599222
0.4106445, -0.125, -0.8105469, -4.8780489, 104.5121994, -15.060976, -0.0780499
0.4897461, -0.1357422, -0.7470703, -5.670732, 101.5243912, -13.780488, -0.0820783
0.6230469, -0.1757812, -0.6831055, -1.8292683, 98.7804871, -13.4146347, -0.0844282
0.7104492, -0.2192383, -0.7348633, 1.4634147, 98.9634171, -13.4146347, -0.0921492
0.7324219, -0.2509766, -0.796875, 8.2926826, 100.6707306, -12.3780489, -0.0918135
0.7651367, -0.2900391, -0.9443359, 10.6097565, 102.5, -11.0365858, -0.079057
0.7797852, -0.300293, -1.0224609, 11.8292685, 107.9878082, -7.1341467, -0.0844282
0.8217773, -0.2626953, -1.1445312, 11.0975609, 111.5243912, -5.1829271, -0.1049058
0.8432617, -0.2236328, -1.1713867, 9.1463413, 119.8170776, -2.8658538, -0.0948348
0.9003906, -0.1694336, -1.1264648, 8.2926826, 127.5609818, -2.7439024, -0.0861067
0.9243164, -0.1621094, -1.0527344, 7.6219516, 130.6707306, -3.4146342, -0.0760357
0.940918, -0.2084961, -0.8608398, 6.5243902, 134.3902435, -4.6951222, -0.0699931
0.8857422, -0.2729492, -0.6943359, 6.4634147, 134.9390259, -5.670732, -0.0706645
0.8271484, -0.2807617, -0.652832, 8.1707315, 134.0853729, -8.719512, -0.063447
0.6738281, -0.277832, -0.6674805, 10.1829271, 132.3780518, -10.060976, -0.0580758
0.5996094, -0.2602539, -0.7182617, 13.3536587, 127.3170776, -13.2317076, -0.0344091
0.5019531, -0.2319336, -0.8676758, 13.7195129, 123.7195129, -13.3536587, -0.0404517
0.4916992, -0.2348633, -0.9394531, 8.5975609, 115.7317123, -12.1341467, -0.0256809
0.5654297, -0.2666016, -1.0219727, 3.9634147, 111.4024429, -10.9146347, -0.0149386
0.6450195, -0.2939453, -1.0283203, -6.4634147, 103.9634171, -8.5365858, -0.036759
0.8266602, -0.3510742, -0.9667969, -12.3780489, 101.2804871, -9.0243902, -0.0414588
0.9145508, -0.3706055, -0.9174805, -12.5, 102.5, -9.8780489, -0.0256809
1.0380859, -0.3842773, -0.8378906, -7.3780489, 108.4756088, -13.2317076, -0.0182956
1.0654297, -0.3637695, -0.8706055, -2.9878049, 112.8048782, -15.1829271, -0.0171206
1.0439453, -0.3447266, -0.9399414, 3.8414636, 121.646347, -19.4512196, -0.0297093
0.9868164, -0.3125, -1.1269531, 5.0609756, 125, -20, -0.0317235
0.9604492, -0.300293, -1.2114258, 2.804878, 129.4512177, -19.2682934, -0.0364233
0.949707, -0.2695312, -1.2597656, -0.6707317, 131.4634247, -17.6219521, 0.0025177
0.9726562, -0.2587891, -1.2119141, -7.7439027, 135.7317047, -13.2926836, 0.0016785
1.0195312, -0.2460938, -0.9956055, -9.8170738, 138.9634247, -11.6463413, 0.0048676
1.0322266, -0.2451172, -0.8691406, -8.9024391, 147.2561035, -10.7926836, 0.0112459
0.9819336, -0.2539062, -0.6689453, -2.6829269, 153.1097565, -13.6585369, 0.0166171
0.9189453, -0.2573242, -0.609375, 1.1585366, 153.7804871, -15.2439032, 0.0270237
0.7421875, -0.2485352, -0.5668945, 7.8658538, 150.0609741, -16.8902435, 0.0330663
0.5712891, -0.2304688, -0.5703125, 9.6951218, 145.8536682, -16.280489, 0.0112459
0.5180664, -0.2236328, -0.5737305, 9.7560978, 135.1219482, -12.3780489, 0.0025177
0.4785156, -0.2231445, -0.5742188, 8.4146347, 129.2682953, -10, 0.0038605
0.4960938, -0.2270508, -0.5737305, 5.2439027, 116.7682953, -6.2195125, -0.0075532
0.5844727, -0.25, -0.6000977, 3.9024391, 110.5487823, -5.1829271, -0.0438087
0.6494141, -0.2602539, -0.6323242, 3.3536587, 100.2439041, -5.2439027, -0.0674754
0.784668, -0.2773438, -0.7084961, 3.4756098, 96.3414688, -5.670732, -0.0757
0.855957, -0.2763672, -0.7436523, 4.3292685, 92.9878082, -5.4268293, -0.0699931
0.9667969, -0.2773438, -0.7739258, 6.9512196, 95.1219559, -4.2682929, -0.0475013
1.0126953, -0.2744141, -0.7705078, 8.841464, 97.5609741, -3.4146342, -0.0327306
1.0654297, -0.2680664, -0.7333984, 12.8048782, 103.2317123, -2.1341465, -0.0159457
1.0444336, -0.265625, -0.6928711, 14.8170738, 105.7317123, -2.0731707, -0.0109102
1.0097656, -0.2705078, -0.668457, 18.5975609, 108.5975647, -2.804878, -0.0238346
0.9091797, -0.2827148, -0.6357422, 19.939024, 108.7804871, -2.9878049, -0.0280308
0.8496094, -0.2910156, -0.6425781, 21.3414631, 107.5, -4.8170733, -0.0518654
0.7441406, -0.2958984, -0.7480469, 21.2195129, 106.5853653, -5.7317076, -0.0659648
0.7045898, -0.2861328, -0.8354492, 17.3170738, 105.7926865, -6.890244, -0.0753643
0.6928711, -0.2587891, -0.9936523, 13.9024391, 105.18293, -7.0121951, -0.0861067
0.7299805, -0.25, -1.0234375, 5.5487804, 103.9634171, -7.4390244, -0.0763714
0.8608398, -0.2597656, -0.9604492, -2.6219513, 103.7195129, -7.5, -0.054551
0.9418945, -0.2851562, -0.8828125, -4.7560978, 104.8170776, -7.3780489, -0.0276951
1.0722656, -0.347168, -0.7104492, -5.2439027, 110.7926865, -8.0487804, -0.012253
1.0756836, -0.3974609, -0.6176758, -3.0487804, 114.5121994, -9.3902445, 0.0038605
1.0366211, -0.4038086, -0.6166992, 2.9268293, 119.3292694, -12.6829271, -0.0015106
0.8945312, -0.3720703, -0.6806641, 5.9756098, 120.5487823, -14.3902445, -0.0105745
0.8208008, -0.3500977, -0.7197266, 9.7560978, 119.3292694, -15.6707325, -0.0216526
0.7226562, -0.3256836, -0.7636719, 9.7560978, 117.6219559, -15.1829271, -0.0229953
0.7026367, -0.3212891, -0.7607422, 7.0731707, 114.8170776, -13.2317076, -0.0290379
0.7260742, -0.3222656, -0.7182617, 4.9390244, 113.4146347, -12.1341467, -0.0330663
0.7529297, -0.3256836, -0.7143555, 2.6219513, 112.86586, -12.1341467, -0.0340734
0.809082, -0.300293, -0.7592773, 2.804878, 115.5487823, -13.7195129, -0.0459907
0.8291016, -0.2871094, -0.7919922, 3.4146342, 117.0121994, -14.6951227, -0.0515297
0.8637695, -0.2543945, -0.7915039, 4.2682929, 120.4268341, -14.6951227, -0.0370947
0.8808594, -0.2451172, -0.6655273, 4.3292685, 121.9512253, -13.841464, -0.040116
0.8876953, -0.2382812, -0.5698242, 5.7926831, 125.0609818, -10.8536587, -0.0364233
0.8544922, -0.2275391, -0.4082031, 7.1341467, 126.2804871, -9.3902445, -0.0337377
0.8217773, -0.215332, -0.3701172, 11.7682934, 125.7926865, -8.6585369, -0.0417945
0.7041016, -0.2060547, -0.3808594, 13.6585369, 123.4146347, -9.1463413, -0.0471656
0.6489258, -0.2109375, -0.4111328, 15.1829271, 113.9024429, -9.5731707, -0.0317235
0.5854492, -0.2495117, -0.4770508, 14.3902445, 108.3536606, -9.2682924, -0.008896
0.5810547, -0.2797852, -0.4980469, 9.6951218, 98.4756088, -7.5609756, -0.0095674
0.6386719, -0.3276367, -0.5170898, 5, 90.5487823, -6.4024391, -0.0015106
0.6938477, -0.3344727, -0.5229492, 4.0243902, 88.1707306, -6.7073174, -0.0001678
0.8081055, -0.2998047, -0.5317383, 5.3658538, 86.2195129, -8.780488, -0.0377661
0.9047852, -0.2485352, -0.5712891, 6.9512196, 86.5243912, -10.2439022, -0.1143053
0.9438477, -0.234375, -0.5883789, 9.5731707, 87.3780518, -11.4634151, -0.1794308
0.9956055, -0.2163086, -0.5927734, 10.1829271, 87.7439041, -11.4024391, -0.2361639
1.0161133, -0.2202148, -0.5756836, 9.0243902, 87.4390259, -9.6951218, -0.2610056
1.0214844, -0.2382812, -0.5307617, 8.4146347, 87.0121994, -8.5975609, -0.2586557
1.0083008, -0.2553711, -0.5214844, 8.3536587, 85.8536606, -7.5, -0.1921874
0.9604492, -0.2666016, -0.5385742, 8.1707315, 85, -7.3170733, -0.0814069
0.9306641, -0.262207, -0.565918, 7.8048782, 83.4756088, -7.1341467, 0.0417945
0.8935547, -0.2436523, -0.6455078, 5.4268293, 82.9268341, -6.8292685, 0.1441825
0.8867188, -0.2299805, -0.6875, 3.2926829, 82.2560959, -6.890244, 0.2250858
0.9169922, -0.2124023, -0.7416992, -2.804878, 81.4024429, -7.3170733, 0.2589914
0.9819336, -0.2290039, -0.7089844, -5.3048782, 81.1585388, -7.5, 0.2603342
1.0175781, -0.2397461, -0.6660156, -7.8658538, 81.8292694, -7.3170733, 0.2348211
1.0649414, -0.2631836, -0.5683594, -7.3780489, 83.2317123, -7.3780489, 0.1646601
1.0712891, -0.269043, -0.5336914, -3.3536587, 87.1951218, -7.3170733, 0.0889601
1.0317383, -0.2792969, -0.5112305, -0.4268293, 89.2682953, -7.0121951, 0.026688
1.0019531, -0.2763672, -0.5214844, 4.0243902, 91.9512253, -6.4634147, -0.0095674
0.9345703, -0.2651367, -0.5449219, 5.2439027, 91.7682953, -5.5487804, -0.0199741
0.9091797, -0.2583008, -0.5493164, 4.2073174, 90.8536606, -4.8780489, -0.0236667
0.8833008, -0.2529297, -0.5463867, 0.8536586, 88.2317123, -5.3658538, -0.0290379
0.8833008, -0.2490234, -0.5444336, -1.1585366, 87.1951218, -6.0365853, -0.0317235
0.9179688, -0.2519531, -0.5532227, -2.5, 85.0609741, -8.1097565, -0.061265
0.9633789, -0.2739258, -0.5688477, -2.9268293, 84.6951218, -9.3292685, -0.128069
0.987793, -0.2890625, -0.574707, -2.7439024, 85.0609741, -11.341464, -0.1532464
1.0263672, -0.3334961, -0.5742188, -2.1341465, 85.7926865, -12.1341467, -0.1183337
1.0395508, -0.3535156, -0.5629883, 0, 88.1707306, -12.9268293, -0.0693217
1.0473633, -0.3701172, -0.5322266, 1.7682927, 89.8780518, -12.9268293, 0.0025177
1.043457, -0.3637695, -0.519043, 6.7073174, 94.2073212, -11.8902445, 0.0696574
1.0102539, -0.3251953, -0.5078125, 12.6829271, 98.6585388, -11.341464, 0.1129625
0.9960938, -0.2983398, -0.5131836, 14.6341467, 100.4268341, -10.9756098, 0.1401541
0.9682617, -0.2236328, -0.5371094, 15.9756098, 102.1951218, -10.6707315, 0.1522393
0.9536133, -0.1948242, -0.5473633, 15, 102.2561035, -10.5487804, 0.1394827
0.9575195, -0.1582031, -0.515625, 11.9512196, 100.3048782, -11.219512, 0.1136339
0.9677734, -0.1640625, -0.4506836, 10.4268293, 98.5975647, -11.4024391, 0.0605936
0.9716797, -0.1762695, -0.4228516, 8.4146347, 94.5731735, -11.8902445, 0.0219883
0.9589844, -0.2202148, -0.4013672, 7.8048782, 92.7439041, -11.8292685, -0.0095674
0.9545898, -0.2382812, -0.4072266, 6.6463418, 89.2073212, -10.3658543, -0.0172885
0.9238281, -0.2451172, -0.4135742, 6.280488, 87.7439041, -9.6341467, -0.0243381
0.9194336, -0.2299805, -0.4125977, 5.5487804, 85.3658524, -7.9878049, -0.0471656
0.9301758, -0.1987305, -0.4072266, 5.4268293, 82.8048782, -7.3170733, -0.0746929
0.9423828, -0.1816406, -0.4165039, 5.2439027, 82.0121994, -7.0731707, -0.0889601
0.9750977, -0.1704102, -0.4677734, 3.0487804, 79.8780518, -7.8048782, -0.085771
0.9936523, -0.171875, -0.4897461, 1.2804878, 78.2926865, -8.0487804, -0.0753643
1.0415039, -0.184082, -0.5053711, -2.9268293, 75.7317123, -8.1097565, -0.0572366
1.0834961, -0.2070312, -0.46875, -4.3292685, 74.5731735, -7.8048782, -0.047837
1.0991211, -0.2192383, -0.4394531, -5.3658538, 73.9634171, -6.4634147, -0.0464942
1.1118164, -0.2382812, -0.3911133, -4.390244, 73.5975647, -5.9146342, -0.0381018
1.1064453, -0.2446289, -0.3803711, -1.2195122, 72.9878082, -4.5121951, -0.0146029
1.078125, -0.2470703, -0.375, 0.5487805, 72.5, -3.8414636, -0.0005035
1.0566406, -0.2451172, -0.3769531, 2.9268293, 70.9756088, -3.1097562, -0.0068818
1.0273438, -0.2387695, -0.3671875, 3.1707318, 68.9024429, -3.5365853, -0.0149386
1.0131836, -0.237793, -0.3564453, 2.6219513, 67.4390259, -3.5975611, -0.0018463
0.9858398, -0.2373047, -0.3540039, 0.7317073, 64.2073212, -4.2682929, 0.0085603
0.9794922, -0.2397461, -0.3574219, -0.1829268, 62.5, -4.9390244, 0.0199741
0.9726562, -0.2524414, -0.3632812, -0.9146342, 58.4756126, -6.0975609, 0.0271916
0.9863281, -0.2763672, -0.3881836, -0.9146342, 57.2560997, -6.5853658, 0.0381018
0.9936523, -0.2856445, -0.3979492, 0, 56.7073174, -7.2560978, 0.0199741
1.0205078, -0.2944336, -0.4267578, 0.2439024, 57.0121956, -7.9268293, 0.0087282
1.0375977, -0.2978516, -0.4394531, 2.1341465, 58.9024391, -8.9634151, -0.0125887
1.0727539, -0.2924805, -0.4863281, 3.2926829, 60.3048782, -9.6951218, -0.0243381
1.0839844, -0.2905273, -0.5170898, 4.8170733, 63.1097565, -10.7926836, -0.0377661
1.1142578, -0.2568359, -0.5708008, 5.670732, 67.5, -11.4634151, -0.051194
1.1313477, -0.2402344, -0.5805664, 5.8536587, 70.18293, -11.219512, -0.0569009
1.1450195, -0.1918945, -0.5673828, 5.8536587, 75.4268341, -11.0365858, -0.0619364
1.1484375, -0.1674805, -0.5405273, 5.1219511, 77.8658524, -10.7317076, -0.0683146
1.1220703, -0.1313477, -0.4799805, 4.390244, 81.7682953, -9.4512196, -0.0666361
1.0805664, -0.1264648, -0.4345703, 3.6585367, 82.68293, -8.9024391, -0.0706645
1.0541992, -0.1337891, -0.4165039, 1.1585366, 82.8658524, -7.5, -0.0681468
1.0136719, -0.1665039, -0.421875, -0.4268293, 82.1951218, -6.6463418, -0.064622
1.0004883, -0.1787109, -0.4311523, -4.0243902, 80.5487823, -5.4878049, -0.0626078
0.9975586, -0.2050781, -0.4399414, -5.7926831, 80.4268341, -5, -0.0663005
1.0009766, -0.2128906, -0.4306641, -8.0487804, 79.6341476, -4.6951222, -0.0834211
1.0366211, -0.2358398, -0.3945312, -7.5, 79.7560959, -5.5487804, -0.1012131
1.0493164, -0.2436523, -0.3735352, -6.8292685, 79.8170776, -5.7317076, -0.1085985
1.0742188, -0.237793, -0.34375, -5, 80.7317123, -5.9146342, -0.111284
1.0644531, -0.2246094, -0.3422852, -4.7560978, 81.4634171, -5.7926831, -0.1082628
1.0415039, -0.1914062, -0.3588867, -5.0609756, 82.5, -4.8780489, -0.1012131
1.0161133, -0.1728516, -0.3632812, -5.5487804, 81.7682953, -4.2073174, -0.0688182
1.019043, -0.1704102, -0.3515625, -6.890244, 78.0487823, -3.7195122, -0.0332341
1.0268555, -0.1816406, -0.3129883, -7.4390244, 75.2439041, -3.4756098, -0.0303807
1.0322266, -0.1928711, -0.2944336, -8.3536587, 71.0975647, -3.5365853, -0.0473335
1.0429688, -0.2133789, -0.2700195, -8.6585369, 69.3902435, -3.4756098, -0.057908
1.0395508, -0.2177734, -0.2670898, -9.3902445, 66.8902435, -3.4756098, -0.0614328
1.0224609, -0.2109375, -0.2695312, -9.7560978, 63.841465, -3.0487804, -0.0605936
1.0151367, -0.2021484, -0.2705078, -9.8780489, 61.9512215, -3.0487804, -0.0683146
1.0043945, -0.2050781, -0.2880859, -10.8536587, 57.5609779, -2.4390244, -0.0785534
1.0063477, -0.2070312, -0.2924805, -11.6463413, 55.3048782, -1.7073171, -0.090135
1.0195312, -0.2226562, -0.2993164, -13.1097565, 51.7073174, -1.3414634, -0.0820783
1.0439453, -0.2368164, -0.2851562, -13.4146347, 50.0609779, -1.5243902, -0.01561
1.0522461, -0.2387695, -0.2753906, -12.9878054, 47.3780518, -1.402439, 0.0569009
1.0629883, -0.2426758, -0.2807617, -12.3170738, 46.5853653, -1.7073171, 0.1431754
1.0620117, -0.2431641, -0.2958984, -11.0975609, 45.9146347, -1.7682927, 0.2032654
1.0576172, -0.2231445, -0.3359375, -11.1585369, 45.2439041, -1.6463414, 0.2118257
1.0576172, -0.2114258, -0.3540039, -12.4390249, 44.0243912, -1.2195122, 0.1968872
1.0585938, -0.2006836, -0.3789062, -14.8170738, 42.5, -0.9146342, 0.1566033
1.0610352, -0.1933594, -0.3774414, -16.0365849, 41.4024391, -0.4878049, 0.1294118
1.0776367, -0.1884766, -0.3583984, -17.9878044, 40.8536606, 0.3048781, 0.1253834
1.0805664, -0.1850586, -0.3432617, -18.4756107, 40.8536606, 0.5487805, 0.1267262
1.0878906, -0.1889648, -0.3208008, -18.7195129, 41.2804871, 0.0609756, 0.1297475
1.078125, -0.2060547, -0.3129883, -18.7195129, 41.8292694, -0.2439024, 0.1079271
1.0668945, -0.2109375, -0.3212891, -19.3292694, 40.8536606, -0.1829268, 0.0783856
1.0537109, -0.2124023, -0.3359375, -19.5121956, 40.3048782, 0.3048781, 0.0508583
1.0473633, -0.2075195, -0.34375, -20.7926826, 39.8170738, 0.5487805, 0.0186313
1.046875, -0.1972656, -0.3598633, -21.7073174, 39.7560997, 0.7317073, -0.0043641
1.0512695, -0.1865234, -0.3618164, -23.0487804, 40, 0.6097561, -0.0360876
1.0625, -0.1674805, -0.3452148, -24.6341476, 39.8780479, 0.3658537, -0.0750286
1.0717773, -0.1625977, -0.3354492, -24.9390259, 39.8170738, 0.1219512, -0.1065843
1.0844727, -0.1757812, -0.3237305, -25.6707325, 39.1463432, -0.5487805, -0.1163195
1.0869141, -0.1855469, -0.3212891, -25.9756107, 38.7195129, -0.7317073, -0.1267262
1.0766602, -0.2197266, -0.3173828, -26.8292694, 39.0243912, -0.6707317, -0.1431754
1.0400391, -0.2495117, -0.2998047, -26.7682934, 39.3902435, -0.2439024, -0.1519036
1.0205078, -0.2592773, -0.2851562, -26.0365868, 39.6951218, 0.6707317, -0.1616388
0.9868164, -0.2583008, -0.2568359, -24.6951218, 39.6341476, 0.7926829, -0.1713741
0.9741211, -0.2539062, -0.2558594, -21.4634151, 39.2073174, 0.4268293, -0.1760739
0.9624023, -0.2407227, -0.2724609, -21.0365868, 38.6585388, -0.1219512, -0.2002441
0.9584961, -0.237793, -0.2871094, -20.4878044, 37.3170738, -1.2804878, -0.1868162
0.9628906, -0.237793, -0.3242188, -22.6219521, 35.7317085, -2.3170731, -0.1693599
0.9697266, -0.2421875, -0.3359375, -23.9024391, 35.3658562, -2.9268293, -0.1532464
0.9926758, -0.2402344, -0.3476562, -25.7926826, 34.5121956, -3.2317073, -0.149218
1.0268555, -0.2539062, -0.3374023, -25.8536587, 34.3292694, -3.0487804, -0.1465324
1.0498047, -0.2592773, -0.3232422, -24.5731716, 34.3902435, -3.1097562, -0.1515679
1.0849609, -0.2563477, -0.2963867, -23.2926826, 34.6951218, -3.3536587, -0.1532464
1.0883789, -0.2514648, -0.2963867, -21.4634151, 35.3048782, -2.9878049, -0.145861
1.0751953, -0.2338867, -0.3178711, -20.6707325, 35.4878044, -2.9878049, -0.142504
1.0585938, -0.21875, -0.3295898, -20.1219521, 36.0975609, -1.4634147, -0.1230335
1.0170898, -0.1870117, -0.3378906, -20.2439022, 36.0365868, -0.8536586, -0.1096056
1.0014648, -0.1674805, -0.3325195, -20.6707325, 35.4268303, 1.4634147, -0.1022202
0.9804688, -0.1367188, -0.2983398, -21.0975609, 33.5365868, 3.7195122, -0.0884565
0.972168, -0.1220703, -0.2714844, -21.4024391, 32.3170738, 4.3292685, -0.0720073
0.9619141, -0.1254883, -0.2304688, -22.9878063, 29.2073174, 4.6341462, -0.0663005
0.9389648, -0.1425781, -0.2163086, -23.780489, 26.9512196, 4.2073174, -0.0538796
0.9345703, -0.1606445, -0.2226562, -26.8902454, 22.3780499, 4.0853658, -0.0454871
0.9145508, -0.1992188, -0.2387695, -28.5975609, 19.6951218, 4.0243902, -0.0397803
0.9038086, -0.2124023, -0.2353516, -32.0121956, 15.3048782, 4.8780489, -0.0199741
0.909668, -0.2275391, -0.2167969, -32.7439041, 13.2317076, 5.4878049, -0.0119173
0.9204102, -0.2324219, -0.2036133, -32.6219521, 9.1463413, 5.5487804, -0.0077211
0.9511719, -0.2495117, -0.1953125, -31.8902454, 7.0121951, 5.4268293, 0.0041962
0.9638672, -0.253418, -0.2001953, -30.6097565, 4.0243902, 5.3048782, 0.0095674
0.9829102, -0.2617188, -0.2158203, -29.9390259, 1.3414634, 4.1463413, 0.0146029
0.9873047, -0.262207, -0.2290039, -29.4512196, 0.0609756, 3.7195122, 0.0263523
0.9873047, -0.265625, -0.2470703, -27.1951218, -1.2195122, 3.0487804, 0.0381018
0.9746094, -0.2587891, -0.2841797, -26.2195129, -1.7073171, 2.5609756, 0.0464942
0.9648438, -0.2519531, -0.3085938, -24.5731716, -1.7073171, 2.6219513, 0.0622721
0.9555664, -0.2348633, -0.3500977, -24.6341476, -1.097561, 2.9878049, 0.040116
0.9536133, -0.2290039, -0.3574219, -25.1219521, -1.402439, 2.804878, 0.0320592
0.9667969, -0.2324219, -0.3476562, -25.6097565, -1.6463414, 2.0731707, 0.0394446
0.9819336, -0.2416992, -0.3344727, -27.6829281, -3.5365853, 1.0365853, 0.0562295
1.0063477, -0.2583008, -0.3388672, -28.6585369, -3.9024391, 0, 0.0656291
1.0175781, -0.2592773, -0.3618164, -29.8780499, -3.7195122, -1.1585366, 0.0610971
1.0195312, -0.2592773, -0.4311523, -30.6097565, -2.0121951, -1.5853659, 0.0649577
1.0268555, -0.2519531, -0.4541016, -30.4878063, -0.9756098, -1.5853659, 0.0659648
1.0415039, -0.2392578, -0.449707, -31.280489, 0.2439024, -0.4878049, 0.0506905
1.0600586, -0.2290039, -0.3857422, -31.5243912, 0.2439024, 0.3048781, 0.0448157
1.0668945, -0.2236328, -0.3535156, -31.341465, 2.0731707, 1.7073171, 0.0347448
1.0463867, -0.2036133, -0.3212891, -31.5853672, 2.7439024, 2.2560976, 0.0260166
1.0283203, -0.1870117, -0.3183594, -32.8658562, 4.5121951, 2.5609756, 0.0218204
0.9770508, -0.1567383, -0.3388672, -33.6585388, 4.5121951, 3.1097562, 0.0137636
0.9609375, -0.1450195, -0.3520508, -36.7073174, 2.9268293, 3.5975611, 0.0129244
0.9521484, -0.1464844, -0.3779297, -39.0243912, 0.7317073, 3.8414636, 0.0078889
0.9589844, -0.1547852, -0.3847656, -43.841465, -4.0243902, 4.0853658, 0.0003357
0.996582, -0.1699219, -0.3662109, -48.1097565, -6.6463418, 5.3048782, 0.0010071
1.015625, -0.1762695, -0.355957, -49.0853653, -6.890244, 5.670732, -0.0005035
1.043457, -0.1865234, -0.3271484, -49.5121956, -5.670732, 5.609756, -0.0041962
1.0517578, -0.2045898, -0.3007812, -49.1463432, -5.1219511, 5.9146342, -0.0099031
1.0444336, -0.2192383, -0.293457, -47.3170738, -4.6951222, 5.9146342, -0.0152743
1.0166016, -0.2338867, -0.2734375, -46.5853653, -5.3048782, 6.280488, -0.0229953
0.9907227, -0.2382812, -0.2670898, -45.6097565, -7.3170733, 6.8292685, -0.0203098
0.9428711, -0.2431641, -0.2666016, -44.9390259, -8.4756098, 7.5, -0.0216526
0.9204102, -0.2397461, -0.2670898, -44.8170738, -11.280488, 8.0487804, -0.0236667
0.890625, -0.2236328, -0.2568359, -44.8170738, -12.8658543, 8.2317076, -0.0320592
0.8881836, -0.2104492, -0.2456055, -44.5731735, -16.4024391, 8.5975609, -0.0446479
0.9091797, -0.1972656, -0.2314453, -44.9390259, -21.0365868, 7.7439027, -0.0374304
0.9287109, -0.2070312, -0.2407227, -45.6097565, -23.4756107, 7.0121951, -0.0243381
0.9614258, -0.2475586, -0.253418, -47.2560997, -28.4756107, 5.3658538, -0.0196384
0.9873047, -0.2944336, -0.2402344, -47.6219521, -30.5487804, 4.4512196, -0.0224918
0.996582, -0.3129883, -0.2382812, -45, -33.7195129, 3.3536587, -0.0129244
0.9887695, -0.3432617, -0.2753906, -42.8048782, -34.7560997, 3.1707318, -0.0162814
0.9794922, -0.3398438, -0.3222656, -37.5, -34.0243912, 3.4756098, 0.0008392
0.956543, -0.309082, -0.4213867, -35.4878044, -32.6219521, 4.0853658, 0.0186313
0.9467773, -0.2788086, -0.4384766, -33.2926826, -30.6097565, 6.7682929, 0.0219883
0.9692383, -0.2133789, -0.4321289, -32.6219521, -30.5487804, 7.9268293, 0.0229953
0.9926758, -0.184082, -0.4145508, -33.1097565, -32.2560997, 9.2073174, 0.0285344
1.0410156, -0.1503906, -0.3979492, -35.4268303, -33.5975609, 8.3536587, 0.0481727
1.0541992, -0.1494141, -0.4072266, -37.9878044, -33.7195129, 7.7439027, 0.030045
1.0581055, -0.1533203, -0.4414062, -43.9634171, -33.2926826, 7.3780489, 0.0327306
1.0527344, -0.1635742, -0.4438477, -46.6463432, -33.3536606, 7.6219516, 0.0589151
1.0546875, -0.1738281, -0.4287109, -50.1219521, -35.7317085, 8.3536587, 0.0918135
1.0839844, -0.2011719, -0.3686523, -50.3658562, -37.5, 8.719512, 0.145861
1.0917969, -0.2236328, -0.3378906, -50.4268303, -41.2804871, 8.9634151, 0.160296
1.0854492, -0.2504883, -0.2929688, -49.7560997, -42.0121956, 9.1463413, 0.1359579
1.0678711, -0.2641602, -0.277832, -48.841465, -42.3780479, 9.3292685, 0.0731823
1.0136719, -0.2646484, -0.2773438, -47.5609779, -43.4146347, 8.9024391, 0.040116
0.9794922, -0.2607422, -0.2958984, -46.7073174, -44.5731735, 8.841464, 0.0199741
0.9238281, -0.2421875, -0.3457031, -46.6463432, -48.4146347, 9.6951218, -0.0166171
0.9086914, -0.2353516, -0.3598633, -47.1951218, -50.9146347, 10.3658543, -0.04448
0.9208984, -0.230957, -0.3227539, -48.5975609, -56.0365868, 10.8536587, -0.0753643
0.9648438, -0.2241211, -0.2514648, -48.6585388, -58.5975609, 10.7317076, -0.1344472
0.9775391, -0.2236328, -0.2299805, -47.8048782, -62.1951218, 8.9634151, -0.2163577
0.9902344, -0.234375, -0.2553711, -46.4634171, -63.2317085, 7.6829271, -0.2688945
0.9819336, -0.2363281, -0.2963867, -44.8780479, -65.2439041, 5.670732, -0.2675517
0.9658203, -0.2402344, -0.40625, -44.8780479, -66.4024429, 5.609756, -0.2469062
0.9682617, -0.2441406, -0.4404297, -46.1585388, -68.7195129, 7.1341467, -0.1901732
