Application:, Trigno Discover (1.6.5)
Date/Time:, 18/02/2025 16:15:59
Collection Length (seconds):, 33.5205
wrist (81457), , , , , , bicep (81139)
sensor mode: 609, , , , , , sensor mode: 40
ACC X (G), ACC Y (G), ACC Z (G), GYRO X (deg/s), GYRO Y (deg/s), GYRO Z (deg/s), EMG 1 (mV)
370.3704 Hz, 370.3704 Hz, 370.3704 Hz, 370.3704 Hz, 370.3704 Hz, 370.3704 Hz, 2148.1481 Hz
-0.7280273, 0.6821289, -0.2128906, 4.2073174, -27.4390259, 3.2317073, -0.0370947
-0.7260742, 0.6816406, -0.2172852, 4.2073174, -27.9268303, 2.804878, -0.0392767
-0.7294922, 0.6821289, -0.2211914, 4.0853658, -28.4146347, 2.7439024, -0.0360876
-0.7314453, 0.6811523, -0.2304688, 3.4756098, -28.1097565, 2.3780489, -0.0357519
-0.7387695, 0.6923828, -0.2402344, 2.7439024, -28.2926826, 2.3170731, -0.0411231
-0.7460938, 0.6933594, -0.2451172, 2.4390244, -28.4756107, 2.1341465, -0.0471656
-0.7441406, 0.7045898, -0.2456055, 1.0365853, -29.0853672, 2.0731707, -0.0488441
-0.7407227, 0.706543, -0.2421875, 0.6097561, -29.4512196, 1.7682927, -0.0535439
-0.730957, 0.7114258, -0.2246094, -0.1829268, -29.7560978, 1.402439, -0.06009
-0.7226562, 0.7089844, -0.2128906, -0.7317073, -29.6951218, 1.2804878, -0.0605936
-0.7192383, 0.7080078, -0.2080078, -1.8902439, -29.3902454, 0.8536586, -0.0656291
-0.715332, 0.7070312, -0.2060547, -2.5, -28.841465, 0.5487805, -0.0636149
-0.7167969, 0.706543, -0.2060547, -3.7195122, -27.4390259, 0, -0.0599222
-0.7172852, 0.7084961, -0.2045898, -4.3292685, -26.8292694, -0.1219512, -0.0515297
-0.7226562, 0.7148438, -0.2099609, -5, -25.9756107, -0.4268293, -0.0417945
-0.7270508, 0.7226562, -0.2099609, -5.609756, -25.7926826, -0.6707317, -0.0364233
-0.7304688, 0.7294922, -0.2055664, -6.0975609, -25.9756107, -0.6097561, -0.0411231
-0.7231445, 0.7333984, -0.1933594, -7.5609756, -25.7926826, -0.7926829, -0.0391089
-0.7231445, 0.7246094, -0.1811523, -7.7439027, -25.4268303, -1.097561, -0.0290379
-0.7211914, 0.7109375, -0.1499023, -9.0243902, -24.3292694, -1.6463414, -0.0283665
-0.7138672, 0.6992188, -0.1264648, -9.3902445, -23.8414631, -2.0731707, -0.0216526
-0.7148438, 0.6953125, -0.1186523, -9.3292685, -22.1951218, -2.5, -0.0169528
-0.7070312, 0.6953125, -0.1191406, -8.4756098, -21.280489, -2.3780489, -0.014435
-0.7055664, 0.6958008, -0.1269531, -7.8658538, -19.8780499, -2.2560976, -0.0085603
-0.7011719, 0.6953125, -0.1533203, -7.1951222, -18.5365849, -1.8902439, -0.0109102
-0.7050781, 0.6982422, -0.1640625, -7.3780489, -17.9878044, -2.195122, -0.0102388
-0.7080078, 0.7060547, -0.1806641, -8.4756098, -16.8292694, -2.1341465, -0.0092317
-0.7104492, 0.7119141, -0.1806641, -9.1463413, -16.4024391, -2.3780489, -0.0028534
-0.7241211, 0.7119141, -0.168457, -10.5487804, -15.4878054, -3.1097562, 0.0015106
-0.7231445, 0.7080078, -0.159668, -11.0365858, -14.8780489, -3.4146342, 0.0011749
-0.7250977, 0.6914062, -0.1420898, -11.341464, -13.9634151, -3.5975611, -0.005539
-0.7285156, 0.6796875, -0.1386719, -11.1585369, -13.780488, -3.3536587, -0.008896
-0.7319336, 0.6728516, -0.1425781, -10.1829271, -12.4390249, -2.9268293, -0.0082246
-0.7412109, 0.6616211, -0.1577148, -9.7560978, -12.3170738, -2.804878, -0.0095674
-0.7451172, 0.6572266, -0.1640625, -8.5975609, -11.5243902, -2.2560976, -0.0082246
-0.7509766, 0.659668, -0.1791992, -8.2926826, -11.7682934, -1.6463414, -0.0028534
-0.7519531, 0.6606445, -0.1845703, -8.4146347, -11.7682934, -1.6463414, -0.002182
-0.7524414, 0.6611328, -0.184082, -8.5365858, -12.0731707, -1.402439, 0.0005035
-0.7543945, 0.6625977, -0.1762695, -8.4756098, -12.2560978, -1.5853659, 0.0112459
-0.7514648, 0.6679688, -0.171875, -8.1097565, -12.7439032, -1.402439, 0.0488441
-0.7475586, 0.6689453, -0.1767578, -7.9268293, -12.6829271, -1.402439, 0.0693217
-0.7416992, 0.6635742, -0.1879883, -6.890244, -12.560976, -1.1585366, 0.0639506
-0.7338867, 0.671875, -0.2114258, -6.6463418, -12.6219511, -0.6707317, 0.0515297
-0.7353516, 0.6782227, -0.2250977, -6.7682929, -12.9878054, -0.1829268, 0.0250095
-0.7392578, 0.6816406, -0.2392578, -6.7073174, -13.2317076, 0, 0.0031891
-0.7416992, 0.6826172, -0.2446289, -8.0487804, -14.0853662, -0.4268293, -0.0104067
-0.7358398, 0.6855469, -0.2348633, -9.5121956, -14.3902445, -0.7317073, -0.018967
-0.7387695, 0.6894531, -0.2250977, -10.060976, -14.3902445, -1.2804878, -0.0223239
-0.7338867, 0.690918, -0.2050781, -11.1585369, -14.6341467, -1.3414634, -0.0124208
-0.7314453, 0.6894531, -0.1904297, -11.4024391, -15.060976, -1.4634147, -0.0008392
-0.7231445, 0.6835938, -0.1821289, -11.4634151, -15.6097565, -1.402439, 0.011078
-0.7177734, 0.684082, -0.1821289, -11.5853662, -15.4268293, -1.0365853, 0.0196384
-0.7094727, 0.6787109, -0.1987305, -11.6463413, -15.060976, -0.9756098, 0.024506
-0.7070312, 0.6811523, -0.21875, -11.7682934, -14.8170738, -1.0365853, 0.0307164
-0.7089844, 0.684082, -0.2270508, -12.8048782, -14.6951227, -1.1585366, 0.0157778
-0.7099609, 0.6918945, -0.222168, -13.4146347, -15.060976, -1.3414634, -0.0072175
-0.715332, 0.690918, -0.2182617, -14.5121956, -15.4878054, -1.4634147, -0.0297093
-0.7192383, 0.6865234, -0.1987305, -16.280489, -15.3658543, -1.7682927, -0.0397803
-0.7211914, 0.6762695, -0.1870117, -16.7682934, -14.6951227, -2.3780489, -0.0350805
-0.7114258, 0.6625977, -0.1738281, -16.9512196, -13.5975609, -2.4390244, -0.0387732
-0.7124023, 0.6577148, -0.1669922, -16.8292694, -13.1707315, -2.3170731, -0.0414588
-0.706543, 0.6601562, -0.1665039, -15.7926836, -12.8658543, -1.8292683, -0.0350805
-0.7016602, 0.6645508, -0.1728516, -15.3658543, -13.2317076, -1.5243902, -0.033402
-0.6938477, 0.6699219, -0.1831055, -15.7317076, -13.2317076, -1.097561, -0.0337377
-0.6967773, 0.6713867, -0.1821289, -16.5853653, -12.560976, -1.097561, -0.0297093
-0.703125, 0.671875, -0.1796875, -17.9878044, -11.1585369, -1.402439, -0.0303807
-0.7133789, 0.6689453, -0.1674805, -18.5365849, -10.4268293, -1.6463414, -0.0394446
-0.7226562, 0.6650391, -0.1601562, -18.4756107, -10.060976, -1.7073171, -0.0552224
-0.7246094, 0.6513672, -0.1484375, -17.3170738, -10.060976, -1.5243902, -0.0582437
-0.7226562, 0.6523438, -0.1533203, -16.4634151, -10.4878054, -1.1585366, -0.0555581
-0.7182617, 0.6499023, -0.1616211, -15.2439032, -11.0365858, -0.5487805, -0.0532082
-0.715332, 0.6494141, -0.1660156, -14.8780489, -10.8536587, -0.3658537, -0.0488441
-0.7094727, 0.6557617, -0.1733398, -14.6951227, -10.3048782, -0.5487805, -0.0451514
-0.7070312, 0.659668, -0.1782227, -14.8170738, -10, -0.7926829, -0.0399481
-0.7128906, 0.6660156, -0.1767578, -14.8170738, -9.2073174, -0.6097561, -0.0350805
-0.7211914, 0.6665039, -0.1821289, -14.6341467, -9.3292685, -0.3658537, -0.0411231
-0.722168, 0.6650391, -0.1845703, -14.2682934, -9.5121956, 0.1219512, -0.0381018
-0.722168, 0.6674805, -0.1933594, -14.1463413, -9.4512196, 0.1829268, -0.0317235
-0.7182617, 0.6650391, -0.1967773, -13.841464, -9.3292685, 0.4878049, -0.0327306
-0.7192383, 0.6694336, -0.2045898, -13.7195129, -9.5121956, 0.6097561, -0.0337377
-0.7177734, 0.6665039, -0.2050781, -13.6585369, -9.3902445, 0.6097561, -0.0310521
-0.7094727, 0.6713867, -0.1962891, -13.841464, -10, 0.5487805, -0.0317235
-0.7041016, 0.6704102, -0.1875, -14.1463413, -10.060976, 0.6097561, -0.0270237
-0.6953125, 0.6791992, -0.1762695, -14.2073174, -9.8170738, 0, -0.0276951
-0.6914062, 0.6816406, -0.1704102, -14.2073174, -9.5121956, -0.0609756, -0.027863
-0.684082, 0.6791992, -0.1679688, -14.2073174, -8.4146347, 0, -0.0293736
-0.6821289, 0.6826172, -0.1713867, -14.1463413, -8.1097565, 0.1829268, -0.0290379
-0.6821289, 0.6811523, -0.1757812, -14.6341467, -6.890244, 0.2439024, -0.0276951
-0.6884766, 0.6821289, -0.1835938, -14.9390249, -6.1585369, 0.0609756, -0.0263523
-0.6918945, 0.6835938, -0.1806641, -15.6707325, -5.3658538, -0.0609756, -0.0263523
-0.7080078, 0.6796875, -0.171875, -16.2195129, -4.9390244, -0.7317073, -0.0223239
-0.7119141, 0.6787109, -0.1635742, -16.5243912, -4.5731707, -0.7926829, -0.0337377
-0.7197266, 0.6801758, -0.1625977, -15.6097565, -4.4512196, -0.8536586, -0.0461585
-0.7197266, 0.6757812, -0.1669922, -15.060976, -4.3292685, -0.7317073, -0.0498512
-0.7172852, 0.675293, -0.1835938, -14.6341467, -4.7560978, -0.0609756, -0.0538796
-0.715332, 0.6665039, -0.2050781, -14.5731707, -4.9390244, 0.5487805, -0.0592508
-0.7143555, 0.6640625, -0.2119141, -15.060976, -4.390244, 0.6707317, -0.0558938
-0.7177734, 0.6616211, -0.2211914, -15.8536587, -4.2682929, 0.4878049, -0.057908
-0.7192383, 0.6582031, -0.2192383, -16.5853653, -4.5121951, -0.1829268, -0.0552224
-0.7250977, 0.6601562, -0.2104492, -16.8902435, -4.8170733, -0.1829268, -0.054551
-0.7294922, 0.6645508, -0.2055664, -17.3170738, -5.5487804, 0, -0.0532082
-0.7270508, 0.6616211, -0.2055664, -16.9512196, -6.8292685, 0.3048781, -0.0508583
-0.7246094, 0.6635742, -0.2080078, -16.8292694, -7.1341467, 0.5487805, -0.0525368
-0.7260742, 0.6689453, -0.2001953, -16.5853653, -7.6219516, 0.7317073, -0.0475013
-0.7255859, 0.671875, -0.2006836, -16.5243912, -7.7439027, 0.4878049, -0.0498512
-0.7299805, 0.6723633, -0.1992188, -16.8292694, -7.7439027, 0.6097561, -0.0522011
-0.7358398, 0.6679688, -0.2021484, -16.9512196, -7.9268293, 0.4268293, -0.0508583
-0.7382812, 0.6669922, -0.2026367, -16.7073174, -8.1707315, 0.8536586, -0.0569009
-0.7441406, 0.6674805, -0.2050781, -16.4024391, -8.2926826, 0.8536586, -0.0310521
-0.7490234, 0.6708984, -0.2075195, -16.4024391, -8.719512, 1.2195122, 0.0082246
-0.7573242, 0.6801758, -0.1992188, -16.7682934, -9.1463413, 1.2195122, 0.0223239
-0.7548828, 0.6875, -0.1948242, -16.4024391, -9.5121956, 1.1585366, 0.0253452
-0.7509766, 0.6948242, -0.1835938, -16.3414631, -9.5731707, 1.3414634, 0.0229953
-0.7426758, 0.6938477, -0.1772461, -16.4634151, -10, 1.2195122, 0.0236667
-0.7397461, 0.6914062, -0.1704102, -16.4634151, -9.8170738, 1.7073171, 0.0276951
-0.7358398, 0.6914062, -0.1679688, -16.4024391, -9.6341467, 1.5243902, 0.0280308
-0.7270508, 0.684082, -0.1699219, -16.2195129, -8.841464, 1.7073171, 0.0307164
-0.7270508, 0.6787109, -0.1772461, -16.4024391, -8.4756098, 1.5853659, 0.0276951
-0.7280273, 0.6831055, -0.1772461, -15.9146347, -8.3536587, 1.4634147, 0.023331
-0.7304688, 0.6894531, -0.1894531, -15.6707325, -8.4756098, 1.402439, 0.0169528
-0.7314453, 0.6918945, -0.1938477, -15.5487804, -9.0243902, 1.6463414, 0.0146029
-0.7275391, 0.6928711, -0.1977539, -15.5487804, -9.3902445, 2.0731707, 0.0005035
-0.7285156, 0.6899414, -0.1938477, -15.9756098, -9.5121956, 1.7682927, -0.002182
-0.7353516, 0.684082, -0.1796875, -17.0121956, -9.2073174, 1.5243902, -0.0050355
-0.7392578, 0.6796875, -0.1748047, -17.2560978, -8.780488, 1.4634147, -0.0062104
-0.7431641, 0.6621094, -0.1640625, -17.560976, -8.780488, 1.7682927, -0.0083925
-0.7504883, 0.65625, -0.1586914, -17.3780499, -8.6585369, 2.1341465, -0.0125887
-0.7568359, 0.6386719, -0.1489258, -17.0121956, -8.9634151, 2.1341465, -0.0193027
-0.7607422, 0.6323242, -0.1425781, -16.7073174, -8.9634151, 2.3780489, -0.0169528
-0.7666016, 0.6376953, -0.1425781, -15.6707325, -9.0853662, 2.4390244, -0.0172885
-0.7700195, 0.652832, -0.1455078, -14.8780489, -8.9634151, 2.2560976, -0.0209812
-0.7670898, 0.6630859, -0.1484375, -13.7195129, -9.2682924, 3.0487804, -0.0176242
-0.7607422, 0.675293, -0.1611328, -13.2926836, -9.0853662, 3.2926829, -0.0176242
-0.7539062, 0.6860352, -0.1669922, -12.8658543, -8.9634151, 3.9634147, -0.0182956
-0.7480469, 0.690918, -0.1870117, -13.2926836, -8.2926826, 4.0243902, -0.018967
-0.7451172, 0.6884766, -0.1967773, -13.9024391, -7.9268293, 4.0853658, -0.0236667
-0.7431641, 0.6875, -0.2099609, -14.5121956, -6.8292685, 4.0853658, -0.0303807
-0.7431641, 0.6806641, -0.2119141, -15.1219511, -6.890244, 3.8414636, -0.0340734
-0.7441406, 0.6870117, -0.2094727, -15.4268293, -7.3170733, 3.7804878, -0.0377661
-0.7397461, 0.6899414, -0.2070312, -15.7926836, -7.8658538, 3.4756098, -0.04448
-0.7431641, 0.6918945, -0.2089844, -15.9756098, -8.4756098, 3.1707318, -0.0471656
-0.7368164, 0.6972656, -0.2133789, -15.6097565, -8.9634151, 3.5365853, -0.04448
-0.7407227, 0.6962891, -0.2158203, -16.0365849, -9.3902445, 3.1707318, -0.0464942
-0.7416992, 0.6933594, -0.2172852, -16.2195129, -9.3902445, 3.0487804, -0.0451514
-0.7431641, 0.6889648, -0.2197266, -16.4024391, -9.9390249, 3.0487804, -0.0431373
-0.7426758, 0.6938477, -0.2216797, -16.7073174, -10.3658543, 3.0487804, -0.0421302
-0.7446289, 0.7021484, -0.2182617, -16.5853653, -10.6707315, 3.1097562, -0.0364233
-0.7416992, 0.7070312, -0.2172852, -16.7073174, -11.341464, 2.9268293, -0.0374304
-0.7402344, 0.7114258, -0.2163086, -16.6463413, -11.5853662, 2.804878, -0.0344091
-0.7319336, 0.7275391, -0.2089844, -16.4634151, -12.0121956, 2.0121951, -0.0287022
-0.7216797, 0.730957, -0.1958008, -16.7073174, -12.0121956, 2.1341465, -0.0305486
-0.71875, 0.7387695, -0.1879883, -17.3170738, -12.1341467, 1.8292683, -0.0293736
-0.7172852, 0.7329102, -0.175293, -18.1097565, -11.7073174, 1.5853659, -0.0243381
-0.7138672, 0.7246094, -0.171875, -18.1097565, -10.9146347, 1.5853659, -0.0223239
-0.7114258, 0.7041016, -0.1713867, -18.1097565, -10.4878054, 1.4634147, -0.0258488
-0.7143555, 0.6914062, -0.168457, -18.3536587, -9.8170738, 1.402439, -0.0298772
-0.7207031, 0.6806641, -0.1606445, -18.4146347, -9.2682924, 1.2195122, -0.0387732
-0.7236328, 0.6777344, -0.1586914, -18.1707325, -9.0853662, 0.8536586, -0.0464942
-0.7236328, 0.6811523, -0.1523438, -17.7439022, -9.7560978, 0.4878049, -0.0461585
-0.7255859, 0.6801758, -0.1494141, -17.3170738, -9.6951218, 0.6097561, -0.043473
-0.7211914, 0.6806641, -0.1484375, -17.1951218, -9.6951218, 0.7926829, -0.0377661
-0.7197266, 0.6704102, -0.1523438, -17.1951218, -9.8170738, 0.9146342, -0.0297093
-0.7138672, 0.6679688, -0.1523438, -17.0731716, -8.9634151, 0.6707317, -0.033402
-0.7143555, 0.6611328, -0.1484375, -17.0731716, -8.4146347, 0.6097561, -0.0359197
-0.7207031, 0.6542969, -0.1474609, -17.1951218, -7.6219516, 0.4268293, -0.0297093
-0.7299805, 0.6484375, -0.1533203, -16.5853653, -7.3170733, 0.3048781, -0.0213169
-0.7324219, 0.6445312, -0.1503906, -16.5853653, -7.4390244, 0.6707317, -0.01561
-0.7333984, 0.6450195, -0.1586914, -15.9146347, -7.1341467, 1.0365853, -0.0112459
-0.7338867, 0.6469727, -0.1640625, -15.2439032, -7.3780489, 1.2804878, -0.0028534
-0.7363281, 0.6557617, -0.1728516, -14.5121956, -7.3170733, 1.5243902, 0.0078889
-0.7368164, 0.6567383, -0.1748047, -14.2682934, -7.1951222, 1.8902439, 0.0045319
-0.734375, 0.65625, -0.1723633, -14.2682934, -7.2560978, 2.0121951, -0.002182
-0.7392578, 0.6503906, -0.1723633, -14.4512196, -6.7682929, 2.3170731, -0.0031891
-0.7436523, 0.6430664, -0.1713867, -14.4512196, -6.8292685, 2.4390244, 0.0048676
-0.7441406, 0.6289062, -0.1762695, -13.6585369, -6.7073174, 2.5, 0.0072175
-0.7490234, 0.6240234, -0.1816406, -12.560976, -7.1951222, 3.0487804, 0.0073854
-0.7548828, 0.6357422, -0.1899414, -11.341464, -7.8048782, 3.2926829, 0.0065461
-0.7539062, 0.6435547, -0.1879883, -10.9756098, -8.3536587, 3.2317073, 0.0005035
-0.7480469, 0.6582031, -0.1967773, -10.6707315, -9.3292685, 3.5975611, -0.0109102
-0.7416992, 0.6665039, -0.1962891, -10.6707315, -9.3292685, 3.5365853, -0.008896
-0.7294922, 0.6708984, -0.1982422, -10.7926836, -9.6341467, 3.4756098, -0.0129244
-0.7260742, 0.6708984, -0.1982422, -10.7926836, -9.9390249, 3.7804878, -0.0203098
-0.7202148, 0.668457, -0.1982422, -11.341464, -9.9390249, 3.5975611, -0.0223239
-0.7128906, 0.6572266, -0.1987305, -11.7682934, -10, 3.6585367, -0.0246738
-0.7133789, 0.6479492, -0.2016602, -12.7439032, -9.6951218, 3.7195122, -0.0303807
-0.7182617, 0.644043, -0.1928711, -12.8658543, -9.4512196, 3.3536587, -0.0310521
-0.7167969, 0.6459961, -0.1875, -13.0487804, -9.6341467, 3.0487804, -0.0337377
-0.7177734, 0.668457, -0.1777344, -12.7439032, -10.2439022, 2.4390244, -0.0354162
-0.715332, 0.6801758, -0.1704102, -12.3780489, -10.5487804, 2.4390244, -0.0391089
-0.7055664, 0.6918945, -0.171875, -11.8292685, -11.4024391, 2.5, -0.0370947
-0.7001953, 0.6914062, -0.1777344, -12.1341467, -11.0365858, 2.5, -0.0340734
-0.6933594, 0.6816406, -0.1958008, -13.1097565, -9.5121956, 2.6829269, -0.0337377
-0.6923828, 0.6748047, -0.1992188, -13.5975609, -8.4756098, 2.6829269, -0.036759
-0.7070312, 0.6704102, -0.1987305, -14.6951227, -7.6219516, 2.0731707, -0.0424659
-0.7285156, 0.6699219, -0.1987305, -15.1829271, -7.8048782, 1.5243902, -0.0424659
-0.7333984, 0.671875, -0.1992188, -14.8780489, -8.0487804, 1.5243902, -0.0387732
-0.7431641, 0.6757812, -0.1987305, -14.5731707, -8.780488, 1.8292683, -0.0276951
-0.7485352, 0.6772461, -0.1992188, -14.4512196, -9.7560978, 1.7073171, -0.012253
-0.7495117, 0.6669922, -0.1948242, -14.8170738, -10.3048782, 1.8902439, -0.0031891
-0.7504883, 0.6586914, -0.1958008, -15.060976, -10.3048782, 1.6463414, 0.0045319
-0.7519531, 0.6464844, -0.1855469, -14.8780489, -9.8780489, 1.8292683, 0.0003357
-0.7514648, 0.6445312, -0.1855469, -14.3902445, -9.6341467, 1.9512196, -0.0068818
-0.7543945, 0.6401367, -0.1816406, -14.2682934, -9.9390249, 2.3170731, -0.0097353
-0.7504883, 0.6391602, -0.1777344, -13.6585369, -10.5487804, 2.5609756, -0.0109102
-0.7446289, 0.637207, -0.1723633, -13.1097565, -11.8292685, 3.3536587, -0.0149386
-0.7280273, 0.6279297, -0.1694336, -12.9268293, -12.0121956, 3.4756098, -0.01561
-0.7202148, 0.6279297, -0.168457, -12.7439032, -12.2560978, 3.8414636, -0.017792
-0.7197266, 0.621582, -0.1791992, -12.6219511, -11.7682934, 3.5365853, -0.0209812
-0.7241211, 0.6264648, -0.1894531, -11.8292685, -10.9146347, 3.3536587, -0.0260166
-0.7338867, 0.6430664, -0.2143555, -10.9756098, -10.6707315, 3.7195122, -0.0216526
-0.7387695, 0.6494141, -0.2250977, -11.219512, -11.341464, 4.0853658, -0.0162814
-0.7524414, 0.6621094, -0.2329102, -11.7073174, -12.8048782, 4.5731707, -0.01561
-0.7563477, 0.6625977, -0.2299805, -11.8902445, -13.2926836, 4.5731707, -0.012253
-0.7553711, 0.6586914, -0.1987305, -12.8658543, -13.9634151, 3.9634147, -0.0095674
-0.7509766, 0.6557617, -0.1787109, -12.4390249, -14.2682934, 3.5975611, -0.0082246
-0.75, 0.6513672, -0.1416016, -10.7926836, -14.5731707, 3.3536587, -0.0031891
-0.7426758, 0.65625, -0.1176758, -9.8170738, -14.3292685, 3.7804878, 0.0048676
-0.7333984, 0.6660156, -0.1088867, -7.8048782, -13.780488, 4.1463413, 0.0327306
-0.7236328, 0.6772461, -0.1079102, -6.4024391, -13.1707315, 4.5121951, 0.0592508
-0.7158203, 0.684082, -0.1142578, -4.7560978, -12.0121956, 5.1219511, 0.0730144
-0.7094727, 0.7060547, -0.1323242, -4.1463413, -10.3048782, 5.3048782, 0.0652934
-0.7041016, 0.7104492, -0.1435547, -4.2682929, -9.8170738, 5.3658538, 0.0273594
-0.7055664, 0.7133789, -0.1577148, -4.8780489, -8.1707315, 4.8780489, 0.0018463
-0.7114258, 0.7114258, -0.1635742, -5.1829271, -7.3780489, 4.5121951, -0.0109102
-0.71875, 0.7124023, -0.1748047, -5.7317076, -5.8536587, 4.0853658, -0.0196384
-0.7197266, 0.7109375, -0.1738281, -5.670732, -5.609756, 3.9024391, -0.0199741
-0.7280273, 0.7133789, -0.1787109, -4.8780489, -5.9146342, 4.0853658, -0.0327306
-0.7255859, 0.7060547, -0.1928711, -4.5121951, -6.5853658, 4.2682929, -0.0491798
-0.7197266, 0.6977539, -0.1972656, -3.4146342, -7.8658538, 4.4512196, -0.0451514
-0.7163086, 0.6943359, -0.2158203, -3.2317073, -8.1707315, 4.4512196, -0.0370947
-0.7158203, 0.690918, -0.2250977, -3.1097562, -7.6829271, 3.7195122, -0.0290379
-0.7236328, 0.6967773, -0.2353516, -3.2926829, -8.0487804, 2.9268293, -0.0223239
-0.730957, 0.7036133, -0.2348633, -3.7195122, -8.4756098, 2.5609756, -0.0152743
-0.734375, 0.7055664, -0.2319336, -4.6341462, -9.8170738, 2.5, -0.0082246
-0.7382812, 0.7001953, -0.2260742, -4.9390244, -10.1219511, 2.5, -0.0146029
-0.7363281, 0.6875, -0.2158203, -5.7317076, -10.1829271, 2.5, -0.0149386
-0.7392578, 0.6801758, -0.215332, -5.7317076, -10.1219511, 2.2560976, -0.0209812
-0.7392578, 0.6743164, -0.222168, -5.4268293, -9.8780489, 2.3780489, -0.0243381
-0.7495117, 0.675293, -0.2363281, -4.8170733, -10.2439022, 2.5609756, -0.0323949
-0.7441406, 0.6743164, -0.2451172, -3.4146342, -11.4024391, 3.2317073, -0.0404517
-0.7475586, 0.6806641, -0.25, -2.9878049, -12.1951218, 3.3536587, -0.0522011
-0.7456055, 0.6835938, -0.2460938, -3.2317073, -13.9024391, 3.0487804, -0.0558938
-0.7436523, 0.6831055, -0.2260742, -3.5365853, -15.060976, 2.9268293, -0.0659648
-0.7446289, 0.6787109, -0.2133789, -3.7195122, -14.7560978, 2.6219513, -0.0663005
-0.7407227, 0.6674805, -0.2050781, -3.4756098, -14.5731707, 3.1097562, -0.0706645
-0.7446289, 0.6669922, -0.2070312, -2.9878049, -14.3292685, 3.3536587, -0.0706645
-0.7353516, 0.668457, -0.2216797, -2.3780489, -14.3902445, 4.390244, -0.0750286
-0.7412109, 0.6635742, -0.2368164, -1.8902439, -14.8170738, 4.5121951, -0.0847639
-0.7480469, 0.6625977, -0.2348633, -1.9512196, -15.8536587, 4.8170733, -0.093492
-0.7524414, 0.6625977, -0.2207031, -1.8292683, -16.2195129, 4.8170733, -0.0894636
-0.7514648, 0.6586914, -0.2148438, -1.9512196, -17.0731716, 5.3658538, -0.0877852
-0.7382812, 0.6508789, -0.1967773, -1.3414634, -17.2560978, 5.2439027, -0.0854353
-0.7329102, 0.6459961, -0.1879883, 0.3048781, -17.6829281, 5.5487804, -0.0800641
-0.7172852, 0.6523438, -0.184082, 2.3780489, -18.0487804, 5.7317076, -0.0699931
-0.7050781, 0.6586914, -0.1879883, 2.8658538, -18.3536587, 5.8536587, -0.057908
-0.690918, 0.6821289, -0.2006836, 3.3536587, -17.3780499, 6.4024391, -0.0313878
-0.6894531, 0.6860352, -0.2124023, 3.0487804, -16.9512196, 6.280488, -0.002182
-0.6914062, 0.6933594, -0.2324219, 1.5243902, -14.8170738, 6.5243902, 0.0179599
-0.7021484, 0.6948242, -0.246582, 0.7317073, -13.9634151, 6.4024391, 0.0364233
-0.7099609, 0.6987305, -0.2558594, -0.0609756, -12.7439032, 6.1585369, 0.0495155
-0.7216797, 0.7026367, -0.2509766, -0.3658537, -12.560976, 5.9756098, 0.0508583
-0.7241211, 0.7021484, -0.2382812, -0.7926829, -12.9878054, 5.609756, 0.0436408
-0.7124023, 0.7021484, -0.2124023, -1.097561, -13.2926836, 5.7317076, 0.0381018
-0.703125, 0.703125, -0.2041016, -0.7317073, -13.1097565, 5.1829271, 0.0280308
-0.6875, 0.699707, -0.1826172, 0.0609756, -11.9512196, 5.0609756, 0.0226596
-0.6835938, 0.6962891, -0.1801758, 0.3658537, -11.280488, 5.1829271, 0.0468299
-0.6801758, 0.6855469, -0.1972656, 1.097561, -10.7317076, 5.9756098, 0.0632792
-0.6816406, 0.6782227, -0.21875, 1.5853659, -10.060976, 6.7073174, 0.070161
-0.6967773, 0.6679688, -0.2719727, 1.7682927, -8.780488, 6.890244, 0.079057
-0.7280273, 0.6728516, -0.3027344, 1.7073171, -8.1097565, 6.7682929, 0.0622721
-0.746582, 0.6831055, -0.3066406, 1.1585366, -8.5975609, 6.0975609, 0.040116
-0.7724609, 0.7060547, -0.2944336, 1.3414634, -9.3902445, 5.8536587, 0.0226596
-0.7797852, 0.7177734, -0.2773438, 2.195122, -11.8902445, 5.9756098, -0.005539
-0.7709961, 0.7104492, -0.2363281, 2.5609756, -13.1707315, 6.2195125, -0.0350805
-0.7626953, 0.6928711, -0.2197266, 3.7195122, -14.6341467, 6.4024391, -0.0532082
-0.7412109, 0.6416016, -0.2006836, 5.2439027, -14.3902445, 7.3780489, -0.0622721
-0.7285156, 0.6225586, -0.1953125, 6.5243902, -13.841464, 8.1097565, -0.0663005
-0.7192383, 0.5966797, -0.2060547, 9.5731707, -12.9268293, 8.6585369, -0.0733501
-0.7138672, 0.5996094, -0.2172852, 11.1585369, -12.7439032, 9.0853662, -0.0750286
-0.7089844, 0.6269531, -0.2294922, 13.841464, -13.4756098, 9.2682924, -0.0661326
-0.703125, 0.6704102, -0.2441406, 14.3902445, -14.0243902, 9.0243902, -0.0558938
-0.699707, 0.6889648, -0.2407227, 14.6341467, -14.5121956, 8.841464, -0.036759
-0.699707, 0.7036133, -0.2407227, 14.3902445, -14.1463413, 8.841464, -0.0290379
-0.7016602, 0.7089844, -0.2392578, 14.2073174, -11.8292685, 9.0853662, -0.0276951
-0.7099609, 0.7109375, -0.246582, 13.9634151, -10.5487804, 9.3902445, -0.0263523
-0.7172852, 0.7124023, -0.2470703, 14.4512196, -8.4146347, 9.5731707, -0.0330663
-0.7265625, 0.7133789, -0.2446289, 14.6951227, -7.6829271, 9.5121956, -0.0475013
-0.7275391, 0.7119141, -0.2446289, 14.7560978, -7.0121951, 9.5121956, -0.057908
-0.7270508, 0.7109375, -0.2426758, 15.6097565, -4.7560978, 9.6951218, -0.0642863
-0.7207031, 0.7070312, -0.2495117, 15.9756098, -3.4146342, 9.6951218, -0.0639506
-0.7099609, 0.6948242, -0.2700195, 17.2560978, -1.2804878, 10.5487804, -0.0552224
-0.7026367, 0.6923828, -0.2836914, 17.3780499, -0.6707317, 11.4024391, -0.0391089
-0.6943359, 0.6918945, -0.2919922, 17.439024, -0.6097561, 12.3780489, -0.008896
-0.6860352, 0.6953125, -0.2866211, 17.6829281, -0.6707317, 11.8292685, 0.023331
-0.6865234, 0.699707, -0.2895508, 17.7439022, 0.1219512, 10.9146347, 0.0340734
-0.6933594, 0.7172852, -0.2792969, 18.1097565, 0.5487805, 10.2439022, 0.0357519
-0.6962891, 0.7285156, -0.2714844, 18.2926826, 0.8536586, 9.6341467, 0.0290379
-0.7011719, 0.7319336, -0.2470703, 18.4146347, 2.6219513, 9.7560978, 0.0146029
-0.699707, 0.7314453, -0.2416992, 18.5365849, 3.9634147, 9.9390249, -0.0048676
-0.6992188, 0.7250977, -0.2485352, 19.4512196, 6.6463418, 10.4878054, -0.0236667
-0.6987305, 0.7197266, -0.253418, 20, 7.6219516, 10.6707315, -0.0328985
-0.7011719, 0.7128906, -0.2734375, 21.0975609, 8.9024391, 11.5243902, -0.0419623
-0.7133789, 0.7207031, -0.2915039, 21.6463413, 9.2073174, 11.8902445, -0.04448
-0.71875, 0.7163086, -0.2983398, 22.6219521, 9.6951218, 12.0121956, -0.0528725
-0.7299805, 0.7080078, -0.3115234, 23.1097565, 10.1219511, 12.1341467, -0.0585794
-0.7348633, 0.6992188, -0.3125, 23.5975609, 10.6097565, 11.9512196, -0.0619364
-0.7480469, 0.7006836, -0.3178711, 24.9390259, 11.0975609, 11.9512196, -0.0632792
-0.7509766, 0.7099609, -0.3203125, 25.4878063, 11.280488, 11.8292685, -0.068986
-0.7597656, 0.7060547, -0.3417969, 27.0121956, 11.7682934, 11.9512196, -0.0713359
-0.7578125, 0.6967773, -0.3447266, 27.2560978, 11.7073174, 12.1341467, -0.0663005
-0.7495117, 0.6801758, -0.3530273, 28.1097565, 11.4634151, 12.5, -0.0721752
-0.7416992, 0.6748047, -0.3496094, 28.5975609, 11.5853662, 12.6219511, -0.0810712
-0.7241211, 0.6699219, -0.3481445, 29.6951218, 11.7073174, 12.6219511, -0.0906386
-0.7182617, 0.6948242, -0.3422852, 30.4878063, 11.5853662, 12.5, -0.0918135
-0.7128906, 0.7099609, -0.3393555, 31.5243912, 11.219512, 12.0121956, -0.0854353
-0.6904297, 0.7387695, -0.3364258, 31.8292694, 11.5853662, 12.3170738, -0.0827497
-0.6855469, 0.7402344, -0.3300781, 30.8536587, 12.8048782, 12.1951218, -0.0753643
-0.6850586, 0.7211914, -0.3149414, 28.9024391, 15.4268293, 11.9512196, -0.061265
-0.6865234, 0.7050781, -0.2978516, 28.0487804, 17.0731716, 11.5243902, -0.047837
-0.6987305, 0.6767578, -0.2773438, 27.6829281, 20.7317085, 11.7682934, -0.0433051
-0.6943359, 0.6674805, -0.2709961, 28.780489, 21.7073174, 12.3780489, -0.0345769
-0.6928711, 0.6762695, -0.2744141, 31.341465, 23.4146347, 12.7439032, -0.0250095
-0.6875, 0.6835938, -0.284668, 32.6829262, 23.7195129, 12.8658543, -0.0290379
-0.6748047, 0.690918, -0.3222656, 33.841465, 24.8170738, 13.3536587, -0.0364233
-0.675293, 0.6884766, -0.3735352, 34.2682953, 26.0365868, 13.4756098, -0.0384375
-0.6875, 0.6821289, -0.3950195, 33.7804871, 28.1707325, 14.2073174, -0.0337377
-0.7089844, 0.6650391, -0.4140625, 33.5975609, 28.5975609, 14.2682934, -0.0345769
-0.722168, 0.6611328, -0.409668, 33.4146347, 28.5975609, 13.5975609, -0.0317235
-0.7446289, 0.6772461, -0.3837891, 34.6341476, 27.8048782, 12.8658543, -0.0179599
-0.7548828, 0.6831055, -0.3779297, 35.8536606, 27.3170738, 12.6829271, -0.0023499
-0.7543945, 0.6806641, -0.3852539, 38.9024391, 26.5243912, 13.5365858, 0.0078889
-0.7470703, 0.6743164, -0.3984375, 40.2439041, 26.4634151, 14.3902445, 0.0146029
-0.7265625, 0.6650391, -0.4394531, 41.9512215, 26.5853672, 15.9756098, 0.0323949
-0.7226562, 0.6660156, -0.4482422, 42.1951218, 26.9512196, 16.3414631, 0.0481727
-0.7236328, 0.6708984, -0.4536133, 41.6463432, 27.1951218, 16.0365849, 0.0498512
-0.7260742, 0.6953125, -0.4287109, 41.4634171, 27.6219521, 15.9756098, 0.0488441
-0.7304688, 0.7021484, -0.4150391, 42.0731735, 28.0487804, 15.3658543, 0.0451514
-0.734375, 0.7119141, -0.3945312, 42.6219521, 28.5365868, 15.6707325, 0.0414588
-0.7319336, 0.715332, -0.3803711, 43.9634171, 29.5121956, 15.9756098, 0.0397803
-0.7133789, 0.7109375, -0.3544922, 45.2439041, 30.9756107, 16.3414631, 0.0313878
-0.7060547, 0.7045898, -0.3432617, 45.8536606, 32.5, 16.4024391, 0.026688
-0.6894531, 0.6943359, -0.3535156, 47.6829262, 36.0365868, 16.9512196, 0.0253452
-0.6796875, 0.690918, -0.3671875, 48.7804871, 37.1341476, 17.3170738, 0.0199741
-0.6660156, 0.6948242, -0.4125977, 49.9390259, 39.8170738, 18.2926826, 0.0112459
-0.6640625, 0.7016602, -0.4335938, 50.4268303, 40.4878044, 18.2317085, 0.0052033
-0.6791992, 0.7163086, -0.453125, 50.4268303, 41.7073174, 17.8658543, 0.002182
-0.7001953, 0.7250977, -0.434082, 50.3048782, 42.3780479, 17.1341476, -0.0028534
-0.7109375, 0.7285156, -0.4145508, 50.6707344, 43.4756126, 15.9756098, -0.0058747
-0.7143555, 0.7265625, -0.3852539, 51.6463432, 43.841465, 15.5487804, -0.0193027
-0.7099609, 0.7299805, -0.3818359, 54.0853653, 45.6097565, 15.6097565, -0.0236667
-0.7026367, 0.722168, -0.4101562, 57.5, 47.9268303, 16.6463413, -0.0310521
-0.6977539, 0.7172852, -0.4355469, 58.9024391, 49.2073174, 17.3780499, -0.0318914
-0.6918945, 0.7070312, -0.4814453, 59.6341476, 50.9146347, 18.1097565, -0.0330663
-0.6962891, 0.7021484, -0.4936523, 59.6341476, 51.341465, 17.9878044, -0.0394446
-0.7177734, 0.6923828, -0.5009766, 59.5731735, 52.0731735, 17.2560978, -0.0421302
-0.7270508, 0.6933594, -0.4907227, 60.0609779, 52.0731735, 16.7682934, -0.0407874
-0.7314453, 0.7001953, -0.46875, 61.341465, 52.3170738, 17.0731716, -0.0407874
-0.7202148, 0.7084961, -0.4711914, 62.2560997, 52.6829262, 17.439024, -0.0431373
-0.703125, 0.7094727, -0.4902344, 64.7560959, 54.2073174, 18.1097565, -0.0448157
-0.6865234, 0.706543, -0.5297852, 65.6097565, 54.6951218, 18.5975609, -0.0458228
-0.6796875, 0.7070312, -0.5444336, 66.7073212, 55.7317085, 18.9634151, -0.0498512
-0.6777344, 0.7182617, -0.5473633, 66.1585388, 56.8292694, 18.6585369, -0.0721752
-0.6875, 0.7163086, -0.5371094, 66.1585388, 57.1951218, 17.9268303, -0.093492
-0.6923828, 0.7148438, -0.515625, 66.5243912, 58.6585388, 16.6463413, -0.0955062
-0.6992188, 0.7138672, -0.5073242, 67.2560959, 59.0853691, 16.5853653, -0.0871138
-0.6958008, 0.7167969, -0.5102539, 69.0853653, 61.0365868, 17.439024, -0.076875
-0.690918, 0.7192383, -0.5175781, 69.6951218, 62.2560997, 18.4146347, -0.066804
-0.6723633, 0.7231445, -0.5415039, 70.7317123, 64.0853653, 19.4512196, -0.0491798
-0.6640625, 0.7192383, -0.5600586, 70.9756088, 65.4878082, 19.6341476, -0.0307164
-0.6694336, 0.7172852, -0.5561523, 70.18293, 67.9268341, 18.5365849, -0.0216526
-0.6791992, 0.7167969, -0.5361328, 70.0609741, 68.8414688, 17.9878044, -0.0142672
-0.6821289, 0.7216797, -0.5253906, 70.7317123, 71.0975647, 17.0731716, -0.0041962
-0.6772461, 0.7260742, -0.5224609, 72.2560959, 72.9268341, 17.6829281, 0.0025177
-0.6650391, 0.7270508, -0.5371094, 72.8048782, 74.2073212, 18.7195129, 0.002182
-0.6333008, 0.7119141, -0.5893555, 73.6585388, 76.8292694, 20.2439022, 0.0015106
-0.6220703, 0.699707, -0.6171875, 73.2926865, 78.1097565, 20.2439022, 0.0018463
-0.6308594, 0.6958008, -0.6455078, 72.6219559, 79.9390259, 19.0853672, 0.0025177
-0.6625977, 0.7060547, -0.6411133, 71.8902435, 79.8780518, 18.3536587, 0.0036927
-0.6733398, 0.7109375, -0.6337891, 72.1951218, 79.5731735, 17.6219521, 0.0025177
-0.6884766, 0.7167969, -0.6142578, 72.5609741, 79.2682953, 17.3170738, -0.0008392
-0.6870117, 0.7138672, -0.6069336, 74.0243912, 79.4512177, 17.439024, -0.0005035
-0.6879883, 0.7001953, -0.6005859, 74.5121994, 80.6097565, 17.1951218, 0.0018463
-0.6811523, 0.690918, -0.6010742, 75.4268341, 82.7439041, 18.1707325, -0.0001678
-0.659668, 0.6811523, -0.6191406, 76.2804871, 85.18293, 19.8170738, 0.0038605
-0.6489258, 0.6801758, -0.6323242, 76.8902435, 85.9756088, 20.1829281, 0.0045319
-0.640625, 0.6738281, -0.6669922, 77.3170776, 87.7439041, 20.5487804, -0.0041962
-0.6425781, 0.6743164, -0.6835938, 77.3170776, 88.1097565, 20.3658543, -0.0162814
-0.6582031, 0.6865234, -0.7050781, 77.4390259, 88.1707306, 20.4268303, -0.018967
-0.6743164, 0.6933594, -0.6943359, 77.8048782, 88.0487823, 20.1219521, -0.0152743
-0.6796875, 0.6972656, -0.6870117, 78.4146347, 87.3780518, 19.5121956, -0.0075532
-0.6816406, 0.703125, -0.6713867, 78.6585388, 87.1951218, 19.2682934, 0.0005035
-0.6777344, 0.6992188, -0.668457, 79.6341476, 87.2560959, 19.5731716, 0.0082246
-0.6523438, 0.6923828, -0.6948242, 80.4878082, 87.8048782, 20.1829281, 0.0219883
-0.637207, 0.6865234, -0.7202148, 81.4634171, 89.0853653, 21.7682934, 0.0246738
-0.6108398, 0.6826172, -0.7661133, 80.5487823, 90.7926865, 22.3170738, 0.0280308
-0.6157227, 0.6855469, -0.7758789, 79.6951218, 91.0365906, 22.2560978, 0.030045
-0.640625, 0.6972656, -0.7548828, 78.4146347, 90.0609741, 21.2195129, 0.0374304
-0.6450195, 0.6962891, -0.7368164, 77.9878082, 88.9024429, 20.6097565, 0.0394446
-0.6616211, 0.6708984, -0.7099609, 78.5365906, 88.2317123, 19.5731716, 0.036759
-0.6655273, 0.652832, -0.7133789, 79.0853653, 88.6585388, 19.3292694, 0.0260166
-0.6660156, 0.6616211, -0.7246094, 80.7926865, 89.8170776, 21.280489, 0.0199741
-0.6323242, 0.7011719, -0.7431641, 81.7682953, 90.18293, 22.560976, 0.0169528
-0.6113281, 0.7231445, -0.7548828, 82.4390259, 90.6707306, 23.8414631, 0.0072175
-0.5883789, 0.7392578, -0.7705078, 81.5853653, 91.0975647, 23.4756107, -0.0015106
-0.5751953, 0.7290039, -0.7797852, 79.6951218, 93.5365906, 22.5, -0.0109102
-0.5771484, 0.6962891, -0.793457, 77.2560959, 96.2804871, 20.4878044, -0.0182956
-0.5878906, 0.6757812, -0.796875, 76.4634171, 97.0121994, 19.939024, -0.0256809
-0.6088867, 0.6665039, -0.7822266, 75.5487823, 95.9756088, 19.5731716, -0.0317235
-0.6079102, 0.6650391, -0.7709961, 75.5487823, 94.9390259, 19.4512196, -0.0350805
-0.5922852, 0.6816406, -0.7612305, 75.8536606, 94.146347, 20.1829281, -0.0325628
-0.5595703, 0.7114258, -0.7563477, 76.3414688, 94.7561035, 20.6707325, -0.0193027
-0.5429688, 0.7172852, -0.7666016, 76.0975647, 97.2561035, 21.8902435, -0.0203098
-0.5117188, 0.7080078, -0.7861328, 75.18293, 99.2073212, 22.1341476, -0.023331
-0.5107422, 0.6967773, -0.7949219, 72.3780518, 103.4756088, 21.7682934, -0.0229953
-0.5288086, 0.6816406, -0.8217773, 71.0365906, 104.6951218, 21.5243912, -0.0218204
-0.5419922, 0.6679688, -0.831543, 70.1219559, 106.2195129, 22.3780499, -0.0196384
-0.5410156, 0.5864258, -0.8574219, 70.7926865, 106.5853653, 20.5487804, -0.0172885
-0.5742188, 0.5708008, -0.8544922, 70.9146347, 105.3048782, 18.1097565, -0.018967
-0.6450195, 0.5981445, -0.831543, 72.8658524, 101.5243912, 18.4146347, -0.0176242
-0.6523438, 0.6401367, -0.8095703, 75, 99.3902435, 20.3048782, -0.0162814
-0.5986328, 0.6938477, -0.7983398, 77.6219559, 96.5243912, 23.780489, -0.0082246
-0.5292969, 0.6616211, -0.8447266, 77.8658524, 97.6219559, 24.6951218, -0.008896
-0.5004883, 0.6430664, -0.8579102, 76.7073212, 102.0121994, 25.4268303, -0.0095674
-0.4819336, 0.597168, -0.8613281, 75.0609741, 103.6585388, 25.7317085, -0.0159457
-0.484375, 0.5791016, -0.8505859, 72.8048782, 104.2073212, 24.5121956, -0.0270237
-0.5141602, 0.5712891, -0.8251953, 72.2560959, 103.7195129, 23.5365868, -0.0344091
-0.5332031, 0.5761719, -0.8134766, 73.8414688, 101.2804871, 22.9878063, -0.0193027
-0.5410156, 0.5927734, -0.8125, 76.9512177, 100.2439041, 24.2682934, -0.0102388
-0.5419922, 0.6030273, -0.8256836, 77.9878082, 100.4878082, 25.4268303, -0.0166171
-0.5356445, 0.6118164, -0.8676758, 78.4756088, 101.7682953, 27.1341476, -0.0330663
-0.5253906, 0.6181641, -0.887207, 78.1097565, 102.7439041, 27.9268303, -0.0488441
-0.5058594, 0.6347656, -0.9101562, 76.4024429, 102.9268341, 29.3292694, -0.054551
-0.480957, 0.6630859, -0.9057617, 75.7926865, 102.7439041, 29.8170738, -0.064622
-0.4550781, 0.671875, -0.894043, 74.1463394, 102.1951218, 29.9390259, -0.0710002
-0.4233398, 0.6855469, -0.8696289, 73.1707306, 102.5, 29.7560978, -0.0733501
-0.4125977, 0.6806641, -0.8642578, 70.7317123, 104.146347, 28.1097565, -0.0773785
-0.40625, 0.6508789, -0.8710938, 69.5121994, 105.6097565, 27.1341476, -0.0874495
-0.4091797, 0.6259766, -0.8808594, 67.68293, 109.2073212, 25.8536587, -0.0928206
-0.4375, 0.5761719, -0.8911133, 66.2804871, 111.0975647, 24.3292694, -0.0958419
-0.4619141, 0.5551758, -0.890625, 65.9756088, 110.9146347, 23.780489, -0.0988632
-0.5009766, 0.5180664, -0.8979492, 67.4390259, 109.3902435, 24.6341476, -0.0981918
-0.5297852, 0.5141602, -0.8969727, 69.2073212, 108.1707306, 25.7317085, -0.0903029
-0.5600586, 0.5097656, -0.9135742, 72.1951218, 102.8048782, 27.3170738, -0.0847639
-0.5615234, 0.5283203, -0.9204102, 73.3536606, 100.4878082, 28.2926826, -0.0733501
-0.5585938, 0.5546875, -0.9189453, 76.4634171, 97.9268341, 30.5487804, -0.0622721
-0.5234375, 0.612793, -0.9306641, 77.5, 97.1341476, 32.2560997, -0.0515297
-0.487793, 0.637207, -0.9462891, 78.1097565, 97.5609741, 35.6097565, -0.0397803
-0.4257812, 0.6699219, -0.9760742, 77.68293, 98.5365906, 36.4634171, -0.0303807
-0.4116211, 0.675293, -0.9794922, 74.2682953, 99.5731735, 35.6707344, -0.0283665
-0.3833008, 0.6416016, -0.9731445, 70.8536606, 100.18293, 33.6585388, -0.024506
-0.3798828, 0.6132812, -0.9658203, 69.5121994, 100.6097565, 31.8902454, -0.0216526
-0.4057617, 0.5688477, -0.9443359, 68.7804871, 100.7317123, 28.2317085, -0.018967
-0.4326172, 0.5639648, -0.9355469, 69.3292694, 100, 27.4390259, -0.0169528
-0.4633789, 0.5844727, -0.9262695, 71.4634171, 97.68293, 27.8658543, -0.0142672
-0.4672852, 0.6254883, -0.9272461, 72.5609741, 96.7073212, 28.2317085, -0.0182956
-0.4575195, 0.6367188, -0.9384766, 73.7195129, 96.2195129, 29.5121956, -0.0146029
-0.4160156, 0.6386719, -0.9628906, 73.3536606, 97.3780518, 29.6951218, -0.005539
-0.4072266, 0.6347656, -0.9741211, 71.7073212, 99.9390259, 29.6951218, -0.0043641
-0.3823242, 0.6308594, -0.9838867, 69.9390259, 101.0365906, 29.1463413, -0.002182
-0.3759766, 0.6342773, -0.9770508, 68.9024429, 101.4634171, 28.1707325, -0.0028534
-0.3813477, 0.6416016, -0.9570312, 67.1951218, 100.9756088, 26.4634151, -0.0035248
-0.3740234, 0.637207, -0.9399414, 67.1341476, 100.6707306, 25.4268303, -0.008896
-0.3666992, 0.6098633, -0.9121094, 67.3170776, 100.9756088, 23.6585369, -0.0082246
-0.3579102, 0.5864258, -0.9047852, 67.4390259, 101.0365906, 23.1707325, -0.0062104
-0.3330078, 0.5400391, -0.9086914, 68.1707306, 102.68293, 22.9878063, -0.0102388
-0.3173828, 0.5131836, -0.9272461, 68.5975647, 103.7804871, 23.1097565, -0.0082246
-0.3198242, 0.5053711, -0.9379883, 68.7195129, 105.3048782, 22.8048782, -0.0028534
-0.3520508, 0.5166016, -0.9580078, 68.7804871, 105.7926865, 22.2560978, -0.0003357
-0.3730469, 0.5332031, -0.9643555, 68.9024429, 106.2804871, 21.8292694, 0.0031891
-0.4023438, 0.5546875, -0.9697266, 69.7560959, 105.1219559, 23.1707325, -0.0050355
-0.4033203, 0.5610352, -0.9741211, 70.3048782, 104.6951218, 24.2073174, -0.0083925
-0.3686523, 0.5507812, -0.9833984, 70.0609741, 104.5121994, 24.9390259, -0.008896
-0.355957, 0.5444336, -0.9833984, 69.7560959, 104.7561035, 24.9390259, -0.0216526
-0.3339844, 0.5214844, -0.9951172, 68.7195129, 105.9756088, 24.8170738, -0.0310521
-0.331543, 0.5205078, -1, 68.6585388, 106.5243912, 24.8780499, -0.0317235
-0.3300781, 0.5371094, -1.0327148, 68.4756088, 107.2561035, 24.8780499, -0.0283665
-0.3417969, 0.5585938, -1.0737305, 68.2317123, 107.3170776, 25.060976, -0.0283665
-0.3491211, 0.5688477, -1.0869141, 66.2195129, 107.1341476, 25.060976, -0.0179599
-0.3564453, 0.5644531, -1.0800781, 65.1219559, 106.646347, 24.6951218, -0.0028534
-0.3632812, 0.5517578, -1.0571289, 62.5, 104.8170776, 23.5365868, 0.0117494
-0.362793, 0.5126953, -1.0136719, 61.8292694, 102.8658524, 22.9268303, 0.0347448
-0.3574219, 0.4902344, -1.0024414, 62.2560997, 102.1951218, 23.2926826, 0.0661326
-0.3447266, 0.4550781, -0.9887695, 64.6341476, 101.646347, 23.4756107, 0.0730144
-0.3413086, 0.4521484, -0.9833984, 65.6707306, 101.646347, 23.3536587, 0.0683146
-0.3496094, 0.4545898, -0.9741211, 67.8048782, 100.4268341, 23.9024391, 0.0473335
-0.3452148, 0.4624023, -0.9663086, 68.4756088, 99.7561035, 24.5121956, 0.0204776
-0.3193359, 0.4697266, -0.9716797, 70.4878082, 99.0243912, 26.7073174, -0.0001678
-0.2666016, 0.4824219, -0.9926758, 71.0365906, 99.3292694, 28.0487804, -0.0102388
-0.237793, 0.4838867, -1.0063477, 69.8780518, 101.1585388, 29.5731716, -0.0176242
-0.2070312, 0.484375, -1.0141602, 68.5975647, 102.4390259, 29.1463413, -0.0226596
-0.2050781, 0.4897461, -0.9995117, 65.8536606, 104.6951218, 26.8902454, -0.0226596
-0.2226562, 0.4946289, -0.9702148, 64.8170776, 104.7561035, 25.1219521, -0.0231632
-0.2250977, 0.4897461, -0.9702148, 65.4268341, 104.6341476, 25.1219521, -0.0231632
-0.199707, 0.4716797, -0.9931641, 66.5243912, 104.9390259, 25.4268303, -0.0270237
-0.1875, 0.4658203, -1.0117188, 66.6463394, 106.0975647, 24.6951218, -0.0253452
-0.2075195, 0.4379883, -1.0249023, 65.4268341, 107.1951218, 21.6463413, -0.0317235
-0.2329102, 0.4257812, -1.0200195, 65.6097565, 107.3170776, 20.4268303, -0.0421302
-0.2851562, 0.4013672, -0.9916992, 67.4390259, 105.18293, 19.0853672, -0.0535439
-0.3027344, 0.3862305, -0.9887695, 68.8414688, 104.146347, 19.4512196, -0.0703288
-0.2939453, 0.3876953, -0.9941406, 72.5609741, 102.2561035, 22.0731716, -0.0834211
-0.2539062, 0.4033203, -1.0131836, 73.9634171, 101.8902435, 23.9634151, -0.0955062
-0.2202148, 0.4140625, -1.0205078, 74.7560959, 103.1097565, 25.9756107, -0.0971847
-0.1801758, 0.4223633, -1.0166016, 73.8414688, 105.4878082, 24.9390259, -0.0911421
-0.171875, 0.4238281, -1.0112305, 73.4146347, 106.2195129, 24.3902435, -0.0815747
-0.1640625, 0.4150391, -1.003418, 73.2926865, 107.3170776, 23.8414631, -0.0632792
-0.1577148, 0.4106445, -1.0131836, 73.9634171, 107.5609818, 24.0243912, -0.04448
-0.1552734, 0.3959961, -1.0551758, 74.0853653, 109.146347, 23.4756107, -0.03122
-0.1577148, 0.3984375, -1.0727539, 74.1463394, 109.6341476, 23.2926826, -0.0283665
-0.1850586, 0.3916016, -1.1049805, 74.2073212, 109.146347, 22.0121956, -0.0209812
-0.2294922, 0.3798828, -1.1079102, 73.9634171, 108.0487823, 21.2195129, -0.0216526
-0.246582, 0.3759766, -1.1000977, 74.5731735, 104.9390259, 20.6707325, -0.0203098
-0.2451172, 0.3789062, -1.0522461, 75.4878082, 103.4756088, 20.9756107, -0.0162814
-0.2338867, 0.3813477, -1.0332031, 77.3780518, 101.1585388, 22.0731716, -0.0015106
-0.1865234, 0.3994141, -1.0107422, 78.5365906, 100.7926865, 24.0853672, 0.0226596
-0.1430664, 0.4018555, -1.0112305, 79.0243912, 101.7682953, 25.060976, 0.040116
-0.0566406, 0.3828125, -1.050293, 77.9268341, 106.0975647, 25.7926826, 0.0454871
-0.0307617, 0.3652344, -1.0703125, 76.5853653, 108.7195129, 24.6341476, 0.043473
-0.0375977, 0.3457031, -1.0996094, 73.9634171, 112.0731735, 21.8902435, 0.0354162
-0.0649414, 0.340332, -1.0966797, 73.1707306, 112.0731735, 20.4878044, 0.0280308
-0.1186523, 0.3422852, -1.0800781, 72.8048782, 109.9390259, 19.2682934, 0.0231632
-0.1572266, 0.3408203, -1.0512695, 73.2317123, 108.7195129, 18.9024391, 0.0152743
-0.1611328, 0.3369141, -1.043457, 74.4512177, 106.8902435, 19.0853672, 0.0072175
-0.1503906, 0.3339844, -1.0493164, 75.3048782, 106.8902435, 19.6341476, -0.0001678
-0.1362305, 0.3266602, -1.0703125, 76.4634171, 107.3780518, 21.6463413, -0.0070497
-0.0966797, 0.3339844, -1.1088867, 76.5853653, 108.4756088, 24.3902435, -0.0162814
-0.0756836, 0.3413086, -1.1254883, 75.7317123, 108.9634171, 24.5731716, -0.0238346
-0.0615234, 0.328125, -1.1186523, 73.5365906, 108.9634171, 22.6829281, -0.0297093
-0.0751953, 0.3222656, -1.1035156, 72.4390259, 108.6585388, 21.5243912, -0.0350805
-0.1005859, 0.3027344, -1.0673828, 72.68293, 106.8902435, 20.4878044, -0.040116
-0.1015625, 0.2915039, -1.0371094, 73.7804871, 105.7317123, 20.8536587, -0.0417945
-0.0942383, 0.293457, -1.0332031, 76.2195129, 104.3902435, 22.0121956, -0.0394446
-0.0556641, 0.2954102, -1.0439453, 76.8292694, 104.146347, 22.1951218, -0.0431373
-0.03125, 0.2919922, -1.0605469, 77.6219559, 104.6341476, 23.9634151, -0.0458228
-0.0024414, 0.2768555, -1.1245117, 77.2560959, 105.4878082, 24.6951218, -0.0488441
0.0024414, 0.2651367, -1.1582031, 76.1585388, 108.0487823, 24.6951218, -0.0461585
-0.0444336, 0.2485352, -1.1860352, 74.3292694, 108.1097565, 22.1341476, -0.0458228
-0.0913086, 0.2597656, -1.1572266, 73.7804871, 106.0365906, 21.1585369, -0.0431373
-0.1435547, 0.2905273, -1.0869141, 74.5731735, 99.146347, 21.4024391, -0.047837
-0.1391602, 0.3037109, -1.0585938, 75.8536606, 95.7317123, 22.9268303, -0.0532082
-0.0483398, 0.3168945, -1.0395508, 77.5, 93.9024429, 27.6829281, -0.0528725
0.0893555, 0.293457, -1.0478516, 77.4390259, 95.3658524, 29.3292694, -0.06009
0.1333008, 0.2709961, -1.0488281, 74.3902435, 101.3414688, 28.1707325, -0.0599222
0.1435547, 0.2177734, -1.0429688, 72.8048782, 104.0243912, 25.9756107, -0.0632792
0.1186523, 0.1958008, -1.0444336, 72.0121994, 107.0731735, 22.1341476, -0.057908
0.0463867, 0.1630859, -1.0649414, 73.3536606, 107.5609818, 20.8536587, -0.0632792
0.0029297, 0.1630859, -1.0693359, 77.3170776, 105, 19.0853672, -0.0639506
-0.0693359, 0.1962891, -1.0615234, 80.4878082, 99.5731735, 19.6951218, -0.0552224
-0.0766602, 0.2075195, -1.0551758, 81.8902435, 97.0121994, 21.1585369, -0.0493477
-0.0375977, 0.2304688, -1.0532227, 84.0243912, 94.5731735, 25.3048782, -0.0407874
0.0058594, 0.234375, -1.0576172, 84.5121994, 94.6951218, 26.9512196, -0.0337377
0.0820312, 0.2255859, -1.0620117, 83.7804871, 97.1951218, 27.8658543, -0.0256809
0.1303711, 0.1923828, -1.0556641, 83.1097565, 98.3536606, 27.3780499, -0.0193027
0.1357422, 0.1694336, -1.050293, 81.3414688, 100.5487823, 25.5487804, -0.0102388
0.1303711, 0.1367188, -1.0209961, 81.1585388, 100.7926865, 24.8170738, 0.0058747
0.1157227, 0.1318359, -1.0209961, 82.1341476, 100.4878082, 23.5975609, 0.0099031
0.0825195, 0.128418, -1.0527344, 83.1097565, 100.3658524, 23.1707325, 0.0132601
0.0664062, 0.1430664, -1.0722656, 84.6951218, 99.8780518, 23.5365868, 0.0199741
0.0458984, 0.175293, -1.1020508, 85.3658524, 98.9634171, 24.5121956, 0.0159457
0.0439453, 0.1879883, -1.1098633, 85.3658524, 98.0487823, 24.6951218, 0.0132601
0.0566406, 0.2084961, -1.1088867, 84.2073212, 95.6707306, 26.0365868, 0.0078889
0.0742188, 0.2094727, -1.109375, 83.7804871, 95.1219559, 26.8292694, 0.0035248
0.1137695, 0.2006836, -1.1240234, 82.9878082, 95.18293, 27.1341476, 0.0011749
0.1357422, 0.1855469, -1.1269531, 82.5609741, 95.8536606, 26.5243912, -0.0028534
0.1279297, 0.1826172, -1.1118164, 80.9146347, 95.9146347, 24.6951218, -0.005539
0.1220703, 0.1611328, -1.0712891, 80.3658524, 95.18293, 23.780489, -0.0102388
0.1240234, 0.1459961, -1.0395508, 80.2439041, 92.9268341, 23.1707325, -0.0157778
0.1489258, 0.1147461, -0.9916992, 80.8536606, 92.3170776, 22.6829281, -0.0152743
0.1552734, 0.1015625, -0.9780273, 82.3780518, 92.0731735, 22.6829281, -0.0176242
0.1811523, 0.0825195, -0.987793, 84.0243912, 93.1097565, 23.1097565, -0.0176242
0.1865234, 0.0756836, -1.0048828, 84.5731735, 94.2682953, 23.6585369, -0.0236667
0.1879883, 0.0839844, -1.0600586, 85.3658524, 96.0365906, 24.3902435, -0.0263523
0.1845703, 0.09375, -1.0825195, 85.18293, 96.4634171, 24.5731716, -0.026688
0.1538086, 0.1069336, -1.0942383, 84.3902435, 96.3414688, 24.1463413, -0.0283665
0.121582, 0.1064453, -1.0639648, 83.7804871, 95.3658524, 23.7195129, -0.0350805
0.1186523, 0.1015625, -1.0463867, 83.7804871, 91.646347, 24.3292694, -0.0370947
0.144043, 0.0883789, -1.0541992, 84.5731735, 90.1219559, 25.6707325, -0.0394446
0.1689453, 0.0761719, -1.0742188, 86.2195129, 88.6585388, 27.6219521, -0.0350805
0.1977539, 0.0844727, -1.0996094, 86.2195129, 88.8414688, 27.560976, -0.0323949
0.1918945, 0.0942383, -1.0878906, 85.0609741, 88.9634171, 25.6707325, -0.0347448
0.1708984, 0.109375, -1.0332031, 83.4146347, 86.4634171, 25.2439022, -0.0297093
0.1791992, 0.1137695, -1.0170898, 82.9878082, 84.8170776, 25.7926826, -0.0310521
0.2407227, 0.1000977, -1.0395508, 82.5609741, 84.8170776, 27.9878063, -0.0250095
0.2758789, 0.097168, -1.0634766, 81.8902435, 86.2195129, 28.6585369, -0.0246738
0.3144531, 0.0776367, -1.0703125, 79.0243912, 89.0243912, 26.9512196, -0.0246738
0.2822266, 0.0551758, -1.0083008, 77.5, 89.5121994, 24.8780499, -0.01561
0.2543945, 0.0415039, -0.9755859, 76.0975647, 87.5609741, 21.5243912, -0.0082246
0.230957, 0.0131836, -0.9448242, 77.5, 86.0975647, 21.4634151, -0.0008392
0.2490234, 0.0024414, -0.9526367, 81.0975647, 84.2073212, 23.3536587, 0.0018463
0.2856445, -0.0048828, -0.980957, 82.1341476, 84.0853653, 23.9634151, -0.0005035
0.2954102, -0.003418, -0.9892578, 81.4024429, 85.2439041, 23.780489, -0.0023499
0.2939453, 0.0126953, -0.9980469, 80.9146347, 86.9512253, 24.6341476, -0.0052033
0.2929688, 0.0258789, -1.0043945, 81.2195129, 87.2560959, 25.4878063, -0.0045319
0.2983398, 0.0185547, -1.0161133, 81.8902435, 87.3170776, 25.9146347, 0.0018463
0.3007812, -0.0029297, -1.012207, 82.0731735, 86.9512253, 24.6951218, -0.0052033
0.2749023, -0.0581055, -0.9760742, 82.6219559, 85.3658524, 22.1341476, -0.0253452
0.2358398, -0.0673828, -0.9350586, 83.5365906, 83.9024429, 22.0121956, -0.0354162
0.2304688, -0.0566406, -0.934082, 87.6219559, 81.0975647, 24.2682934, -0.0374304
0.2739258, -0.0161133, -0.9770508, 89.5731735, 80.3048782, 26.2195129, -0.0263523
0.3037109, -0.003418, -1.0092773, 90.8536606, 81.1585388, 27.8048782, -0.0146029
0.3222656, 0.0117188, -1.0439453, 88.7804871, 83.1097565, 27.9878063, -0.0015106
0.3251953, 0.0112305, -1.0395508, 87.1951218, 83.5365906, 27.560976, 0.0105745
0.3178711, -0.0317383, -1.0004883, 85.4878082, 81.8292694, 25.6707325, 0.0271916
0.3081055, -0.0512695, -0.9775391, 85.7317123, 80.3048782, 24.5731716, 0.0347448
0.2919922, -0.065918, -0.9453125, 87.8658524, 77.3170776, 24.5121956, 0.0387732
0.2939453, -0.0585938, -0.9399414, 89.3902435, 76.7073212, 24.8170738, 0.0372625
0.3129883, -0.0395508, -0.9389648, 90.9146347, 76.1585388, 25.060976, 0.0280308
0.3374023, -0.0205078, -0.9433594, 90.6097565, 76.4024429, 25.1219521, 0.0146029
0.3569336, -0.0146484, -0.9619141, 88.8414688, 76.2804871, 26.9512196, 0.0018463
0.4145508, -0.0019531, -1.0068359, 87.9268341, 77.0121994, 28.4146347, -0.0085603
0.4404297, 0.0039062, -1.0151367, 83.3536606, 81.0975647, 28.5975609, -0.0209812
0.4189453, -0.0341797, -0.9931641, 77.8658524, 84.3902435, 24.1463413, -0.0229953
0.3833008, -0.0512695, -0.9824219, 76.5243912, 83.8414688, 22.2560978, -0.0273594
0.3339844, -0.0668945, -0.9672852, 77.5, 81.0365906, 22.3170738, -0.0374304
0.3242188, -0.0683594, -0.9619141, 78.8414688, 79.3902435, 22.560976, -0.0381018
0.3193359, -0.078125, -0.9335938, 79.146347, 77.3170776, 20.8536587, -0.0461585
0.3173828, -0.0854492, -0.9038086, 78.8414688, 76.4634171, 20.6707325, -0.0439765
0.3393555, -0.1098633, -0.8339844, 79.5731735, 74.5731735, 21.9512196, -0.0488441
0.4077148, -0.1352539, -0.8603516, 80.6707306, 74.8170776, 23.6585369, -0.0522011
0.4384766, -0.1318359, -0.9057617, 81.5853653, 78.4756088, 26.6463413, -0.0572366
0.4667969, -0.1054688, -0.9785156, 81.1585388, 81.4024429, 27.5, -0.0609293
0.4521484, -0.0927734, -0.9970703, 78.5975647, 85.5487823, 26.3414631, -0.061265
0.3803711, -0.1015625, -0.9946289, 76.5243912, 84.9390259, 22.5, -0.0552224
0.3300781, -0.0996094, -0.9682617, 76.7073212, 82.2560959, 20.9146347, -0.0572366
0.2631836, -0.1000977, -0.902832, 79.2073212, 75.7317123, 20.9756107, -0.0498512
0.2631836, -0.105957, -0.8813477, 80.9146347, 72.6219559, 21.8902435, -0.0471656
0.3154297, -0.1381836, -0.8720703, 83.4146347, 69.6951218, 24.5731716, -0.047837
0.3530273, -0.1616211, -0.8793945, 84.3902435, 69.6341476, 25.7317085, -0.0364233
0.4135742, -0.1918945, -0.8818359, 84.6341476, 70.6707306, 26.7682934, -0.0243381
0.4360352, -0.1938477, -0.8808594, 84.9390259, 70.7317123, 27.1341476, -0.012253
0.4326172, -0.1821289, -0.8798828, 85.4878082, 71.0365906, 27.0731716, -0.0045319
0.418457, -0.1669922, -0.8735352, 86.0365906, 70.5487823, 26.5243912, 0.0038605
0.4057617, -0.1606445, -0.8710938, 87.0731735, 69.4512177, 25.3048782, 0.0072175
0.3950195, -0.1669922, -0.8574219, 88.0487823, 67.3780518, 24.5731716, 0.0125887
0.4042969, -0.1870117, -0.840332, 88.4756088, 66.0365906, 24.1463413, 0.0132601
0.4155273, -0.2192383, -0.8007812, 89.0853653, 63.4146347, 23.4756107, 0.0077211
0.4208984, -0.2226562, -0.7944336, 89.5731735, 62.3780518, 23.9634151, 0.0045319
0.4560547, -0.175293, -0.8359375, 90.1219559, 62.3170738, 27.6219521, -0.0001678
0.484375, -0.1425781, -0.8745117, 89.2682953, 63.9024391, 29.2682934, -0.0015106
0.527832, -0.0996094, -0.9433594, 84.146347, 69.3902435, 28.2926826, 0.0001678
0.5083008, -0.1035156, -0.9277344, 80.6097565, 70.8536606, 26.0365868, -0.0052033
0.4799805, -0.1186523, -0.8920898, 75.3048782, 69.5731735, 21.7682934, -0.0045319
0.4379883, -0.1577148, -0.8251953, 74.2682953, 67.1951218, 20.060976, -0.0082246
0.4360352, -0.1806641, -0.8081055, 74.5731735, 62.8658562, 18.3536587, -0.0184634
0.440918, -0.2109375, -0.8105469, 75.7926865, 61.8902435, 17.9878044, -0.0260166
0.4414062, -0.2202148, -0.8222656, 76.4024429, 62.3780518, 18.2317085, -0.018967
0.4443359, -0.2216797, -0.8427734, 75.9146347, 63.4146347, 19.4512196, -0.0223239
0.4448242, -0.2226562, -0.8427734, 75.18293, 63.6585388, 19.3292694, -0.0152743
0.4262695, -0.2246094, -0.8339844, 73.8414688, 62.1341476, 18.2317085, -0.0149386
0.4165039, -0.2260742, -0.8242188, 73.7195129, 61.0975609, 18.0487804, -0.0345769
0.4033203, -0.2358398, -0.8051758, 75.0609741, 58.7195129, 18.2317085, -0.0599222
0.4140625, -0.2397461, -0.7807617, 75.4878082, 57.3170738, 18.3536587, -0.0780499
0.4208984, -0.2446289, -0.762207, 75.7317123, 54.6341476, 18.5365849, -0.0840925
0.4433594, -0.2666016, -0.7192383, 76.1585388, 53.4146347, 18.3536587, -0.0928206
0.4609375, -0.2836914, -0.7060547, 77.68293, 51.7682953, 19.2682934, -0.0911421
0.4868164, -0.3095703, -0.7026367, 79.7560959, 52.6219521, 20.1829281, -0.0847639
0.487793, -0.309082, -0.7099609, 81.1585388, 53.4756126, 20.4268303, -0.0746929
0.4736328, -0.309082, -0.7387695, 82.5609741, 54.2682953, 21.0975609, -0.0609293
0.4614258, -0.3056641, -0.7553711, 83.1097565, 54.2073174, 21.4024391, -0.04448
0.4379883, -0.2910156, -0.7822266, 83.7195129, 52.3170738, 21.7073174, -0.0297093
0.4223633, -0.2758789, -0.7817383, 84.5121994, 50.8536606, 21.4634151, -0.014435
0.390625, -0.2490234, -0.762207, 84.9390259, 46.8902435, 20.7926826, 0.0025177
0.3852539, -0.2265625, -0.7548828, 84.3292694, 44.5731735, 21.0975609, 0.0075532
0.3984375, -0.2207031, -0.7724609, 83.1097565, 42.4390259, 23.1707325, 0.0015106
0.4575195, -0.2226562, -0.8378906, 81.646347, 42.1951218, 24.5121956, -0.0075532
0.4902344, -0.2275391, -0.8574219, 76.7682953, 44.0243912, 25.6707325, -0.0229953
0.5039062, -0.2382812, -0.8056641, 70.2439041, 43.9634171, 21.8902435, -0.0344091
0.4868164, -0.2382812, -0.7495117, 67.8658524, 41.8902435, 19.5731716, -0.0339055
0.4750977, -0.2260742, -0.6401367, 66.6463394, 36.8902435, 17.3780499, -0.0243381
0.4921875, -0.2255859, -0.6162109, 66.9512177, 35.7317085, 17.8658543, -0.0152743
0.5639648, -0.2446289, -0.6328125, 65.8536606, 38.841465, 18.7195129, -0.0142672
0.6118164, -0.3007812, -0.6660156, 64.1463394, 41.7682953, 18.2926826, -0.0028534
0.6044922, -0.3339844, -0.6708984, 60.0609779, 46.8902435, 15.6097565, 0.0092317
0.5415039, -0.3813477, -0.6655273, 58.9634171, 47.9268303, 13.780488, 0.0105745
0.4960938, -0.3828125, -0.6542969, 59.9390259, 46.7682953, 11.5853662, 0.0119173
0.4101562, -0.3505859, -0.6508789, 61.5243912, 44.6951218, 11.1585369, 0.0119173
0.387207, -0.3266602, -0.6630859, 63.9634171, 40.9146347, 11.7073174, 0.0011749
0.3701172, -0.2939453, -0.6987305, 64.7560959, 39.0243912, 14.2682934, -0.0043641
0.378418, -0.2856445, -0.722168, 63.5975609, 38.2926826, 15.7926836, -0.0099031
0.4106445, -0.3041992, -0.7255859, 60.9756126, 36.4024391, 17.8658543, -0.0223239
0.4233398, -0.3295898, -0.7119141, 59.5731735, 34.7560997, 17.560976, -0.0290379
0.4189453, -0.3730469, -0.6557617, 59.5731735, 31.0975609, 16.4634151, -0.0397803
0.4057617, -0.3911133, -0.5776367, 60.3048782, 28.0487804, 16.0365849, -0.0433051
0.4155273, -0.3842773, -0.5361328, 62.8048782, 23.1097565, 15.9756098, -0.0485084
0.4506836, -0.3603516, -0.4726562, 63.841465, 20.7926826, 16.1585369, -0.0491798
0.4868164, -0.3598633, -0.4570312, 65.4878082, 19.3292694, 18.780489, -0.0506905
0.5756836, -0.378418, -0.484375, 65.9756088, 20.6097565, 20.4878044, -0.0505226
0.6132812, -0.3930664, -0.5097656, 65.7926865, 25.8536587, 22.439024, -0.0525368
0.6206055, -0.4287109, -0.5454102, 64.5731735, 31.0365868, 20.7317085, -0.0538796
0.5927734, -0.4277344, -0.5522461, 63.7804909, 32.1341476, 19.2073174, -0.0520333
0.5205078, -0.3764648, -0.5561523, 63.1097565, 29.3292694, 17.9268303, -0.0562295
0.4946289, -0.340332, -0.5668945, 62.8658562, 27.4390259, 17.6219521, -0.0626078
0.4853516, -0.2797852, -0.6152344, 61.5243912, 24.3292694, 17.5, -0.0726787
0.5019531, -0.2509766, -0.6494141, 59.6341476, 23.780489, 17.3170738, -0.0716716
0.5107422, -0.2495117, -0.6494141, 53.2926826, 23.1097565, 15.9146347, -0.0663005
0.5131836, -0.2792969, -0.612793, 49.6951218, 22.7439022, 14.8170738, -0.0632792
0.5170898, -0.2929688, -0.5864258, 44.3292694, 20.5487804, 12.560976, -0.0673075
0.5219727, -0.3120117, -0.5595703, 42.4390259, 19.0243912, 12.0731707, -0.0649577
0.5366211, -0.3237305, -0.5600586, 40, 17.3780499, 11.4024391, -0.0595865
0.5385742, -0.3515625, -0.5800781, 37.7439041, 17.9878044, 10.060976, -0.0542153
0.5244141, -0.3569336, -0.5859375, 36.2804871, 17.9268303, 9.2073174, -0.0471656
0.4794922, -0.3525391, -0.5830078, 33.6585388, 15.7926836, 8.0487804, -0.043473
0.4594727, -0.3447266, -0.5820312, 32.6829262, 13.7195129, 7.9268293, -0.0384375
0.434082, -0.3442383, -0.5947266, 30.3048782, 9.3902445, 7.6219516, -0.0317235
0.4116211, -0.3706055, -0.6035156, 29.9390259, 7.5, 7.3780489, -0.0256809
0.4038086, -0.3833008, -0.5878906, 28.9634151, 2.8658538, 6.6463418, -0.0193027
0.3881836, -0.3935547, -0.519043, 28.9024391, -0.3658537, 6.3414636, -0.0035248
0.3881836, -0.3984375, -0.4799805, 28.4756107, -6.9512196, 5.7317076, 0.012253
0.4199219, -0.4008789, -0.4257812, 28.9024391, -9.2682924, 6.4024391, 0.0172885
0.4443359, -0.4077148, -0.4208984, 31.0365868, -10.4878054, 8.9024391, 0.017792
0.4921875, -0.4116211, -0.4570312, 31.9512196, -8.1707315, 11.7682934, 0.0112459
0.5107422, -0.4150391, -0.4819336, 31.9512196, -7.0731707, 12.6829271, 0.0152743
0.5180664, -0.4003906, -0.496582, 29.9390259, -6.0365853, 13.1707315, 0.0199741
0.5131836, -0.3867188, -0.4863281, 28.5365868, -6.7073174, 12.560976, 0.0179599
0.4916992, -0.3520508, -0.4370117, 26.0365868, -10.3048782, 11.4024391, 0.0159457
0.5166016, -0.3491211, -0.3955078, 25.060976, -12.1341467, 10.8536587, 0.0075532
0.5332031, -0.3662109, -0.3818359, 23.7195129, -13.5365858, 9.4512196, 0.0028534
0.5673828, -0.4052734, -0.3598633, 22.8658543, -12.9878054, 8.719512, -0.0030213
0.5742188, -0.4243164, -0.362793, 21.5853672, -11.0365858, 7.6829271, -0.0109102
0.5805664, -0.4433594, -0.3779297, 21.280489, -9.9390249, 7.8048782, -0.0135958
0.581543, -0.4443359, -0.3974609, 20.9146347, -7.3780489, 8.719512, -0.0115816
0.5600586, -0.4360352, -0.4589844, 20.060976, -5.7317076, 9.0853662, -0.0109102
0.5327148, -0.4160156, -0.4902344, 19.4512196, -5.4878049, 8.6585369, -0.0132601
0.4785156, -0.3637695, -0.5341797, 17.560976, -6.7682929, 8.0487804, -0.012253
0.4555664, -0.3364258, -0.543457, 16.0365849, -8.2926826, 7.1951222, -0.0152743
0.4130859, -0.296875, -0.5390625, 11.7073174, -12.4390249, 5.7926831, -0.012253
0.4140625, -0.2739258, -0.5112305, 9.1463413, -14.1463413, 5.4878049, -0.0139315
0.434082, -0.2773438, -0.4887695, 4.0243902, -17.1341476, 5.7317076, -0.0097353
0.4853516, -0.3286133, -0.456543, 1.4634147, -18.1707325, 5.1219511, -0.0152743
0.5146484, -0.3662109, -0.4448242, -2.4390244, -18.8414631, 4.6341462, -0.0127565
0.5415039, -0.4365234, -0.4477539, -3.9634147, -18.3536587, 4.2073174, -0.0035248
0.5356445, -0.4511719, -0.4682617, -4.2682929, -17.560976, 3.8414636, 0.0052033
0.5024414, -0.4477539, -0.5180664, -3.7195122, -17.3780499, 4.0243902, 0.0105745
0.4755859, -0.4296875, -0.5429688, -3.7804878, -18.2926826, 3.9634147, 0.0172885
0.4199219, -0.3862305, -0.5332031, -6.5243902, -23.2926826, 2.1341465, 0.0209812
0.3930664, -0.3603516, -0.5004883, -7.9878049, -26.7682934, 1.2195122, 0.0253452
0.378418, -0.3442383, -0.4291992, -9.6951218, -34.0243912, 0.0609756, 0.0283665
0.4301758, -0.3798828, -0.375, -10, -36.7682953, -0.1829268, 0.0337377
0.4599609, -0.4047852, -0.3520508, -10.7926836, -38.5365868, -1.097561, 0.040116
0.519043, -0.4282227, -0.3242188, -11.1585369, -38.0487823, -0.6707317, 0.0407874
0.5517578, -0.4228516, -0.3237305, -12.7439032, -35.6707344, 0.9756098, 0.040116
0.6142578, -0.4086914, -0.3583984, -14.1463413, -31.7073174, 2.195122, 0.040116
0.6293945, -0.4101562, -0.3813477, -14.8780489, -29.5731716, 1.8902439, 0.0585794
0.6152344, -0.4155273, -0.3999023, -16.8292694, -27.3170738, -1.3414634, 0.0884565
0.5888672, -0.4150391, -0.3833008, -17.6829281, -27.6219521, -3.8414636, 0.0918135
0.5205078, -0.3808594, -0.3051758, -19.8170738, -31.0365868, -7.8658538, 0.0817426
0.5019531, -0.3579102, -0.2783203, -20.2439022, -32.3170738, -8.4146347, 0.0565652
0.5361328, -0.3457031, -0.3046875, -21.4024391, -31.6463413, -7.4390244, 0.026688
0.5810547, -0.3725586, -0.3959961, -22.8048782, -29.2073174, -6.8292685, 0.0018463
0.5888672, -0.3896484, -0.4375, -27.0121956, -23.1707325, -6.3414636, -0.0256809
0.5625, -0.3945312, -0.4765625, -29.6341476, -21.2195129, -5.9756098, -0.0407874
0.5341797, -0.3886719, -0.4794922, -35.0609779, -20.1829281, -5.3658538, -0.0454871
0.4755859, -0.3852539, -0.4921875, -39.1463432, -23.780489, -6.8292685, -0.0505226
0.4516602, -0.3847656, -0.4970703, -40.6097565, -26.5243912, -7.0731707, -0.0632792
0.4326172, -0.387207, -0.515625, -42.9878044, -31.1585369, -7.6219516, -0.0850996
0.4272461, -0.3862305, -0.5102539, -43.841465, -32.6219521, -8.2926826, -0.0854353
0.4038086, -0.3740234, -0.4746094, -46.7073174, -36.2195129, -9.3292685, -0.0540475
0.3979492, -0.3706055, -0.4526367, -47.5, -37.8658562, -9.0243902, -0.0381018
0.4213867, -0.375, -0.421875, -49.3292694, -40.3658562, -8.2317076, -0.0345769
0.4521484, -0.4038086, -0.4018555, -49.7560997, -40.5487823, -8.1097565, -0.0357519
0.4663086, -0.4174805, -0.4003906, -50.9756126, -40.6707344, -6.8292685, -0.0464942
0.4824219, -0.4345703, -0.4389648, -51.4024391, -40.7317085, -5.9756098, -0.0595865
0.4946289, -0.4443359, -0.4667969, -51.4634171, -40.5487823, -4.0853658, -0.0726787
0.4804688, -0.4545898, -0.5244141, -51.0975609, -40.7926826, -4.7560978, -0.0775463
0.4487305, -0.4448242, -0.5288086, -51.0975609, -42.2560997, -5.1219511, -0.0740215
0.3803711, -0.4033203, -0.5029297, -51.5243912, -47.1951218, -6.2195125, -0.0773785
0.3583984, -0.375, -0.4912109, -51.2195129, -50.6097565, -6.280488, -0.0767071
0.3583984, -0.3525391, -0.4936523, -50.6097565, -57.0731735, -6.0365853, -0.0762036
0.378418, -0.3569336, -0.5092773, -50.6097565, -58.841465, -5.3658538, -0.0686503
0.425293, -0.3710938, -0.5126953, -51.5243912, -60.6097565, -5.670732, -0.0793927
0.4458008, -0.3789062, -0.4599609, -53.1097565, -61.5853691, -6.3414636, -0.082414
0.4580078, -0.3759766, -0.4277344, -55.3048782, -63.4756126, -7.0731707, -0.0814069
0.4985352, -0.3745117, -0.3847656, -55.5487823, -64.7560959, -7.0121951, -0.0708324
0.5229492, -0.3701172, -0.3852539, -55.6097565, -65.2439041, -7.1341467, -0.0599222
0.5756836, -0.3359375, -0.3999023, -56.4024391, -62.9268303, -7.0731707, -0.0693217
0.6005859, -0.3144531, -0.4150391, -57.5, -60.8536606, -7.1341467, -0.0686503
0.6191406, -0.284668, -0.4584961, -61.5853691, -56.6463432, -8.6585369, -0.0649577
0.6225586, -0.2841797, -0.4794922, -63.9024391, -54.7560997, -9.9390249, -0.0659648
0.5947266, -0.2880859, -0.4926758, -69.2073212, -50.7926826, -14.2073174, -0.057908
0.5703125, -0.2944336, -0.4804688, -71.0975647, -50.1219521, -16.280489, -0.0431373
0.5263672, -0.2944336, -0.453125, -75.0609741, -50.3658562, -19.8170738, -0.0293736
0.4829102, -0.2958984, -0.4682617, -76.1585388, -51.1585388, -20.9756107, -0.0199741
0.4677734, -0.3022461, -0.5078125, -76.3414688, -51.7682953, -19.939024, -0.0132601
0.4492188, -0.3198242, -0.6044922, -76.5853653, -51.341465, -18.1707325, -0.0109102
0.4453125, -0.3378906, -0.6337891, -79.0853653, -50.3048782, -16.4024391, -0.0010071
0.3999023, -0.3730469, -0.6337891, -84.2073212, -52.1341476, -18.2926826, 0.0065461
0.362793, -0.3911133, -0.6137695, -85.9756088, -54.8170738, -19.3292694, 0.0020142
0.2915039, -0.3842773, -0.5898438, -85, -62.8658562, -16.9512196, -0.0008392
0.284668, -0.3696289, -0.5961914, -82.68293, -65.4878082, -14.3292685, -0.0008392
0.3125, -0.3569336, -0.6455078, -80.4878082, -68.1097565, -11.219512, -0.0048676
0.3208008, -0.3662109, -0.6694336, -80.7926865, -68.8414688, -11.219512, -0.008896
0.3095703, -0.3828125, -0.6723633, -81.7682953, -70.8536606, -11.7073174, -0.0097353
0.2954102, -0.3647461, -0.6293945, -81.9512177, -73.3536606, -10.9756098, -0.0198062
0.3046875, -0.3466797, -0.6010742, -80.3658524, -79.3292694, -9.0853662, -0.0307164
0.3486328, -0.3066406, -0.5527344, -79.5731735, -82.3170776, -8.719512, -0.0391089
0.378418, -0.2983398, -0.5356445, -77.8658524, -86.2195129, -8.5365858, -0.0433051
0.4365234, -0.2880859, -0.519043, -76.8902435, -86.4634171, -8.780488, -0.0417945
0.4545898, -0.2939453, -0.5195312, -76.4024429, -85.7317123, -9.0853662, -0.0417945
0.4863281, -0.3242188, -0.5327148, -75.9146347, -82.8048782, -9.5121956, -0.0374304
0.4970703, -0.3408203, -0.5473633, -75.4878082, -82.0731735, -9.6341467, -0.0303807
0.4926758, -0.3564453, -0.5507812, -75.7926865, -80.6097565, -11.0365858, -0.0256809
0.4814453, -0.355957, -0.5463867, -76.2195129, -80.7317123, -12.0121956, -0.0229953
0.4541016, -0.3164062, -0.5439453, -77.5, -80.9146347, -14.0853662, -0.012253
0.4414062, -0.2451172, -0.590332, -77.6219559, -80.8536606, -13.6585369, -0.002182
0.4467773, -0.2158203, -0.6230469, -79.4512177, -79.6951218, -12.4390249, 0.0011749
0.4677734, -0.190918, -0.6894531, -81.0365906, -78.6585388, -12.1951218, 0.0099031
0.4760742, -0.1982422, -0.706543, -86.8902435, -77.0731735, -15.1219511, 0.0068818
0.4570312, -0.2319336, -0.7045898, -93.8414688, -77.0731735, -20.3658543, 0.0062104
0.4311523, -0.2451172, -0.6933594, -96.5853653, -78.5365906, -22.1341476, 0.005539
0.3793945, -0.2548828, -0.6547852, -99.0243912, -82.9268341, -24.3902435, 0.0045319
0.3662109, -0.2480469, -0.652832, -99.146347, -85.3048782, -24.3292694, 0.0031891
0.3813477, -0.2304688, -0.6791992, -100.4268341, -86.4024429, -25.1829281, -0.0001678
0.3833008, -0.1850586, -0.722168, -102.5609818, -85.7926865, -25.3048782, -0.0041962
0.3891602, -0.1845703, -0.753418, -107.5609818, -84.5121994, -24.8780499, -0.002182
0.3754883, -0.2167969, -0.8271484, -109.8780518, -84.5121994, -24.6951218, -0.0031891
0.3608398, -0.2353516, -0.8652344, -114.0853653, -86.0365906, -23.9024391, -0.0075532
0.3076172, -0.2636719, -0.9179688, -115.1219559, -87.8658524, -23.780489, -0.0129244
0.2700195, -0.2583008, -0.9375, -114.7561035, -94.2682953, -23.9634151, -0.018967
0.1923828, -0.21875, -0.9521484, -114.8780518, -102.68293, -24.2073174, -0.0213169
0.1655273, -0.206543, -0.9482422, -115.7926865, -107.1951218, -24.2073174, -0.0263523
0.1494141, -0.2143555, -0.918457, -117.9878082, -116.5243912, -25.3658543, -0.0347448
0.1533203, -0.2226562, -0.8994141, -118.4756088, -120.6097565, -25.8536587, -0.0347448
0.1738281, -0.2167969, -0.8510742, -117.4390259, -126.2804871, -24.5121956, -0.0387732
0.2294922, -0.1743164, -0.8203125, -115.7926865, -127.86586, -22.6219521, -0.0411231
0.2641602, -0.1577148, -0.8291016, -113.5975647, -128.5975647, -18.9634151, -0.0384375
0.3378906, -0.1748047, -0.8793945, -113.2317123, -128.0487823, -17.9268303, -0.0347448
0.3652344, -0.2055664, -0.9042969, -113.7195129, -126.4024429, -18.2926826, -0.0297093
0.3691406, -0.2426758, -0.8823242, -114.5121994, -125.5487823, -20, -0.0216526
0.3505859, -0.2363281, -0.8310547, -116.8292694, -125.4878082, -25, -0.0135958
0.2998047, -0.199707, -0.6904297, -117.0731735, -128.1097565, -28.2317085, -0.0090639
0.2919922, -0.1811523, -0.6455078, -115.3048782, -128.9634247, -27.3170738, -0.0065461
0.3491211, -0.1816406, -0.6259766, -109.7561035, -128.5975647, -23.2926826, -0.0015106
0.3979492, -0.2026367, -0.6430664, -107.8048782, -126.1585388, -21.7073174, 0.0016785
0.4833984, -0.2519531, -0.6591797, -109.0853653, -117.3170776, -22.1341476, 0.0068818
0.4887695, -0.2700195, -0.6391602, -110.8536606, -112.3170776, -23.5365868, 0.0139315
0.4726562, -0.2675781, -0.6264648, -115, -104.2682953, -24.8780499, 0.023331
0.4394531, -0.2709961, -0.6391602, -114.5121994, -101.1585388, -24.8170738, 0.0240024
0.4165039, -0.2768555, -0.6748047, -112.5, -96.7073212, -23.5365868, 0.0159457
0.3642578, -0.2783203, -0.7817383, -111.1585388, -95.18293, -23.7195129, 0.0052033
0.3193359, -0.2753906, -0.8500977, -109.5731735, -92.6219559, -24.8780499, -0.0001678
0.2089844, -0.2456055, -0.9833984, -109.3292694, -91.8902435, -25.7926826, -0.005539
0.1494141, -0.2163086, -1.0273438, -109.3902435, -92.3780518, -25.4268303, -0.0146029
0.0292969, -0.1357422, -1.081543, -111.2195129, -97.1341476, -23.7195129, -0.0216526
-0.0092773, -0.0947266, -1.0878906, -113.0487823, -100.9756088, -22.1951218, -0.0243381
-0.0268555, -0.0322266, -1.0888672, -116.4634171, -108.9024429, -17.9268303, -0.0243381
0.0380859, -0.03125, -1.0966797, -118.0487823, -112.0121994, -15.4268293, -0.0270237
0.0927734, -0.0415039, -1.1010742, -120.9756088, -116.0365906, -11.219512, -0.026688
0.2060547, -0.0654297, -1.0922852, -122.5609818, -116.8292694, -10.4878054, -0.0344091
0.2475586, -0.0717773, -1.0786133, -126.7682953, -117.1341476, -11.341464, -0.0332341
0.2998047, -0.0742188, -1.0566406, -128.4146423, -117.0731735, -12.1341467, -0.0344091
0.3149414, -0.0742188, -1.0566406, -131.1585388, -116.5853653, -14.2682934, -0.036759
0.3027344, -0.0644531, -1.1083984, -132.6219482, -115.9146347, -16.3414631, -0.0374304
0.2802734, -0.0517578, -1.1518555, -133.4756165, -115.18293, -17.6219521, -0.036759
0.2045898, -0.0229492, -1.2324219, -135.8536682, -114.4512253, -19.2682934, -0.0438087
0.159668, 0.0068359, -1.253418, -137.9268341, -114.8170776, -19.8170738, -0.04448
0.0854492, 0.0410156, -1.2055664, -142.9268341, -119.3292694, -20.9146347, -0.0488441
0.0688477, 0.0073242, -1.0336914, -145.7926788, -122.1951218, -21.7073174, -0.0535439
0.0859375, -0.0454102, -0.9169922, -149.6341553, -127.7439041, -24.4512196, -0.0532082
0.1538086, -0.2016602, -0.7514648, -149.0243988, -129.2073212, -24.6951218, -0.0552224
0.2050781, -0.2900391, -0.7148438, -141.9512177, -127.6219559, -22.0731716, -0.0562295
0.309082, -0.4101562, -0.7094727, -136.3414612, -125.3048782, -19.1463413, -0.0528725
0.3486328, -0.4272461, -0.7133789, -125, -119.2682953, -14.6341467, -0.0412909
0.3496094, -0.3764648, -0.7133789, -117.0731735, -114.3292694, -14.8170738, -0.0439765
0.3188477, -0.3251953, -0.7021484, -113.6585388, -112.5609818, -14.8170738, -0.0369268
0.2509766, -0.2021484, -0.7275391, -106.7682953, -110, -12.2560978, -0.0303807
0.2285156, -0.1513672, -0.7700195, -103.5365906, -108.5365906, -9.8780489, -0.0276951
0.206543, -0.081543, -0.9072266, -98.9634171, -105.0609818, -5.4268293, -0.0250095
0.1601562, -0.0507812, -1.0869141, -98.2317123, -102.8048782, -4.2073174, -0.0176242
0.1323242, -0.0380859, -1.15625, -99.2682953, -99.6341476, -2.804878, -0.0072175
0.0634766, -0.0024414, -1.1972656, -100.8536606, -99.7561035, -3.2317073, -0.0015106
0.0249023, 0.0131836, -1.1650391, -104.9390259, -104.2682953, -5.4268293, 0.0038605
-0.0117188, 0.0454102, -1.0356445, -106.4024429, -108.2926865, -6.4024391, 0.0038605
0.0097656, 0.0356445, -0.9775391, -105.4878082, -115.7926865, -7.0731707, 0.0035248
0.1083984, -0.0200195, -0.9355469, -101.1585388, -118.5365906, -5.1829271, 0.0025177
0.1704102, -0.0532227, -0.9594727, -98.8414688, -117.2561035, -4.0853658, 0.0045319
0.2524414, -0.0908203, -1.0908203, -97.1341476, -112.3780518, -3.2926829, -0.0028534
0.253418, -0.0756836, -1.1757812, -97.0731735, -109.3292694, -3.4756098, -0.0025177
0.1992188, 0.0361328, -1.3198242, -100.7926865, -106.5243912, -4.2682929, -0.0041962
0.1049805, 0.1806641, -1.3608398, -104.0853653, -107.7439041, -5.1219511, -0.0065461
0.0629883, 0.2329102, -1.3256836, -113.9024429, -113.7804871, -8.841464, -0.0062104
0.019043, 0.2416992, -1.2084961, -119.3292694, -117.1341476, -11.4024391, -0.0072175
0.0151367, 0.1928711, -1.1552734, -127.0121994, -121.7073212, -16.4634151, -0.0068818
0.0419922, 0.0478516, -1.1391602, -127.68293, -122.2561035, -17.1951218, -0.0085603
0.0639648, -0.0053711, -1.1708984, -126.5243912, -121.646347, -15.4268293, -0.0104067
0.1108398, -0.0258789, -1.2539062, -125.2439041, -121.8292694, -10.8536587, -0.0085603
0.1225586, 0.0166016, -1.2617188, -125.8536606, -122.68293, -9.8780489, -0.0015106
0.1079102, 0.1591797, -1.1660156, -130.7926788, -125.5487823, -12.2560978, -0.0041962
0.0996094, 0.2050781, -1.0761719, -134.0243988, -127.6219559, -13.841464, -0.0031891
0.1347656, 0.1855469, -0.8706055, -137.3170776, -129.6951294, -17.3780499, -0.0112459
0.2290039, 0.0239258, -0.6943359, -137.3780518, -127.9268341, -18.9024391, -0.0206455
0.2680664, -0.0869141, -0.6396484, -133.6585388, -118.6585388, -21.8292694, -0.0196384
0.3056641, -0.269043, -0.6503906, -130.0609741, -112.5, -22.5, -0.0213169
0.2915039, -0.3085938, -0.7182617, -118.8414688, -101.8292694, -18.9024391, -0.0276951
0.2348633, -0.2514648, -0.9194336, -105.9756088, -97.8658524, -12.2560978, -0.0297093
0.175293, -0.1625977, -1.0151367, -100.9146347, -98.0487823, -10.6097565, -0.0337377
0.0092773, 0.0595703, -1.1225586, -96.3414688, -102.4390259, -10.9146347, -0.0438087
-0.0771484, 0.1508789, -1.1254883, -95.9146347, -105.7926865, -12.2560978, -0.0458228
-0.1987305, 0.2294922, -1.0629883, -97.6219559, -112.1341476, -14.5121956, -0.0417945
-0.2109375, 0.215332, -1.0273438, -97.6219559, -114.0853653, -14.2682934, -0.0431373
-0.1674805, 0.1386719, -0.9912109, -94.2073212, -115, -11.1585369, -0.0438087
-0.0488281, 0.0830078, -0.9956055, -90.8536606, -114.3292694, -8.9634151, -0.0438087
0.0141602, 0.0742188, -1.0029297, -85.7926865, -113.4756088, -5.609756, -0.0448157
0.1152344, 0.0952148, -1.0283203, -84.146347, -113.7804871, -4.9390244, -0.0498512
0.1450195, 0.1157227, -1.0478516, -84.3292694, -113.5365906, -5.9146342, -0.0498512
0.1616211, 0.1557617, -1.0834961, -85.4878082, -112.0121994, -7.9268293, -0.0451514
0.1508789, 0.1767578, -1.0976562, -86.0365906, -110.8536606, -9.6951218, -0.04448
0.0883789, 0.2021484, -1.1044922, -87.68293, -109.5731735, -14.7560978, -0.0446479
0.0424805, 0.2021484, -1.112793, -89.2073212, -109.8170776, -17.3780499, -0.0404517
-0.0541992, 0.1958008, -1.1835938, -90.6097565, -112.1341476, -19.6951218, -0.0354162
-0.0927734, 0.1982422, -1.2470703, -90.3658524, -113.7804871, -18.4756107, -0.0270237
-0.1484375, 0.2387695, -1.3994141, -89.6341476, -117.8048782, -14.9390249, -0.0203098
-0.1875, 0.3212891, -1.465332, -90.4268341, -120.7317123, -14.0243902, -0.0209812
-0.2109375, 0.3579102, -1.4375, -96.646347, -128.6585388, -15.7317076, -0.0125887
-0.2275391, 0.3925781, -1.3120117, -101.3414688, -133.2926788, -17.8658543, -0.0078889
-0.2158203, 0.3696289, -1.2485352, -109.2073212, -141.3414612, -20.6707325, -0.0038605
-0.1367188, 0.2573242, -1.1625977, -111.5853653, -144.5121918, -20.7926826, 0.0075532
-0.0888672, 0.1977539, -1.144043, -111.4634171, -143.9024353, -20.1219521, 0.0172885
-0.0161133, 0.125, -1.1132812, -109.8780518, -141.0365906, -19.5121956, 0.0250095
0.0053711, 0.1181641, -1.1000977, -109.146347, -140.4878082, -19.2073174, 0.0317235
0.0126953, 0.1459961, -1.090332, -108.8414688, -141.8902435, -17.5, 0.0320592
0.0102539, 0.1694336, -1.0991211, -109.146347, -142.9878082, -15.6097565, 0.0253452
0.0146484, 0.2172852, -1.1269531, -109.9390259, -143.1707306, -12.8658543, 0.0082246
-0.0214844, 0.2333984, -1.1240234, -110.9146347, -141.8902435, -12.7439032, -0.0085603
-0.0585938, 0.2358398, -1.090332, -113.7195129, -139.5731812, -14.8780489, -0.0384375
-0.1303711, 0.2094727, -0.9526367, -114.6951218, -139.146347, -16.7682934, -0.0721752
-0.1489258, 0.1806641, -0.8623047, -114.2073212, -139.5121918, -18.5975609, -0.0854353
-0.1347656, 0.0942383, -0.7104492, -108.2317123, -138.3536682, -17.8048782, -0.085771
-0.1132812, 0.0512695, -0.6865234, -104.2682953, -136.5243988, -15.8536587, -0.068986
-0.0512695, -0.0083008, -0.7753906, -94.2073212, -128.6585388, -9.7560978, -0.0485084
-0.0302734, -0.0053711, -0.8657227, -89.8170776, -123.9634171, -5.7317076, -0.0218204
-0.0429688, 0.0888672, -1.0483398, -84.3292694, -117.1341476, 0.3658537, 0.0052033
-0.0800781, 0.1713867, -1.1123047, -83.4756088, -115.9146347, 1.5853659, 0.0226596
-0.1791992, 0.3540039, -1.1616211, -85.6097565, -118.1707382, 1.8902439, 0.0360876
-0.2431641, 0.4667969, -1.1108398, -88.3536606, -120.7926865, 1.097561, 0.0419623
-0.2495117, 0.4790039, -1.0620117, -92.9268341, -123.5365906, -2.0121951, 0.0297093
-0.2148438, 0.4208984, -0.9326172, -94.2073212, -122.5609818, -4.390244, 0.0119173
-0.1865234, 0.3710938, -0.8603516, -95.4268341, -116.5243912, -10.2439022, -0.002182
-0.125, 0.2490234, -0.7719727, -94.0243912, -107.3170776, -13.780488, -0.0169528
-0.0957031, 0.1875, -0.7885742, -92.0121994, -102.9878082, -13.4756098, -0.0243381
-0.0498047, 0.0888672, -0.9296875, -86.3414688, -97.2561035, -8.6585369, -0.0337377
-0.0424805, 0.0654297, -1.0322266, -83.4756088, -96.2195129, -5.9756098, -0.0384375
-0.0883789, 0.1196289, -1.2226562, -80.6707306, -97.9268341, -4.2073174, -0.0290379
-0.1557617, 0.1943359, -1.2875977, -81.4634171, -100.6707306, -5.1829271, -0.026688
-0.3188477, 0.3842773, -1.3442383, -85, -109.8780518, -7.5, -0.0290379
-0.440918, 0.5410156, -1.328125, -87.3170776, -115.18293, -7.9878049, -0.0293736
-0.4594727, 0.5917969, -1.300293, -91.4024429, -125, -7.8658538, -0.0339055
-0.4204102, 0.6108398, -1.2236328, -93.1097565, -128.0487823, -8.1707315, -0.0391089
-0.3740234, 0.5839844, -1.1787109, -97.4390259, -129.3292694, -10.5487804, -0.0485084
-0.2636719, 0.4643555, -1.074707, -102.2561035, -125.6707382, -14.5731707, -0.0486763
-0.2099609, 0.394043, -1.0385742, -104.3292694, -123.0487823, -16.280489, -0.0501869
-0.1376953, 0.2402344, -1.0239258, -106.4634171, -119.6951218, -17.7439022, -0.0528725
-0.1196289, 0.1708984, -1.0644531, -106.2195129, -119.2073212, -17.0731716, -0.0438087
-0.1318359, 0.0888672, -1.1577148, -104.9390259, -123.5975647, -15.3658543, -0.0377661
-0.2163086, 0.1367188, -1.1640625, -104.3902435, -127.3780518, -15.1219511, -0.0374304
-0.2758789, 0.1948242, -1.1132812, -104.0243912, -137.1341553, -17.560976, -0.0350805
-0.3793945, 0.3383789, -0.9897461, -103.2317123, -141.9512177, -18.4756107, -0.0340734
-0.4047852, 0.3891602, -0.9545898, -99.6951218, -147.8048859, -18.6585369, -0.0276951
-0.3725586, 0.4174805, -0.9716797, -97.1341476, -148.0487823, -17.3170738, -0.0280308
-0.3339844, 0.4082031, -0.9990234, -92.3780518, -144.2682953, -14.7560978, -0.0384375
-0.2651367, 0.3725586, -1.0175781, -93.0487823, -138.3536682, -15.2439032, -0.0377661
-0.2509766, 0.3569336, -0.984375, -95.6707306, -136.2804871, -16.4024391, -0.0297093
-0.2265625, 0.3276367, -0.8491211, -100.4268341, -134.3902435, -18.780489, -0.0213169
-0.2094727, 0.3076172, -0.7783203, -101.7073212, -133.4756165, -19.0243912, -0.0240024
-0.1552734, 0.2592773, -0.7124023, -99.3292694, -128.1097565, -18.1707325, -0.0256809
-0.1264648, 0.234375, -0.8212891, -96.8292694, -124.146347, -16.8292694, -0.0176242
-0.1342773, 0.2280273, -0.9311523, -90.6707306, -115.6707306, -13.841464, -0.0139315
-0.2231445, 0.2719727, -1.1494141, -88.0487823, -112.9878082, -12.3780489, -0.0162814
-0.2954102, 0.3271484, -1.2246094, -87.1951218, -112.1951218, -11.280488, -0.0140993
-0.4697266, 0.4697266, -1.2265625, -88.5365906, -115.18293, -11.8902445, -0.0166171
-0.5380859, 0.5380859, -1.1635742, -93.9024429, -124.4512253, -14.2682934, -0.0119173
-0.6040039, 0.6088867, -0.9804688, -98.2317123, -131.2804871, -15.7926836, 0.0073854
-0.581543, 0.5996094, -0.8979492, -99.0853653, -130.8536682, -16.2195129, 0.0102388
-0.4765625, 0.4970703, -0.8530273, -98.7195129, -123.3536606, -15.2439032, 0.0072175
-0.4160156, 0.418457, -0.8974609, -97.8048782, -117.1951218, -13.7195129, -0.0041962
-0.3120117, 0.284668, -1.0693359, -97.3170776, -106.8292694, -8.4756098, -0.0139315
-0.284668, 0.262207, -1.1977539, -97.8658524, -104.0243912, -5.7926831, -0.0283665
-0.3017578, 0.3012695, -1.2099609, -101.2195129, -105.9756088, -3.4146342, -0.0391089
-0.3803711, 0.4404297, -1.1235352, -103.9634171, -109.7561035, -4.0853658, -0.0448157
-0.4145508, 0.5131836, -1.043457, -108.5365906, -118.1707382, -7.0121951, -0.0515297
-0.440918, 0.5810547, -0.9033203, -110.3048782, -120.18293, -8.780488, -0.0485084
-0.4243164, 0.5751953, -0.8691406, -110.4878082, -117.5, -10.7926836, -0.0495155
-0.3662109, 0.5039062, -0.8666992, -108.9024429, -107.1951218, -11.4634151, -0.051194
-0.3457031, 0.4555664, -0.8842773, -108.7195129, -101.7682953, -11.4634151, -0.0468299
-0.3457031, 0.3945312, -0.9199219, -109.3902435, -94.5121994, -10.4268293, -0.0419623
-0.3613281, 0.3798828, -0.940918, -109.2682953, -94.0243912, -9.2682924, -0.0417945
-0.4155273, 0.371582, -0.9780273, -108.4146347, -98.1707306, -6.6463418, -0.0391089
-0.472168, 0.3701172, -0.9931641, -107.2561035, -101.7073212, -5.7926831, -0.0271916
-0.5117188, 0.3662109, -0.9936523, -103.7804871, -107.0121994, -7.9268293, -0.021149
-0.6015625, 0.3598633, -0.9658203, -101.0975647, -108.3536606, -10.1829271, -0.012253
-0.6469727, 0.3540039, -0.9458008, -95.0609741, -111.8902435, -12.9268293, -0.0095674
-0.6933594, 0.3427734, -0.9321289, -90.9756088, -114.2073212, -12.6829271, -0.0062104
-0.6904297, 0.3369141, -0.9335938, -81.4024429, -119.6341476, -10.7926836, 0.0193027
-0.6518555, 0.3657227, -0.9643555, -73.0487823, -125.6707382, -7.5, 0.0458228
-0.6137695, 0.3979492, -0.9829102, -69.4512177, -128.1097565, -5.4878049, 0.0522011
-0.5327148, 0.4873047, -1.0039062, -66.6463394, -131.646347, -2.6219513, 0.043473
-0.484375, 0.5317383, -1.0004883, -67.5, -132.1951294, -1.6463414, 0.0280308
-0.4003906, 0.590332, -0.9589844, -72.2560959, -130.3048859, -2.1341465, 0.0109102
-0.3325195, 0.5898438, -0.8925781, -75.7926865, -128.0487823, -3.4756098, 0.0025177
-0.3125, 0.574707, -0.855957, -82.5609741, -121.5243912, -6.3414636, -0.0112459
-0.2954102, 0.5151367, -0.8012695, -85.3658524, -117.86586, -7.9878049, -0.0182956
-0.2954102, 0.480957, -0.7827148, -88.8414688, -109.6951218, -9.6951218, -0.0209812
-0.3085938, 0.4160156, -0.7514648, -89.8780518, -106.1585388, -10.5487804, -0.0251774
-0.3261719, 0.4003906, -0.7431641, -91.1585388, -99.6341476, -10.7926836, -0.0203098
-0.3789062, 0.394043, -0.7587891, -90.9756088, -94.9390259, -10.3658543, -0.0104067
-0.4091797, 0.4018555, -0.7958984, -90.1219559, -92.8048782, -9.2682924, -0.0135958
-0.4716797, 0.4511719, -0.9609375, -86.7682953, -90.3658524, -5.609756, -0.0203098
-0.5112305, 0.4833984, -1.0673828, -84.9390259, -90.9756088, -3.7195122, -0.018967
-0.6054688, 0.5664062, -1.2719727, -83.7195129, -96.5853653, -2.3170731, -0.0129244
-0.7211914, 0.6679688, -1.3530273, -84.6341476, -101.646347, -3.1097562, -0.0109102
-0.7734375, 0.7304688, -1.3232422, -89.2682953, -113.7804871, -7.9268293, 0.0058747
-0.8256836, 0.8154297, -1.1499023, -91.8902435, -120.6097565, -10.6097565, 0.0176242
-0.8144531, 0.8276367, -1.0297852, -96.1585388, -130.1219482, -15.5487804, 0.0152743
-0.7026367, 0.7587891, -0.7900391, -97.4390259, -132.3170776, -17.0731716, 0.0052033
-0.6074219, 0.6870117, -0.7041016, -97.68293, -127.0121994, -18.5975609, -0.0048676
-0.418457, 0.5078125, -0.6162109, -97.68293, -113.4756088, -16.7073174, -0.0203098
-0.3491211, 0.4174805, -0.6269531, -97.8658524, -105.7317123, -15.060976, -0.0374304
-0.2827148, 0.2739258, -0.7163086, -99.3292694, -93.7804871, -10.2439022, -0.0428016
-0.2880859, 0.2397461, -0.7753906, -100.2439041, -90.4878082, -8.0487804, -0.0417945
-0.3686523, 0.2436523, -0.8676758, -100.8536606, -89.3292694, -5.1219511, -0.0485084
-0.5273438, 0.3261719, -0.8813477, -100.6707306, -90.7317123, -5.3048782, -0.0491798
-0.6240234, 0.3808594, -0.8681641, -98.6585388, -94.7561035, -7.6219516, -0.0498512
-0.7871094, 0.5, -0.8134766, -96.9512253, -97.1341476, -8.780488, -0.0543832
-0.8334961, 0.5415039, -0.7895508, -92.3780518, -100.7317123, -9.1463413, -0.0555581
-0.8291016, 0.5888672, -0.769043, -89.9390259, -101.9512253, -7.9878049, -0.0558938
-0.7885742, 0.5957031, -0.7719727, -84.6341476, -102.4390259, -3.9024391, -0.057908
-0.6567383, 0.5800781, -0.8071289, -82.1341476, -101.2804871, -0.4268293, -0.0569009
-0.5893555, 0.5683594, -0.8325195, -82.0121994, -100.4878082, 0.9146342, -0.0522011
-0.4892578, 0.5512695, -0.9135742, -84.8170776, -99.4512253, 1.7073171, -0.0501869
-0.4667969, 0.5410156, -0.956543, -86.8902435, -99.0853653, 1.5853659, -0.0461585
-0.4731445, 0.559082, -1.0078125, -90.18293, -100.0609818, 0.3048781, -0.0421302
-0.5292969, 0.6015625, -0.9912109, -91.4634171, -101.2195129, -1.402439, -0.0397803
-0.5698242, 0.6289062, -0.9609375, -93.9024429, -104.5731735, -5.670732, -0.0424659
-0.6376953, 0.6606445, -0.8803711, -94.9390259, -106.7682953, -7.9268293, -0.0528725
-0.6552734, 0.6582031, -0.8359375, -95.5487823, -109.8170776, -10.3658543, -0.0498512
-0.6347656, 0.6176758, -0.7666016, -93.7804871, -110.6097565, -9.9390249, -0.0424659
-0.6098633, 0.581543, -0.7446289, -92.8658524, -109.8780518, -9.8170738, -0.0350805
-0.5537109, 0.5322266, -0.7294922, -90.7926865, -106.3414688, -9.6951218, -0.0223239
-0.534668, 0.5263672, -0.7314453, -90.3658524, -104.5121994, -9.1463413, -0.0149386
-0.503418, 0.5463867, -0.7504883, -89.7560959, -101.8292694, -7.8048782, -0.0104067
-0.4946289, 0.5708008, -0.7768555, -89.4512253, -100.9146347, -7.1341467, 0.0005035
-0.496582, 0.6176758, -0.847168, -89.8170776, -99.6341476, -5.7317076, 0.0075532
-0.5351562, 0.6459961, -0.8945312, -90.4878082, -99.4512253, -6.2195125, 0.0125887
-0.5693359, 0.6503906, -0.9033203, -93.2926865, -99.5121994, -9.1463413, 0.0206455
-0.6430664, 0.6479492, -0.8681641, -95.2439041, -99.5731735, -11.4024391, 0.0186313
-0.6806641, 0.644043, -0.8408203, -97.9268341, -100.4268341, -15.3048782, 0.0105745
-0.7299805, 0.625, -0.7939453, -97.0731735, -102.3780518, -15.9756098, -0.0112459
-0.7348633, 0.6157227, -0.7944336, -95.8536606, -103.3536606, -14.8780489, -0.0330663
-0.7143555, 0.6103516, -0.8408203, -91.8902435, -105.4268341, -12.0121956, -0.0508583
-0.7011719, 0.609375, -0.871582, -90.8536606, -106.5853653, -10.7926836, -0.0605936
-0.6831055, 0.6069336, -0.8945312, -91.0365906, -108.4146347, -10.2439022, -0.0605936
-0.6850586, 0.6118164, -0.8745117, -92.3780518, -109.0243912, -10.7317076, -0.0528725
-0.690918, 0.6157227, -0.7734375, -96.0365906, -109.7561035, -12.3780489, -0.0540475
-0.6928711, 0.5888672, -0.6401367, -97.4390259, -109.3292694, -13.2317076, -0.0572366
-0.6796875, 0.5664062, -0.5830078, -97.5609741, -107.2561035, -12.9268293, -0.0431373
-0.6542969, 0.5229492, -0.5224609, -96.3414688, -105.1219559, -12.0121956, -0.0350805
-0.640625, 0.5039062, -0.5112305, -93.1707306, -100.0609818, -9.1463413, -0.0350805
-0.6245117, 0.4951172, -0.5161133, -90.3658524, -94.2073212, -5.9756098, -0.0285344
-0.6254883, 0.4941406, -0.527832, -89.2682953, -91.3414688, -4.3292685, -0.0196384
-0.6430664, 0.5097656, -0.5693359, -86.8902435, -86.2195129, -2.6829269, -0.0130922
-0.6630859, 0.5214844, -0.59375, -85.4268341, -84.2073212, -2.2560976, -0.0236667
-0.7045898, 0.5498047, -0.6323242, -82.0121994, -82.0731735, -1.5243902, -0.0317235
-0.7211914, 0.5683594, -0.6450195, -80.3048782, -81.646347, -1.5243902, -0.0280308
-0.730957, 0.6079102, -0.6420898, -78.9024429, -81.2195129, -0.9756098, -0.0307164
-0.7250977, 0.6430664, -0.6088867, -78.5365906, -81.3414688, -1.0365853, -0.0347448
-0.7021484, 0.6513672, -0.6015625, -78.7804871, -80.1219559, -0.8536586, -0.0397803
-0.6704102, 0.6450195, -0.6308594, -78.8414688, -78.4146347, -0.5487805, -0.0283665
-0.6557617, 0.6435547, -0.6621094, -78.2926865, -75.4878082, 0.6097561, -0.0196384
-0.652832, 0.6533203, -0.7250977, -78.5975647, -73.7804871, 0.9146342, -0.0072175
-0.6660156, 0.6635742, -0.7387695, -79.5731735, -73.9024429, 0.3658537, 0.0015106
-0.7016602, 0.6923828, -0.7358398, -81.9512177, -74.5731735, -2.5, -0.0001678
-0.7192383, 0.7036133, -0.7207031, -82.9268341, -74.9390259, -3.5365853, 0.0025177
-0.7426758, 0.7084961, -0.6787109, -84.2682953, -75.6097565, -5.0609756, 0.0048676
-0.7421875, 0.6948242, -0.6660156, -84.2073212, -75.8536606, -5.2439027, 0.0105745
-0.7158203, 0.6689453, -0.6586914, -83.4146347, -75.6097565, -4.8170733, 0.0112459
-0.690918, 0.652832, -0.6679688, -83.2926865, -75.4268341, -4.5731707, 0.0068818
-0.6796875, 0.65625, -0.6777344, -83.0487823, -75, -3.9634147, 0.005539
-0.6650391, 0.6796875, -0.6904297, -83.5975647, -74.4512177, -3.7195122, 0.0052033
-0.6669922, 0.6899414, -0.6943359, -84.6341476, -73.8414688, -4.5731707, 0.0077211
-0.6762695, 0.715332, -0.7075195, -85.9756088, -73.5365906, -5.5487804, -0.0001678
-0.6875, 0.7226562, -0.7128906, -86.3414688, -73.9024429, -6.0365853, -0.0068818
-0.7158203, 0.7133789, -0.7319336, -87.0731735, -75.6707306, -7.0121951, -0.0129244
-0.7304688, 0.6967773, -0.7314453, -87.3780518, -77.1341476, -7.1341467, -0.0149386
-0.7636719, 0.6499023, -0.7290039, -88.0487823, -79.9390259, -8.4146347, -0.0162814
-0.784668, 0.628418, -0.715332, -88.2926865, -81.3414688, -8.9024391, -0.0169528
-0.8217773, 0.5849609, -0.6733398, -87.68293, -84.8170776, -9.3292685, -0.0229953
-0.8295898, 0.5629883, -0.6401367, -86.8292694, -86.4024429, -8.841464, -0.0270237
-0.8300781, 0.5649414, -0.6293945, -83.2926865, -89.0853653, -7.3780489, -0.0297093
-0.8100586, 0.5913086, -0.6088867, -81.4024429, -90.3048782, -6.2195125, -0.0337377
-0.7963867, 0.6103516, -0.5952148, -77.4390259, -91.9512253, -4.3292685, -0.0377661
-0.7485352, 0.6538086, -0.5610352, -75.6097565, -92.5609741, -3.4146342, -0.0394446
-0.7226562, 0.671875, -0.5371094, -75.4268341, -91.7682953, -3.5975611, -0.040116
-0.6787109, 0.6835938, -0.4785156, -75.7317123, -88.8414688, -3.7195122, -0.0387732
-0.6655273, 0.6713867, -0.4458008, -75.9756088, -86.7073212, -3.9024391, -0.0394446
-0.6557617, 0.6254883, -0.3896484, -76.5243912, -81.3414688, -3.6585367, -0.0404517
-0.6552734, 0.597168, -0.3676758, -76.646347, -78.3536606, -3.1707318, -0.0337377
-0.668457, 0.5600586, -0.347168, -75.18293, -71.2195129, -2.0731707, -0.0290379
-0.6992188, 0.5415039, -0.3574219, -74.1463394, -68.1097565, -1.7682927, -0.0243381
-0.7202148, 0.5483398, -0.3676758, -71.2804871, -62.0121956, -0.4878049, -0.0198062
-0.7583008, 0.5883789, -0.4023438, -69.0853653, -59.7560997, 0, -0.0236667
-0.7700195, 0.6225586, -0.4267578, -64.8170776, -56.341465, 0.7317073, -0.0149386
-0.784668, 0.6870117, -0.4853516, -61.8902435, -54.4512215, 1.8292683, -0.0229953
-0.784668, 0.7104492, -0.5102539, -61.0975609, -53.7804909, 2.3170731, -0.0276951
-0.7695312, 0.7368164, -0.5576172, -61.0975609, -51.8902435, 2.195122, -0.0303807
-0.7583008, 0.7416992, -0.5727539, -61.6463432, -51.0365868, 2.0121951, -0.0287022
-0.7490234, 0.7397461, -0.5883789, -63.3536606, -49.6951218, 1.2804878, -0.0297093
-0.7441406, 0.7348633, -0.5947266, -64.3292694, -49.4512215, 0.8536586, -0.0354162
-0.7412109, 0.7299805, -0.5976562, -65.9146347, -49.2073174, -0.3658537, -0.0364233
-0.7407227, 0.7324219, -0.5986328, -66.8292694, -49.3292694, -0.7926829, -0.0109102
-0.7495117, 0.7319336, -0.5947266, -68.0487823, -49.9390259, -1.7073171, 0.0585794
-0.7666016, 0.7265625, -0.5859375, -68.7804871, -50.1219521, -2.0731707, 0.124712
-0.7734375, 0.7216797, -0.5800781, -70.1219559, -50.5487823, -3.0487804, 0.1690242
-0.7885742, 0.7172852, -0.5756836, -70.4878082, -50.8536606, -4.1463413, 0.1770809
-0.7949219, 0.7133789, -0.5717773, -70.18293, -51.341465, -4.5121951, 0.1582818
-0.7954102, 0.7099609, -0.5615234, -69.2682953, -52.3170738, -4.1463413, 0.1163195
-0.7861328, 0.7084961, -0.5541992, -68.7804871, -52.8048782, -4.1463413, 0.0548867
-0.7724609, 0.706543, -0.5366211, -68.6585388, -52.8658562, -5.2439027, 0.0052033
-0.762207, 0.7094727, -0.5292969, -68.5975647, -52.0731735, -6.0975609, -0.0283665
-0.7641602, 0.7158203, -0.53125, -67.1341476, -51.7073174, -7.3170733, -0.0431373
-0.7573242, 0.7373047, -0.5405273, -66.3414612, -51.7682953, -7.0731707, -0.04448
-0.7470703, 0.7397461, -0.5483398, -65.7317123, -52.3170738, -6.6463418, -0.0454871
-0.730957, 0.7319336, -0.5512695, -65.9756088, -52.5, -6.7682929, -0.0814069
-0.7299805, 0.7280273, -0.5361328, -67.5, -52.0731735, -8.1097565, -0.1099413
-0.7299805, 0.7128906, -0.496582, -69.0853653, -50.0609779, -9.8170738, -0.1045701
-0.7358398, 0.7094727, -0.472168, -69.6341476, -49.0853653, -10.4268293, -0.1028916
-0.7363281, 0.6992188, -0.4350586, -69.0243912, -47.0121956, -10.9146347, -0.0961776
-0.7353516, 0.6948242, -0.4233398, -68.2317123, -46.0975609, -10.3658543, -0.0955062
-0.7241211, 0.6801758, -0.4277344, -65.7926865, -44.7560997, -8.6585369, -0.0854353
-0.7036133, 0.6611328, -0.4365234, -64.6341476, -44.5121956, -8.1097565, -0.0673075
-0.7006836, 0.6513672, -0.4404297, -63.3536606, -43.1097565, -7.6829271, -0.0426337
-0.7045898, 0.6206055, -0.4477539, -63.2317085, -42.3170738, -7.8658538, -0.018967
-0.715332, 0.6074219, -0.4487305, -61.8902435, -39.7560997, -8.2317076, -0.002182
-0.7421875, 0.6010742, -0.4443359, -60.9146347, -38.9634171, -7.9268293, 0.0105745
-0.7509766, 0.6069336, -0.440918, -59.3902435, -37.7439041, -7.3170733, -0.0129244
-0.7651367, 0.6142578, -0.4375, -57.68293, -36.8292694, -6.1585369, -0.0263523
-0.7705078, 0.6186523, -0.4370117, -57.0121956, -36.6463432, -5.609756, -0.0384375
-0.7709961, 0.621582, -0.4536133, -54.9390259, -35.6707344, -4.3292685, -0.0543832
-0.7719727, 0.6201172, -0.465332, -53.5365868, -35.3658562, -3.5365853, -0.0592508
-0.769043, 0.6162109, -0.4868164, -51.6463432, -35.4878044, -2.2560976, -0.0716716
-0.7670898, 0.6162109, -0.4946289, -50.7317085, -35.4878044, -1.8902439, -0.0803998
-0.7714844, 0.6196289, -0.4916992, -49.2682953, -35.9756088, -2.195122, -0.0706645
-0.7661133, 0.6425781, -0.4750977, -48.5975609, -36.0365868, -2.195122, -0.061265
-0.7587891, 0.652832, -0.4619141, -47.1341476, -36.341465, -2.2560976, -0.0485084
-0.7314453, 0.6738281, -0.4257812, -46.4024391, -36.5853653, -2.0731707, -0.0404517
-0.7133789, 0.6782227, -0.4086914, -45.4268303, -36.8292694, -1.402439, -0.0340734
-0.6894531, 0.6708984, -0.3896484, -44.8170738, -35.7926826, -1.2804878, -0.0370947
-0.684082, 0.6665039, -0.3842773, -44.3902435, -34.1463432, -1.2195122, -0.0344091
-0.6870117, 0.6586914, -0.3979492, -43.841465, -30.6097565, -0.6097561, -0.0250095
-0.6943359, 0.6586914, -0.4145508, -42.7439041, -29.2073174, 0, -0.018967
-0.7299805, 0.6616211, -0.4487305, -40.9146347, -26.9512196, 0.4878049, -0.0099031
-0.7612305, 0.6733398, -0.4775391, -39.8780479, -26.1585369, 0.6707317, -0.0031891
-0.7685547, 0.6811523, -0.4858398, -38.9024391, -26.7073174, 0.4878049, -0.0043641
-0.7797852, 0.6850586, -0.4892578, -38.4756088, -26.9512196, 0.1829268, -0.0001678
-0.7675781, 0.6855469, -0.4858398, -37.2560997, -28.1097565, 0.0609756, 0.0041962
-0.7348633, 0.6972656, -0.4736328, -36.341465, -28.5365868, 0.0609756, 0.0003357
-0.7143555, 0.7070312, -0.4672852, -35.6097565, -29.6951218, 0.2439024, -0.0085603
-0.6723633, 0.703125, -0.4633789, -36.1585388, -30.3048782, 0.1829268, -0.0135958
-0.6582031, 0.6977539, -0.4614258, -37.0121956, -29.9390259, 0.0609756, -0.0162814
-0.6391602, 0.6777344, -0.4589844, -38.9634171, -27.5, -0.7317073, -0.0223239
-0.6464844, 0.6743164, -0.4638672, -39.7560997, -26.0975609, -1.5243902, -0.0250095
-0.6723633, 0.6821289, -0.4707031, -40.6707344, -24.2073174, -1.5853659, -0.0313878
-0.6987305, 0.6943359, -0.4633789, -40.6097565, -23.5975609, -1.6463414, -0.0323949
-0.7060547, 0.6982422, -0.4599609, -40.3658562, -23.9024391, -1.7073171, -0.0250095
-0.7089844, 0.6962891, -0.456543, -39.9390259, -23.9024391, -2.195122, -0.0290379
-0.7060547, 0.6884766, -0.4545898, -39.5121956, -24.3902435, -2.5, -0.018967
-0.6899414, 0.6699219, -0.4545898, -39.0243912, -24.6951218, -2.7439024, -0.0095674
-0.6875, 0.6674805, -0.4511719, -37.9268303, -24.6951218, -2.6829269, -0.0149386
-0.684082, 0.659668, -0.4423828, -38.2926826, -25.060976, -2.6219513, -0.0095674
-0.6831055, 0.6523438, -0.4335938, -38.1097565, -25, -2.6829269, 0.0058747
-0.6894531, 0.6381836, -0.4208984, -38.4146347, -24.0243912, -2.804878, 0.0206455
-0.6972656, 0.6362305, -0.4160156, -38.2317085, -23.5975609, -3.1097562, 0.0340734
-0.7177734, 0.6313477, -0.4165039, -36.7073174, -23.0487804, -2.4390244, 0.0569009
-0.7294922, 0.640625, -0.4335938, -35.1829262, -23.2926826, -2.0121951, 0.1005417
-0.7368164, 0.6474609, -0.4423828, -33.3536606, -23.9634151, -0.6707317, 0.1260548
-0.7363281, 0.6430664, -0.4404297, -32.9268303, -24.2073174, -0.6097561, 0.1750668
-0.7363281, 0.6425781, -0.4301758, -32.8658562, -24.8780499, -0.5487805, 0.1891661
-0.734375, 0.6430664, -0.3867188, -32.3170738, -23.7195129, -1.402439, 0.1616388
-0.7353516, 0.6445312, -0.3666992, -31.8902454, -23.1097565, -1.5853659, 0.1173266
-0.7172852, 0.6630859, -0.3515625, -29.3292694, -22.5, -0.6707317, 0.0921492
-0.703125, 0.6689453, -0.3579102, -27.8048782, -22.2560978, 0.1829268, 0.0904707
-0.6826172, 0.6791992, -0.390625, -25.9756107, -21.8292694, 1.6463414, 0.0730144
-0.6796875, 0.6757812, -0.4033203, -26.0975609, -20.9756107, 2.1341465, 0.0488441
-0.6870117, 0.6542969, -0.4077148, -27.0121956, -18.2317085, 1.7682927, 0.0035248
-0.7192383, 0.6499023, -0.3945312, -27.3780499, -16.6463413, 1.402439, -0.0840925
-0.7397461, 0.6533203, -0.3886719, -26.7682934, -14.6341467, 1.1585366, -0.1532464
-0.7675781, 0.6738281, -0.3828125, -25.4268303, -14.4512196, 1.402439, -0.1868162
-0.7636719, 0.6787109, -0.387207, -22.439024, -15.8536587, 2.804878, -0.1952087
-0.7568359, 0.6660156, -0.4057617, -19.8780499, -16.8902435, 3.8414636, -0.1841306
-0.746582, 0.6630859, -0.418457, -19.2073174, -16.4024391, 4.0243902, -0.1601282
-0.730957, 0.6518555, -0.4365234, -18.1097565, -15.4268293, 4.0853658, -0.1559319
-0.7250977, 0.6572266, -0.4365234, -17.5, -14.9390249, 4.0853658, -0.1475395
-0.7119141, 0.6777344, -0.4238281, -16.8902435, -15.3048782, 4.0243902, -0.1190051
-0.7055664, 0.6894531, -0.40625, -16.8902435, -15.3658543, 3.9634147, -0.1049058
-0.6845703, 0.6982422, -0.3754883, -17.1341476, -15.3658543, 3.2317073, -0.0903029
-0.6694336, 0.6938477, -0.3520508, -17.0731716, -14.5121956, 2.6219513, -0.0773785
-0.6611328, 0.6977539, -0.3496094, -16.5853653, -11.341464, 2.0731707, -0.0757
-0.6601562, 0.7001953, -0.3505859, -16.0975609, -10.1829271, 2.195122, -0.0741894
-0.6601562, 0.7041016, -0.3554688, -15.4878054, -7.6219516, 2.7439024, -0.0820783
-0.6674805, 0.7036133, -0.3632812, -15.7317076, -5.9146342, 3.1707318, -0.0924849
-0.6708984, 0.6992188, -0.3642578, -16.0365849, -4.6341462, 2.9878049, -0.1003738
-0.6835938, 0.6938477, -0.3886719, -15.2439032, -2.7439024, 2.3780489, -0.1032273
-0.6982422, 0.6958008, -0.4008789, -14.6951227, -2.0121951, 2.3170731, -0.1183337
-0.7319336, 0.7026367, -0.4189453, -13.1097565, -2.195122, 2.804878, -0.1284047
-0.7392578, 0.7060547, -0.4277344, -12.7439032, -2.6219513, 2.9878049, -0.1230335
-0.7441406, 0.6918945, -0.4213867, -13.1707315, -2.7439024, 2.9878049, -0.0887922
-0.7480469, 0.6674805, -0.4125977, -13.1707315, -2.0121951, 2.804878, -0.0379339
-0.7490234, 0.6557617, -0.4111328, -11.8902445, -1.2195122, 2.4390244, -0.0377661
-0.7451172, 0.6513672, -0.4111328, -10.8536587, -1.6463414, 2.9268293, -0.0777142
-0.737793, 0.6513672, -0.418457, -8.9634151, -2.804878, 4.2073174, -0.103563
-0.7241211, 0.65625, -0.4243164, -7.9268293, -3.4756098, 5.0609756, -0.1398184
-0.7197266, 0.6538086, -0.4228516, -8.1707315, -3.4146342, 4.8780489, -0.1592889
-0.7236328, 0.652832, -0.4174805, -7.8658538, -1.6463414, 4.0243902, -0.1468681
-0.7368164, 0.6518555, -0.4155273, -7.6829271, -1.2804878, 4.2073174, -0.1169909
-0.7626953, 0.6484375, -0.4257812, -5.4268293, -2.3780489, 5.3658538, -0.0780499
-0.7631836, 0.6401367, -0.4272461, -4.1463413, -3.6585367, 6.280488, -0.0305486
-0.7705078, 0.637207, -0.4257812, -2.0731707, -5.7926831, 7.3170733, 0.0072175
-0.7763672, 0.6362305, -0.4155273, -1.3414634, -5.8536587, 7.5609756, 0.0280308
-0.7802734, 0.6386719, -0.4038086, -0.4268293, -5.3048782, 7.1341467, 0.0387732
-0.7871094, 0.6499023, -0.3818359, 0.2439024, -4.9390244, 7.0121951, 0.0414588
-0.784668, 0.6582031, -0.3730469, 2.8658538, -4.7560978, 8.1707315, 0.0354162
-0.7636719, 0.6699219, -0.3691406, 5.4878049, -5.1829271, 9.6951218, 0.0260166
-0.753418, 0.675293, -0.3710938, 6.5243902, -5, 10.1829271, -0.0025177
-0.734375, 0.6762695, -0.387207, 8.1707315, -3.5365853, 10.7926836, -0.0182956
-0.7314453, 0.6801758, -0.3945312, 8.780488, -2.4390244, 10.6097565, -0.0250095
-0.7260742, 0.6855469, -0.4008789, 10, -1.2804878, 10.3048782, -0.023331
-0.7260742, 0.6870117, -0.4047852, 10.9756098, -0.7317073, 10.3658543, -0.012253
-0.7211914, 0.6967773, -0.4033203, 13.2317076, 0.1219512, 9.5731707, -0.0062104
-0.7119141, 0.7016602, -0.4086914, 14.3902445, 0.6097561, 9.4512196, -0.005539
-0.7070312, 0.7041016, -0.40625, 15.9756098, 1.3414634, 9.3292685, -0.0030213
-0.6923828, 0.7055664, -0.3950195, 16.8902435, 1.6463414, 9.4512196, 0.0045319
-0.6826172, 0.7084961, -0.3862305, 18.3536587, 3.7804878, 9.4512196, 0.0092317
-0.6689453, 0.7094727, -0.3686523, 18.9634151, 6.0365853, 9.3902445, 0.0072175
-0.6630859, 0.7143555, -0.3579102, 19.1463413, 7.3780489, 9.2682924, -0.0028534
-0.6640625, 0.7163086, -0.3657227, 19.2682934, 10.9146347, 9.3292685, -0.0172885
-0.6733398, 0.715332, -0.3764648, 19.2073174, 12.560976, 9.6341467, -0.0256809
-0.6933594, 0.7070312, -0.4204102, 19.2073174, 16.4634151, 10.4878054, -0.0250095
-0.7070312, 0.6967773, -0.4462891, 19.2682934, 18.1097565, 10.7317076, -0.0337377
-0.7382812, 0.6943359, -0.4804688, 19.6951218, 19.6951218, 10.7317076, -0.0461585
-0.7695312, 0.6933594, -0.484375, 19.939024, 19.8170738, 10.5487804, -0.0599222
-0.7797852, 0.6928711, -0.484375, 21.1585369, 18.0487804, 10, -0.0716716
-0.7763672, 0.6918945, -0.4858398, 21.7073174, 16.4024391, 9.9390249, -0.0726787
-0.7646484, 0.6879883, -0.4833984, 22.8658543, 13.780488, 10.1829271, -0.0820783
-0.7373047, 0.6674805, -0.4575195, 22.560976, 13.5365858, 10.1829271, -0.0773785
-0.7250977, 0.6577148, -0.440918, 21.8902435, 14.8780489, 10.1219511, -0.0683146
-0.7163086, 0.6401367, -0.4155273, 21.5853672, 18.780489, 10.1829271, -0.0605936
-0.7089844, 0.6352539, -0.4111328, 22.3780499, 20.1829281, 10.6097565, -0.0532082
-0.7080078, 0.6323242, -0.4238281, 24.8170738, 21.4024391, 12.4390249, -0.0428016
-0.703125, 0.6333008, -0.4399414, 26.1585369, 21.2195129, 13.2317076, -0.0303807
-0.703125, 0.6323242, -0.4453125, 27.3780499, 20.6097565, 13.780488, -0.0250095
-0.7128906, 0.6259766, -0.4472656, 27.4390259, 21.2195129, 13.2926836, -0.0169528
-0.7241211, 0.6313477, -0.4516602, 28.780489, 23.5365868, 12.1951218, -0.008896
-0.7416992, 0.6606445, -0.4604492, 29.6341476, 24.8780499, 11.8902445, -0.0085603
-0.7456055, 0.6708984, -0.4599609, 31.8292694, 26.1585369, 13.1707315, -0.0048676
-0.7285156, 0.6948242, -0.4770508, 33.0487823, 26.4024391, 14.6951227, 0.0005035
-0.7202148, 0.6953125, -0.4868164, 32.9878044, 27.0121956, 14.4512196, 0.0152743
-0.7045898, 0.6850586, -0.487793, 32.0121956, 29.5731716, 14.2682934, 0.036759
-0.7016602, 0.6782227, -0.4858398, 31.5243912, 30.9756107, 13.9634151, 0.0595865
-0.7021484, 0.6762695, -0.4716797, 31.4634151, 33.1707306, 13.5365858, 0.0641184
-0.7011719, 0.6791992, -0.4526367, 31.5243912, 33.7804871, 13.5365858, 0.0733501
-0.6962891, 0.6831055, -0.449707, 32.6219521, 35.0609779, 13.841464, 0.0787213
-0.6899414, 0.6884766, -0.4648438, 33.4146347, 35.9146347, 14.3902445, 0.0871138
-0.6884766, 0.6884766, -0.4794922, 34.9390259, 37.5609779, 15.4268293, 0.0938277
-0.6899414, 0.6884766, -0.5141602, 35.2439041, 38.4146347, 15.7926836, 0.0956741
-0.6923828, 0.6879883, -0.5268555, 35.7926826, 40.0609779, 16.1585369, 0.0991989
-0.7045898, 0.6806641, -0.5263672, 35.7317085, 41.2804871, 15.3658543, 0.0931563
-0.7236328, 0.6772461, -0.5131836, 35.8536606, 41.8902435, 14.6951227, 0.079057
-0.7475586, 0.6811523, -0.4863281, 37.2560997, 42.5609779, 14.0243902, 0.0605936
-0.7548828, 0.6894531, -0.4790039, 38.2317085, 43.2317085, 14.0853662, 0.0397803
-0.7539062, 0.6870117, -0.4814453, 41.2804871, 45.0609779, 15.2439032, 0.0226596
-0.7421875, 0.6743164, -0.487793, 42.3170738, 45.7317085, 16.4024391, 0.0078889
-0.7299805, 0.671875, -0.4858398, 44.0243912, 46.7073174, 17.6219521, 0.0073854
-0.7094727, 0.659668, -0.4916992, 44.2682953, 47.1951218, 17.8048782, 0.0092317
-0.6948242, 0.6552734, -0.4990234, 45.6097565, 48.841465, 17.9878044, 0.0048676
-0.6845703, 0.6445312, -0.5249023, 46.8292694, 49.6951218, 18.3536587, -0.0397803
-0.6845703, 0.6450195, -0.5317383, 49.3902435, 51.1585388, 18.0487804, -0.0755322
-0.6889648, 0.6723633, -0.5209961, 51.4024391, 52.0121956, 17.0121956, -0.0847639
-0.6865234, 0.6933594, -0.5073242, 51.9512215, 52.1951218, 16.7682934, -0.0864424
-0.6914062, 0.7094727, -0.5068359, 53.7195129, 53.2317085, 16.5243912, -0.0686503
-0.6875, 0.7036133, -0.5249023, 54.6341476, 53.841465, 17.1341476, -0.01561
-0.6738281, 0.6787109, -0.5727539, 56.7073174, 54.5121956, 18.9024391, 0.0313878
-0.6674805, 0.6630859, -0.6074219, 57.5609779, 54.3292694, 19.1463413, 0.0713359
-0.675293, 0.6611328, -0.6147461, 57.5609779, 53.5975609, 18.9634151, 0.1136339
-0.7011719, 0.6572266, -0.5932617, 57.1951218, 53.6585388, 18.6585369, 0.148043
-0.7128906, 0.6586914, -0.581543, 57.3780518, 53.6585388, 17.5, 0.2213931
-0.7299805, 0.6552734, -0.5595703, 57.8048782, 53.7195129, 17.5, 0.2183719
-0.7329102, 0.6557617, -0.5615234, 60.3048782, 53.7804909, 19.0243912, 0.1498894
-0.7241211, 0.6450195, -0.5893555, 62.68293, 54.8780518, 20.7317085, 0.0683146
-0.7148438, 0.6455078, -0.6044922, 63.9634171, 56.1585388, 21.280489, -0.0473335
-0.7143555, 0.6538086, -0.6245117, 64.9390259, 57.9268303, 21.7073174, -0.1324331
-0.7143555, 0.6621094, -0.621582, 64.8780518, 58.7195129, 21.5853672, -0.1754025
-0.7128906, 0.6875, -0.5957031, 65.3048782, 60.0609779, 21.3414631, -0.193698
-0.6972656, 0.6972656, -0.5727539, 65.4268341, 61.0365868, 21.0365868, -0.1804379
-0.6894531, 0.7070312, -0.5620117, 66.5243912, 63.9634171, 21.2195129, -0.1527428
-0.6577148, 0.7275391, -0.5571289, 67.1341476, 65.6097565, 21.280489, -0.1230335
-0.6484375, 0.7333984, -0.5615234, 68.2926865, 69.3902435, 21.2195129, -0.0928206
-0.6318359, 0.7275391, -0.5952148, 68.4756088, 71.5853653, 21.5243912, -0.064622
-0.6333008, 0.7192383, -0.6245117, 67.9878082, 74.5731735, 20.9146347, -0.043473
-0.6464844, 0.6928711, -0.6894531, 67.9878082, 77.0121994, 20.7317085, -0.0216526
-0.6630859, 0.6821289, -0.7124023, 67.9878082, 77.5, 20.4878044, -0.0182956
-0.7060547, 0.6748047, -0.715332, 67.1341476, 77.7439041, 18.9634151, -0.0142672
-0.7338867, 0.6835938, -0.6928711, 67.1951218, 77.3170776, 17.9268303, -0.0152743
-0.7583008, 0.7158203, -0.6357422, 67.8048782, 76.5853653, 16.8902435, -0.0179599
-0.7304688, 0.7358398, -0.6088867, 68.7195129, 76.8902435, 17.3170738, -0.0129244
-0.7094727, 0.7426758, -0.6176758, 71.5243912, 79.146347, 18.780489, -0.0135958
-0.6582031, 0.722168, -0.684082, 72.3780518, 80.7926865, 19.7560978, -0.0399481
-0.6362305, 0.7055664, -0.7241211, 72.1341476, 85.4268341, 20.7926826, -0.0451514
-0.6196289, 0.6914062, -0.7724609, 70.8536606, 87.0731735, 20.1829281, -0.0433051
-0.6313477, 0.6977539, -0.7768555, 68.2926865, 89.3292694, 18.9634151, -0.0297093
-0.6621094, 0.7197266, -0.7631836, 66.2195129, 89.2073212, 17.6829281, -0.0129244
-0.6738281, 0.722168, -0.7495117, 66.0365906, 88.7804871, 17.2560978, 0.0075532
-0.690918, 0.7172852, -0.7451172, 66.3414612, 89.0853653, 16.7073174, 0.0246738
-0.6899414, 0.7128906, -0.7451172, 66.6463394, 90, 16.6463413, 0.0562295
-0.6904297, 0.703125, -0.7402344, 67.0121994, 91.8902435, 16.5243912, 0.072343
-0.6860352, 0.6958008, -0.7167969, 66.9512177, 92.5, 16.3414631, 0.0716716
-0.6791992, 0.690918, -0.7109375, 67.2560959, 94.3292694, 16.2195129, 0.0575723
-0.6601562, 0.6728516, -0.7148438, 67.6219559, 95.18293, 16.1585369, 0.0386053
-0.6547852, 0.6679688, -0.7197266, 69.2073212, 98.2926865, 16.4634151, 0.0213169
-0.6445312, 0.6708984, -0.7250977, 71.2804871, 101.8292694, 17.1951218, 0.0115816
-0.6376953, 0.6743164, -0.7324219, 72.0731735, 103.7804871, 17.3170738, 0.0045319
-0.6293945, 0.6933594, -0.7783203, 72.7439041, 106.7682953, 17.439024, -0.0068818
-0.6015625, 0.6860352, -0.8334961, 72.1951218, 108.9024429, 17.0121956, -0.0179599
-0.5942383, 0.7080078, -0.8530273, 67.3170776, 114.8780518, 14.4512196, -0.0297093
-0.6474609, 0.7041016, -0.7827148, 64.2682953, 111.8292694, 14.0243902, -0.0438087
-0.6845703, 0.6333008, -0.7548828, 63.2317085, 105.2439041, 16.0365849, -0.0599222
-0.6953125, 0.6181641, -0.7563477, 65.3048782, 104.7561035, 15.9756098, -0.0797284
-0.6938477, 0.6254883, -0.765625, 69.8780518, 105.1219559, 15.7317076, -0.0943313
-0.6962891, 0.6611328, -0.7802734, 71.7682953, 105.0609818, 15.6707325, -0.1055772
-0.6884766, 0.675293, -0.7827148, 72.5609741, 105, 16.3414631, -0.1136339
-0.6542969, 0.6777344, -0.7963867, 71.5243912, 105.4878082, 17.7439022, -0.1176623
-0.6318359, 0.6635742, -0.809082, 70.9146347, 106.5853653, 18.2926826, -0.1129625
-0.6088867, 0.6269531, -0.8457031, 71.2804871, 109.0243912, 19.1463413, -0.110277
-0.609375, 0.6118164, -0.8583984, 71.4024429, 109.2682953, 19.0853672, -0.1055772
-0.6196289, 0.5957031, -0.8500977, 71.4634171, 108.4756088, 19.5731716, -0.100206
-0.6259766, 0.5986328, -0.8276367, 71.0975647, 107.3170776, 18.9024391, -0.0887922
-0.6342773, 0.6123047, -0.7636719, 70.9756088, 105.6707306, 17.9878044, -0.0528725
-0.625, 0.6254883, -0.75, 71.6463394, 105.3048782, 18.2926826, -0.0223239
-0.5981445, 0.6191406, -0.7700195, 74.6341476, 106.7682953, 20.3658543, -0.0001678
-0.5507812, 0.6035156, -0.8510742, 76.0365906, 108.2926865, 21.4024391, 0.0112459
-0.543457, 0.6005859, -0.8911133, 77.0731735, 112.5, 22.3780499, 0.0166171
-0.5649414, 0.6035156, -0.9360352, 76.0975647, 114.6951218, 21.3414631, 0.0199741
-0.590332, 0.6162109, -0.9335938, 75.7317123, 113.8414688, 20.9756107, 0.0213169
-0.6235352, 0.6542969, -0.8969727, 75.3048782, 110.7317123, 20.8536587, 0.0112459
-0.6303711, 0.6713867, -0.8779297, 75.3048782, 109.0243912, 20.9146347, 0.0068818
-0.5996094, 0.6738281, -0.8671875, 75.4878082, 107.3780518, 20.7926826, -0.0229953
-0.5776367, 0.6508789, -0.8710938, 75.2439041, 107.8658524, 20.5487804, -0.0666361
-0.5390625, 0.609375, -0.8754883, 74.2682953, 110.2439041, 20.1219521, -0.0439765
-0.5249023, 0.5708008, -0.8623047, 74.2682953, 111.0975647, 20.060976, -0.0072175
-0.5224609, 0.5600586, -0.8535156, 75.3658524, 111.4024429, 20, 0.0285344
-0.5244141, 0.5644531, -0.8520508, 76.0975647, 110.9756088, 19.8170738, 0.0528725
-0.527832, 0.578125, -0.855957, 77.3780518, 111.4024429, 19.4512196, 0.0377661
-0.5253906, 0.6098633, -0.8837891, 79.0853653, 112.7439041, 20.7317085, 0.0290379
-0.5234375, 0.6206055, -0.8994141, 79.3292694, 113.5365906, 21.4024391, 0.0280308
-0.5102539, 0.612793, -0.9223633, 78.1097565, 114.8780518, 21.9512196, 0.0260166
-0.5112305, 0.5932617, -0.921875, 77.0121994, 114.8170776, 21.5243912, 0.0236667
-0.5371094, 0.5541992, -0.9067383, 76.7073212, 114.3902435, 20.3658543, 0.0246738
-0.5473633, 0.5405273, -0.9013672, 77.4390259, 113.7804871, 20.3048782, 0.0317235
-0.5493164, 0.5532227, -0.9018555, 79.4512177, 112.0121994, 22.3170738, 0.0119173
-0.5170898, 0.5634766, -0.9160156, 79.9390259, 111.4024429, 23.5365868, -0.0592508
-0.4985352, 0.5585938, -0.9272461, 79.7560959, 111.646347, 24.2073174, -0.0955062
-0.4873047, 0.546875, -0.9418945, 79.0853653, 111.646347, 24.0243912, -0.1077592
-0.4902344, 0.5415039, -0.9511719, 78.9634171, 112.5609818, 24.5731716, -0.1106126
-0.4892578, 0.5522461, -0.956543, 78.7804871, 112.3170776, 25.1829281, -0.0981918
-0.4873047, 0.5571289, -0.9589844, 79.0243912, 111.7682953, 25.4268303, -0.082414
-0.480957, 0.5668945, -0.9487305, 78.7195129, 110.4878082, 25.2439022, -0.068986
-0.4760742, 0.5737305, -0.9370117, 78.4756088, 110.18293, 25.060976, -0.0619364
-0.4638672, 0.5698242, -0.9335938, 78.7804871, 109.5121994, 24.2682934, -0.057908
-0.4506836, 0.5581055, -0.9443359, 79.2682953, 109.0853653, 24.2073174, -0.0518654
-0.4355469, 0.5263672, -0.9716797, 80.18293, 109.5121994, 23.780489, -0.0585794
-0.4448242, 0.5126953, -0.9868164, 80.6097565, 109.2073212, 23.4146347, -0.0746929
-0.4604492, 0.5175781, -0.9873047, 81.646347, 107.2561035, 23.1097565, -0.0867781
-0.4819336, 0.5302734, -0.980957, 82.5609741, 105.5487823, 22.5, -0.0997024
-0.4838867, 0.5454102, -0.9707031, 84.2682953, 102.5, 22.0731716, -0.0976883
-0.4697266, 0.5634766, -0.9433594, 85.1219559, 100.6097565, 22.0731716, -0.0881209
-0.449707, 0.5708008, -0.9257812, 85.1219559, 100.6707306, 21.9512196, -0.064622
-0.3955078, 0.5644531, -0.9165039, 85.3658524, 101.7682953, 22.3780499, -0.0391089
-0.3671875, 0.5405273, -0.9223633, 85.8536606, 102.8048782, 22.8658543, -0.0146029
-0.3300781, 0.4814453, -0.972168, 85.6707306, 105.9146347, 22.5, 0.0011749
-0.3334961, 0.472168, -0.987793, 85.4878082, 107.5, 22.0731716, 0.0112459
-0.3803711, 0.4863281, -0.987793, 85.8536606, 108.9024429, 20.9146347, 0.0223239
-0.4291992, 0.5449219, -0.9897461, 86.3414688, 108.5975647, 20.8536587, 0.0287022
-0.434082, 0.5751953, -1.0039062, 86.8902435, 107.3780518, 22.1341476, 0.0182956
-0.4106445, 0.6035156, -1.0454102, 86.4634171, 106.8902435, 22.8048782, -0.0028534
-0.3964844, 0.59375, -1.0556641, 84.2073212, 108.2926865, 22.9878063, -0.0276951
-0.3867188, 0.5429688, -1.0537109, 81.8902435, 109.5121994, 21.280489, -0.0384375
-0.3969727, 0.515625, -1.0371094, 80.9756088, 109.0853653, 20.6097565, -0.0404517
-0.4165039, 0.4741211, -1.0117188, 81.8902435, 106.7682953, 20.8536587, -0.0431373
-0.4160156, 0.4692383, -1.0009766, 83.1707306, 105.8536606, 20.6707325, -0.0384375
-0.4169922, 0.4804688, -0.9868164, 84.8170776, 104.3902435, 20.9146347, -0.0377661
-0.4072266, 0.5039062, -0.9951172, 85.7317123, 104.5121994, 21.0975609, -0.0337377
-0.394043, 0.5131836, -1.0078125, 86.0975647, 105.4268341, 22.5, -0.0283665
-0.3564453, 0.5058594, -1.0400391, 85.8536606, 106.5243912, 23.2317085, -0.0213169
-0.3447266, 0.4902344, -1.046875, 84.2073212, 108.0487823, 23.6585369, -0.0095674
-0.3618164, 0.4536133, -1.027832, 83.2926865, 108.2926865, 23.0487804, 0.0075532
-0.3769531, 0.4428711, -1.0053711, 83.6585388, 106.5853653, 22.0121956, 0.0182956
-0.3930664, 0.4306641, -0.9760742, 85.9146347, 103.2926865, 21.8292694, 0.033402
-0.3818359, 0.4316406, -0.9726562, 87.6219559, 102.1951218, 22.3780499, 0.0099031
-0.3510742, 0.4384766, -0.9887695, 89.7560959, 102.3170776, 22.8658543, -0.0256809
-0.3339844, 0.4433594, -1.0058594, 90, 103.1097565, 23.4146347, -0.036759
-0.3129883, 0.4526367, -1.0400391, 89.5731735, 104.8780518, 24.6341476, -0.0384375
-0.2905273, 0.4663086, -1.0610352, 88.8414688, 105.5487823, 25.1219521, -0.01561
-0.2871094, 0.4702148, -1.0644531, 87.5609741, 106.0975647, 25.060976, 0.0374304
-0.2875977, 0.4697266, -1.059082, 86.7073212, 105.7317123, 24.5731716, 0.1072557
-0.2958984, 0.4575195, -1.0473633, 85.7317123, 104.3902435, 23.1097565, 0.142504
-0.2998047, 0.4306641, -1.0385742, 85.3658524, 103.7195129, 22.3170738, 0.1587854
-0.3012695, 0.4174805, -1.0288086, 85.9756088, 103.1097565, 21.280489, 0.160296
-0.3012695, 0.4077148, -1.0195312, 86.8902435, 101.8292694, 20, 0.145861
-0.2915039, 0.4101562, -1.0170898, 87.1341476, 101.5243912, 20.3658543, 0.1270619
-0.2587891, 0.4033203, -1.0263672, 87.2560959, 101.8292694, 21.0975609, 0.1008774
-0.2402344, 0.4013672, -1.0341797, 87.1951218, 102.1951218, 21.8292694, 0.0522011
-0.2197266, 0.3930664, -1.0332031, 86.646347, 103.5975647, 21.5243912, -0.0159457
-0.2304688, 0.3876953, -1.0288086, 86.4024429, 103.9024429, 20.8536587, -0.0498512
-0.2416992, 0.3852539, -1.0327148, 87.0731735, 104.4512253, 20.1219521, -0.0663005
-0.2475586, 0.3793945, -1.0390625, 87.2560959, 104.4512253, 20.060976, -0.0834211
-0.2460938, 0.3745117, -1.0439453, 87.8658524, 103.9634171, 19.5731716, -0.0914778
-0.2456055, 0.359375, -1.0512695, 87.8048782, 103.9634171, 19.1463413, -0.0834211
-0.2441406, 0.3569336, -1.0517578, 87.68293, 103.0487823, 19.5731716, -0.0760357
-0.2299805, 0.3349609, -1.0615234, 87.3170776, 102.8658524, 19.6951218, -0.0659648
-0.2299805, 0.3276367, -1.0717773, 87.5609741, 103.1097565, 19.5731716, -0.0485084
-0.237793, 0.3413086, -1.0795898, 87.9878082, 102.9268341, 20.3658543, -0.0404517
-0.2363281, 0.3491211, -1.0756836, 87.5, 102.4390259, 20.6707325, -0.0441444
-0.2128906, 0.3408203, -1.0595703, 87.9878082, 100.7926865, 20.5487804, -0.0553902
-0.199707, 0.3110352, -1.0419922, 87.6219559, 100.4268341, 20.1829281, -0.0663005
-0.1958008, 0.2924805, -1.0415039, 88.5365906, 100, 19.6951218, -0.0780499
-0.1879883, 0.2749023, -1.0488281, 89.3902435, 99.9390259, 20.060976, -0.0891279
-0.1796875, 0.2797852, -1.0654297, 91.0365906, 100.7926865, 20.6097565, -0.0501869
-0.1772461, 0.3120117, -1.1015625, 91.1585388, 101.4634171, 20.9756107, -0.0058747
-0.1704102, 0.3369141, -1.1157227, 90.3658524, 102.4390259, 22.2560978, -0.0062104
-0.1591797, 0.3642578, -1.1274414, 88.0487823, 102.68293, 22.560976, -0.0229953
-0.1523438, 0.3598633, -1.1279297, 86.8292694, 102.3780518, 21.7073174, -0.0552224
-0.1489258, 0.3330078, -1.1181641, 85.18293, 100.9756088, 20.2439022, -0.0780499
-0.1484375, 0.3164062, -1.1157227, 84.9390259, 100.18293, 20, -0.0919814
-0.1367188, 0.2900391, -1.0854492, 84.9390259, 99.2073212, 19.0243912, -0.1015488
-0.1142578, 0.2890625, -1.0400391, 84.4512253, 98.7804871, 18.3536587, -0.1082628
-0.1000977, 0.284668, -1.0292969, 83.9634171, 97.2561035, 17.9268303, -0.1122911
-0.0571289, 0.2885742, -1.0644531, 84.3902435, 97.7439041, 18.2926826, -0.1059129
-0.0400391, 0.2910156, -1.0957031, 85.18293, 100.4268341, 19.0243912, -0.0951705
-0.0449219, 0.293457, -1.1206055, 84.8780518, 102.6219559, 18.1707325, -0.0834211
-0.0698242, 0.2978516, -1.1220703, 83.4146347, 103.8414688, 16.1585369, -0.0767071
-0.121582, 0.3061523, -1.0942383, 81.8292694, 101.1585388, 15, -0.0464942
-0.1176758, 0.3007812, -1.0825195, 81.4634171, 99.7561035, 15.2439032, -0.0068818
-0.0849609, 0.2514648, -1.0634766, 80.3658524, 99.0243912, 14.6341467, -0.0109102
-0.0683594, 0.2265625, -1.0463867, 79.9390259, 99.6951218, 14.0243902, -0.0231632
-0.0507812, 0.2133789, -1.0161133, 80.4878082, 100.1219559, 13.841464, -0.0276951
-0.015625, 0.1923828, -1.0327148, 81.0365906, 100.3048782, 14.3292685, -0.0280308
-0.0073242, 0.1816406, -1.0581055, 82.5, 102.3170776, 15, -0.0276951
-0.0307617, 0.1811523, -1.0922852, 82.5609741, 104.0243912, 14.6951227, -0.0246738
-0.0561523, 0.1875, -1.1015625, 82.7439041, 105.2439041, 14.6341467, -0.0193027
-0.0996094, 0.2167969, -1.0996094, 82.9878082, 104.7561035, 14.6341467, -0.018967
