Application:, Trigno Discover (1.6.5)
Date/Time:, 05/02/2025 10:31:36
Collection Length (seconds):, 36.99
wrist (81457), , , , , , bicep (81139)
sensor mode: 609, , , , , , sensor mode: 40
ACC X (G), ACC Y (G), ACC Z (G), GYRO X (deg/s), GYRO Y (deg/s), GYRO Z (deg/s), EMG 1 (mV)
370.3704 Hz, 370.3704 Hz, 370.3704 Hz, 370.3704 Hz, 370.3704 Hz, 370.3704 Hz, 2148.1481 Hz
0.8779297, -0.3129883, -0.4228516, -8.719512, -6.5243902, -2.0731707, -0.0384375
0.8779297, -0.3105469, -0.425293, -8.4756098, -6.8292685, -1.9512196, -0.0307164
0.8862305, -0.3125, -0.4204102, -8.2317076, -6.7073174, -1.8292683, -0.0260166
0.8925781, -0.3144531, -0.4140625, -7.9268293, -6.6463418, -1.8292683, -0.0229953
0.8979492, -0.3168945, -0.4086914, -7.6219516, -6.4634147, -1.8902439, -0.0243381
0.8999023, -0.3173828, -0.4018555, -7.5609756, -6.0365853, -1.9512196, -0.0276951
0.8974609, -0.3227539, -0.4003906, -7.1341467, -5.4268293, -1.9512196, -0.0243381
0.8886719, -0.3325195, -0.3984375, -6.8292685, -5.1829271, -1.9512196, -0.0340734
0.8852539, -0.3354492, -0.4033203, -6.6463418, -5.1219511, -2.0121951, -0.0438087
0.875, -0.3354492, -0.402832, -6.3414636, -5, -1.6463414, -0.0407874
0.8720703, -0.331543, -0.4003906, -5.9756098, -4.9390244, -1.7073171, -0.0345769
0.8671875, -0.3325195, -0.4018555, -5.3048782, -5.4878049, -1.8902439, -0.0209812
0.8686523, -0.3320312, -0.3994141, -5, -5.4878049, -2.0121951, -0.0209812
0.8637695, -0.3276367, -0.4023438, -5.1219511, -5.9146342, -2.0121951, -0.018967
0.8691406, -0.328125, -0.4145508, -5.4268293, -5.8536587, -1.9512196, -0.01561
0.8676758, -0.3256836, -0.4140625, -5.7926831, -5.7317076, -1.9512196, -0.0149386
0.8720703, -0.3251953, -0.4145508, -5.5487804, -5.7317076, -1.9512196, -0.018967
0.8735352, -0.315918, -0.4145508, -5.4268293, -5.670732, -1.9512196, -0.0313878
0.8833008, -0.3139648, -0.4082031, -5.2439027, -5.9756098, -1.9512196, -0.0357519
0.8837891, -0.3095703, -0.4106445, -5.5487804, -5.9756098, -2.0731707, -0.0391089
0.8847656, -0.3144531, -0.4169922, -6.5853658, -5.7317076, -2.2560976, -0.0337377
0.8818359, -0.3198242, -0.4179688, -7.2560978, -5.5487804, -2.5, -0.0263523
0.871582, -0.3276367, -0.4145508, -7.8048782, -5.2439027, -1.9512196, -0.0169528
0.8720703, -0.3325195, -0.4121094, -7.9268293, -5.2439027, -2.0121951, -0.0082246
0.8613281, -0.328125, -0.4116211, -7.4390244, -5.1829271, -1.9512196, -0.0035248
0.8588867, -0.3242188, -0.4155273, -7.2560978, -5.3658538, -2.1341465, 0.0063783
0.8588867, -0.3193359, -0.4208984, -7.6219516, -5.4878049, -1.9512196, 0.0139315
0.8588867, -0.3232422, -0.4267578, -8.2317076, -5.7317076, -1.6463414, 0.0226596
0.862793, -0.3251953, -0.4282227, -9.3292685, -5.9756098, -1.6463414, 0.0236667
0.8740234, -0.3217773, -0.418457, -9.6341467, -5.9146342, -1.4634147, 0.0159457
0.8769531, -0.3271484, -0.4111328, -9.9390249, -5.7926831, -1.097561, 0.0099031
0.8852539, -0.3188477, -0.4091797, -9.3292685, -5.4268293, -0.8536586, 0.0065461
0.8813477, -0.3149414, -0.4091797, -9.3292685, -5.4268293, -1.2195122, -0.0031891
0.8774414, -0.309082, -0.4150391, -10, -5.4268293, -1.2804878, -0.0203098
0.8740234, -0.3085938, -0.4204102, -10.4268293, -5.609756, -0.9146342, -0.0303807
0.8666992, -0.3095703, -0.4204102, -11.6463413, -5.9756098, -0.4268293, -0.0313878
0.8671875, -0.3115234, -0.4106445, -11.6463413, -5.9756098, -0.4268293, -0.0330663
0.8681641, -0.3076172, -0.409668, -12.0731707, -6.4024391, -0.4878049, -0.030045
0.8657227, -0.3129883, -0.4208984, -12.1951218, -5.9756098, -0.3658537, -0.0253452
0.8666992, -0.3208008, -0.4228516, -13.0487804, -6.0975609, 0.1829268, -0.0223239
0.8681641, -0.3325195, -0.4213867, -13.2926836, -6.2195125, 0.4878049, -0.018967
0.8710938, -0.3344727, -0.4179688, -14.1463413, -6.0975609, 0.2439024, -0.01561
0.8701172, -0.3374023, -0.4121094, -13.841464, -5.8536587, 0.6097561, -0.0075532
0.8745117, -0.3320312, -0.4082031, -13.2926836, -5.9146342, 0.7317073, -0.0095674
0.8789062, -0.3154297, -0.4086914, -12.2560978, -5.609756, 0.1829268, -0.0182956
0.8847656, -0.3139648, -0.4130859, -12.1951218, -5.9146342, -0.0609756, -0.0256809
0.8852539, -0.3139648, -0.4179688, -12.8658543, -5.9756098, 0, -0.0337377
0.890625, -0.3105469, -0.4165039, -13.7195129, -5.670732, 0.1829268, -0.0370947
0.8862305, -0.309082, -0.4155273, -14.0853662, -5.4878049, 0.4878049, -0.0297093
0.8798828, -0.3071289, -0.4165039, -14.3292685, -5.2439027, 0.7317073, -0.0303807
0.8793945, -0.3081055, -0.4204102, -14.3902445, -5.1829271, 1.402439, -0.0229953
0.8813477, -0.3139648, -0.4248047, -14.5731707, -5.3658538, 1.2804878, -0.0196384
0.8818359, -0.3242188, -0.425293, -15, -5.609756, 1.0365853, -0.0206455
0.8857422, -0.3374023, -0.4160156, -15.2439032, -5.3658538, 0.9146342, -0.0218204
0.8847656, -0.3383789, -0.4116211, -14.8170738, -5, 0.7317073, -0.0216526
0.8847656, -0.3305664, -0.3911133, -14.2682934, -4.2682929, 0.6097561, -0.017792
0.8857422, -0.328125, -0.3886719, -13.5365858, -3.8414636, 0.6097561, -0.0176242
0.8818359, -0.3139648, -0.378418, -12.8048782, -3.9634147, 0.1219512, -0.0104067
0.8769531, -0.3100586, -0.3862305, -12.8048782, -4.5121951, -0.2439024, -0.0115816
0.8725586, -0.3095703, -0.390625, -13.4146347, -5.3048782, -0.1219512, -0.0102388
0.8735352, -0.3208008, -0.4023438, -13.780488, -5.7926831, 0, -0.0070497
0.871582, -0.324707, -0.4121094, -14.6951227, -6.0975609, 0.4878049, -0.0105745
0.8779297, -0.3291016, -0.4179688, -14.8170738, -6.0365853, 0.8536586, -0.0104067
0.8818359, -0.328125, -0.4199219, -14.6341467, -5.8536587, 0.8536586, -0.012253
0.887207, -0.3271484, -0.4189453, -13.5975609, -5.7317076, 0.9146342, -0.0109102
0.8901367, -0.3261719, -0.4174805, -13.2317076, -5.3048782, 1.0365853, -0.0068818
0.8979492, -0.3188477, -0.4204102, -13.3536587, -5, 0.6707317, -0.0078889
0.8969727, -0.3178711, -0.4189453, -13.5365858, -5.1219511, 0.6707317, -0.0213169
0.9013672, -0.3154297, -0.4145508, -14.0243902, -4.6951222, 0.5487805, -0.0501869
0.9013672, -0.3149414, -0.3989258, -13.9634151, -4.5731707, 0.4268293, -0.0679789
0.8974609, -0.3154297, -0.3945312, -14.1463413, -4.8780489, 0.2439024, -0.0793927
0.8901367, -0.3129883, -0.390625, -13.9634151, -4.8170733, 0.1219512, -0.0800641
0.8813477, -0.3173828, -0.3920898, -14.2682934, -4.8170733, 0.4268293, -0.0720073
0.8735352, -0.3266602, -0.3959961, -14.5731707, -4.8170733, 0.9756098, -0.061265
0.8710938, -0.3227539, -0.3950195, -14.5731707, -4.8170733, 1.2804878, -0.0518654
0.8710938, -0.3237305, -0.4008789, -14.2682934, -4.8780489, 1.2804878, -0.0303807
0.8701172, -0.3178711, -0.4023438, -13.9024391, -5.1219511, 1.5853659, -0.0236667
0.8725586, -0.3129883, -0.3994141, -13.2317076, -5.4268293, 1.6463414, -0.0129244
0.8789062, -0.3095703, -0.40625, -13.3536587, -5.609756, 1.8292683, -0.0028534
0.887207, -0.3125, -0.4116211, -14.3292685, -5.7926831, 1.7682927, -0.0036927
0.8999023, -0.3144531, -0.4130859, -14.3902445, -5.670732, 1.8902439, -0.0058747
0.9033203, -0.3227539, -0.4121094, -14.2073174, -5.4878049, 2.195122, -0.0193027
0.9052734, -0.3222656, -0.4067383, -14.2682934, -5.4878049, 1.8902439, -0.0250095
0.9101562, -0.3178711, -0.4047852, -13.4146347, -5.2439027, 2.0121951, -0.023331
0.9033203, -0.3242188, -0.4047852, -12.560976, -4.8170733, 1.7682927, -0.0256809
0.9008789, -0.3291016, -0.4047852, -13.0487804, -4.5731707, 1.5243902, -0.0293736
0.887207, -0.3310547, -0.3955078, -13.2926836, -4.5121951, 1.5243902, -0.0283665
0.8803711, -0.3330078, -0.3916016, -13.3536587, -4.6951222, 1.6463414, -0.0219883
0.8769531, -0.3349609, -0.3837891, -12.8048782, -5, 1.7073171, -0.0149386
0.8759766, -0.3334961, -0.3857422, -12.5, -5.2439027, 1.6463414, -0.0070497
0.8735352, -0.3354492, -0.3950195, -12.1341467, -5.8536587, 1.5853659, -0.0001678
0.878418, -0.3339844, -0.4023438, -12.1341467, -6.3414636, 1.6463414, 0.0052033
0.8867188, -0.3354492, -0.3984375, -12.0731707, -6.5243902, 1.6463414, 0.0112459
0.8950195, -0.3251953, -0.3964844, -11.5243902, -6.4024391, 1.7073171, 0.0166171
0.8935547, -0.3242188, -0.3916016, -11.4024391, -5.9146342, 1.4634147, 0.0159457
0.8935547, -0.3139648, -0.3876953, -10.7317076, -5.4268293, 1.097561, 0.0149386
0.8925781, -0.3115234, -0.3857422, -10.9756098, -5.9756098, 0.9756098, 0.005539
0.8896484, -0.3149414, -0.3862305, -11.0365858, -6.5243902, 0.9146342, -0.0005035
0.8828125, -0.315918, -0.3891602, -11.280488, -6.7682929, 1.1585366, -0.0062104
0.8823242, -0.3232422, -0.390625, -11.5853662, -6.5853658, 1.5243902, -0.0095674
0.8823242, -0.324707, -0.3891602, -11.7073174, -6.7682929, 1.4634147, -0.012253
0.878418, -0.3261719, -0.3950195, -11.5853662, -6.890244, 1.402439, -0.0125887
0.8789062, -0.3266602, -0.4077148, -11.5853662, -7.0121951, 1.2195122, -0.0151064
0.8823242, -0.3291016, -0.4106445, -10.9146347, -7.4390244, 1.3414634, -0.01561
0.8876953, -0.3320312, -0.4145508, -10.8536587, -7.3780489, 1.402439, -0.0216526
0.8955078, -0.3261719, -0.4135742, -10.6097565, -7.1951222, 1.4634147, -0.0263523
0.8994141, -0.3203125, -0.4057617, -10.4878054, -6.1585369, 1.6463414, -0.0298772
0.902832, -0.3125, -0.4038086, -10.1829271, -6.2195125, 1.3414634, -0.0313878
0.9018555, -0.3115234, -0.4018555, -10.1829271, -5.670732, 1.097561, -0.0320592
0.8955078, -0.3115234, -0.4057617, -10.6707315, -5.5487804, 1.097561, -0.0297093
0.8867188, -0.3134766, -0.4091797, -11.4024391, -5.9756098, 1.4634147, -0.0256809
0.8833008, -0.3168945, -0.4057617, -11.8292685, -5.9146342, 1.8292683, -0.0243381
0.8881836, -0.3164062, -0.4067383, -11.8902445, -5.9756098, 2.0731707, -0.026688
0.8857422, -0.3168945, -0.402832, -11.7682934, -6.0365853, 2.195122, -0.0229953
0.8930664, -0.3198242, -0.40625, -10.9146347, -5.7317076, 1.6463414, -0.0283665
0.8886719, -0.3217773, -0.4052734, -10.9146347, -5.8536587, 1.402439, -0.0293736
0.8896484, -0.3266602, -0.4067383, -11.4634151, -6.0365853, 1.6463414, -0.0310521
0.8916016, -0.3359375, -0.4033203, -11.4634151, -5.9756098, 1.6463414, -0.0236667
0.8945312, -0.3378906, -0.3984375, -11.219512, -5.7926831, 1.4634147, -0.0219883
0.8891602, -0.3349609, -0.394043, -10.8536587, -5.670732, 1.402439, -0.0251774
0.8862305, -0.3359375, -0.3935547, -10.3658543, -5.670732, 1.2195122, -0.0280308
0.8886719, -0.3266602, -0.3955078, -10.060976, -5.7317076, 0.9756098, -0.0377661
0.8896484, -0.3222656, -0.3984375, -10, -5.670732, 0.9146342, -0.0370947
0.8862305, -0.3188477, -0.3989258, -10.4268293, -5.8536587, 1.0365853, -0.0344091
0.8867188, -0.3173828, -0.4008789, -10.7926836, -6.0365853, 1.0365853, -0.0323949
0.8867188, -0.3168945, -0.4038086, -10.7926836, -5.9146342, 1.097561, -0.0347448
0.8964844, -0.3149414, -0.4023438, -10.7926836, -6.0365853, 1.2804878, -0.0287022
0.8974609, -0.3105469, -0.4018555, -10.8536587, -5.609756, 1.3414634, -0.026688
0.890625, -0.3081055, -0.3959961, -11.5853662, -5.5487804, 1.1585366, -0.0417945
0.8901367, -0.3056641, -0.3964844, -11.280488, -5.609756, 1.0365853, -0.0518654
0.8867188, -0.3071289, -0.3964844, -11.8902445, -5.4268293, 0.7317073, -0.0585794
0.8828125, -0.3105469, -0.3999023, -12.560976, -5.8536587, 0.8536586, -0.0498512
0.8754883, -0.3188477, -0.3999023, -13.5365858, -6.1585369, 0.9756098, -0.0323949
0.8769531, -0.3198242, -0.4013672, -13.4756098, -6.0365853, 1.1585366, -0.0036927
0.8720703, -0.3046875, -0.3930664, -12.3170738, -5.5487804, 1.5243902, 0.026688
0.871582, -0.2929688, -0.3852539, -11.5243902, -5.1829271, 1.9512196, 0.0360876
0.8710938, -0.2880859, -0.3818359, -10.7926836, -5.1829271, 1.5853659, 0.0292058
0.8764648, -0.2861328, -0.3945312, -10.7317076, -5.3048782, 1.4634147, 0.0287022
0.8808594, -0.2988281, -0.4018555, -12.0731707, -6.4634147, 1.5243902, 0.0179599
0.8881836, -0.3188477, -0.4033203, -13.7195129, -6.5243902, 1.7073171, 0.0105745
0.8876953, -0.328125, -0.4013672, -14.1463413, -6.280488, 2.0731707, 0.0052033
0.8925781, -0.3369141, -0.4008789, -13.0487804, -5.4878049, 2.0731707, 0.0082246
0.8925781, -0.3325195, -0.4003906, -11.7682934, -5.3658538, 1.8902439, 0.0048676
0.8881836, -0.328125, -0.4116211, -9.9390249, -5.3658538, 1.7682927, 0.0011749
0.8886719, -0.3203125, -0.4165039, -9.3902445, -5.3658538, 1.8902439, 0.0038605
0.8955078, -0.3022461, -0.4238281, -9.8780489, -5.1219511, 1.8902439, -0.0001678
0.8989258, -0.2944336, -0.4238281, -10.5487804, -5, 2.0731707, -0.0072175
0.8959961, -0.2944336, -0.4199219, -12.2560978, -4.7560978, 1.9512196, -0.0135958
0.8935547, -0.3027344, -0.4047852, -12.7439032, -4.5121951, 1.9512196, -0.0203098
0.8920898, -0.3081055, -0.3989258, -12.9268293, -4.4512196, 2.0121951, -0.0229953
0.8881836, -0.3129883, -0.3974609, -12.9268293, -4.8170733, 2.0731707, -0.0293736
0.8847656, -0.3164062, -0.3950195, -12.6829271, -5.1219511, 2.1341465, -0.0293736
0.8798828, -0.3256836, -0.3959961, -12.6829271, -5.1219511, 2.1341465, -0.0310521
0.878418, -0.3291016, -0.3979492, -12.8048782, -5.4268293, 2.0731707, -0.0250095
0.8735352, -0.3276367, -0.3945312, -12.2560978, -5.4878049, 2.4390244, -0.0250095
0.8740234, -0.3242188, -0.3945312, -12.0121956, -5, 2.3170731, -0.0231632
0.8842773, -0.3173828, -0.3950195, -11.280488, -5.2439027, 2.0731707, -0.026688
0.8916016, -0.315918, -0.3999023, -11.0975609, -5.609756, 1.8292683, -0.0297093
0.8974609, -0.3193359, -0.4038086, -11.0365858, -6.0365853, 1.3414634, -0.0273594
0.8984375, -0.3193359, -0.4003906, -11.4634151, -6.3414636, 1.3414634, -0.0270237
0.8989258, -0.3232422, -0.3964844, -11.7682934, -6.1585369, 1.2804878, -0.0270237
0.8959961, -0.3305664, -0.394043, -11.7073174, -6.0365853, 1.097561, -0.0236667
0.8925781, -0.3291016, -0.3896484, -11.219512, -6.1585369, 1.1585366, -0.0229953
0.8833008, -0.3237305, -0.3867188, -11.219512, -6.0365853, 1.097561, -0.0297093
0.8808594, -0.3144531, -0.387207, -10.7926836, -6.5243902, 0.9756098, -0.0364233
0.8735352, -0.3081055, -0.3881836, -10.9146347, -7.3780489, 1.0365853, -0.0417945
0.875, -0.3100586, -0.3984375, -11.280488, -7.6829271, 1.2195122, -0.0458228
0.8789062, -0.3076172, -0.3964844, -11.7682934, -8.9024391, 1.2804878, -0.0461585
0.887207, -0.3027344, -0.3984375, -11.9512196, -9.1463413, 1.1585366, -0.0438087
0.8920898, -0.3032227, -0.3999023, -12.1951218, -8.9634151, 1.6463414, -0.0377661
0.894043, -0.3012695, -0.4111328, -12.2560978, -9.1463413, 1.402439, -0.0276951
0.8959961, -0.3066406, -0.4145508, -12.9268293, -9.2682924, 1.402439, -0.0142672
0.8964844, -0.3193359, -0.4174805, -13.5975609, -9.6951218, 1.5853659, -0.0082246
0.890625, -0.3212891, -0.418457, -13.6585369, -9.7560978, 1.7073171, -0.0031891
0.8881836, -0.3208008, -0.4204102, -13.841464, -9.1463413, 1.8292683, -0.0028534
0.8876953, -0.3212891, -0.4194336, -13.5365858, -9.0853662, 1.7073171, 0.0005035
0.8769531, -0.3139648, -0.4277344, -13.3536587, -8.780488, 2.0121951, 0.0011749
0.8735352, -0.3037109, -0.4316406, -13.2926836, -8.9634151, 2.4390244, 0.0008392
0.8740234, -0.2978516, -0.4389648, -13.0487804, -9.2073174, 2.804878, -0.0112459
0.8886719, -0.2919922, -0.4355469, -13.2926836, -9.5121956, 3.2317073, -0.0250095
0.8959961, -0.2919922, -0.4316406, -13.4756098, -9.6951218, 4.0853658, -0.0365911
0.9072266, -0.2963867, -0.4291992, -13.841464, -9.4512196, 3.9024391, -0.0639506
0.9082031, -0.2993164, -0.4306641, -15, -9.0243902, 3.5365853, -0.0733501
0.90625, -0.3129883, -0.4311523, -16.0365849, -8.6585369, 3.8414636, -0.0703288
0.9033203, -0.3227539, -0.4321289, -16.0365849, -8.6585369, 3.7804878, -0.0679789
0.8969727, -0.3354492, -0.4355469, -16.4634151, -8.4756098, 3.9634147, -0.054551
0.8901367, -0.3408203, -0.4301758, -16.1585369, -8.4756098, 4.0853658, -0.0397803
0.8837891, -0.3408203, -0.421875, -15.3048782, -8.3536587, 4.1463413, -0.0250095
0.8754883, -0.3349609, -0.4189453, -15, -8.3536587, 4.390244, -0.0223239
0.8730469, -0.3256836, -0.4165039, -14.4512196, -8.2317076, 4.5731707, -0.0283665
0.8735352, -0.3164062, -0.4145508, -14.2682934, -8.1097565, 4.5731707, -0.0297093
0.8754883, -0.3115234, -0.4101562, -14.6951227, -8.719512, 4.6341462, -0.030045
0.8828125, -0.3051758, -0.4106445, -15, -9.0853662, 4.8170733, -0.0293736
0.8857422, -0.3017578, -0.4067383, -15.4878054, -9.7560978, 4.7560978, -0.0271916
0.8886719, -0.3041992, -0.4038086, -16.0975609, -10, 4.5731707, -0.0246738
0.8852539, -0.3081055, -0.3969727, -16.1585369, -10.4268293, 4.4512196, -0.0142672
0.8779297, -0.3271484, -0.394043, -16.5853653, -10.7926836, 4.6341462, -0.0028534
0.875, -0.3374023, -0.3935547, -16.7682934, -10.8536587, 5.1219511, 0.0025177
0.8662109, -0.3535156, -0.3925781, -16.6463413, -11.280488, 4.7560978, 0.0052033
0.8520508, -0.3657227, -0.3974609, -16.0975609, -11.4024391, 4.5121951, 0.0041962
0.8540039, -0.362793, -0.4013672, -14.3292685, -11.8902445, 4.6341462, 0.0025177
0.8554688, -0.3496094, -0.4101562, -13.5975609, -12.3780489, 4.4512196, -0.0016785
0.862793, -0.34375, -0.4199219, -12.6829271, -12.8658543, 4.1463413, -0.0102388
0.8754883, -0.3320312, -0.4423828, -12.6219511, -12.9878054, 4.3292685, -0.0157778
0.8759766, -0.3261719, -0.4428711, -13.0487804, -13.3536587, 4.0243902, -0.0196384
0.887207, -0.3227539, -0.4453125, -14.1463413, -13.4146347, 4.390244, -0.0243381
0.8935547, -0.3208008, -0.4375, -14.7560978, -13.2317076, 4.390244, -0.0287022
0.8930664, -0.3168945, -0.4306641, -15.060976, -12.7439032, 4.4512196, -0.0303807
0.8901367, -0.3129883, -0.4296875, -15.6097565, -12.6829271, 4.5121951, -0.0256809
0.8896484, -0.3071289, -0.4394531, -15.8536587, -13.1707315, 4.5731707, -0.0263523
0.8813477, -0.3012695, -0.4541016, -16.0975609, -13.1097565, 4.6951222, -0.0337377
0.8852539, -0.3027344, -0.4624023, -17.0731716, -13.4756098, 4.8780489, -0.0397803
0.8891602, -0.3095703, -0.4726562, -17.8048782, -14.0853662, 5.3658538, -0.0464942
0.8925781, -0.3134766, -0.4760742, -18.9634151, -14.1463413, 5.670732, -0.0495155
0.8974609, -0.3208008, -0.4770508, -19.2073174, -13.841464, 5.670732, -0.0464942
0.8964844, -0.3212891, -0.4750977, -19.7560978, -13.0487804, 6.0975609, -0.0394446
0.8847656, -0.3168945, -0.4707031, -20.8536587, -12.560976, 6.5243902, -0.0384375
0.8837891, -0.3164062, -0.4648438, -21.5243912, -12.3780489, 6.890244, -0.0290379
0.8725586, -0.300293, -0.4594727, -22.439024, -12.4390249, 7.8048782, -0.0229953
0.8681641, -0.2900391, -0.4541016, -23.1707325, -12.3780489, 8.1707315, -0.0182956
0.8774414, -0.2758789, -0.449707, -23.5975609, -13.2317076, 9.0243902, -0.0082246
0.8901367, -0.2709961, -0.4443359, -24.1463413, -13.7195129, 9.0853662, -0.0052033
0.8955078, -0.2783203, -0.4443359, -26.0365868, -14.6951227, 9.2682924, 0.0008392
0.9038086, -0.2983398, -0.4389648, -27.0731716, -15.060976, 9.3902445, 0.0082246
0.9052734, -0.3105469, -0.4350586, -29.0853672, -15.1829271, 9.4512196, 0.0092317
0.9013672, -0.3320312, -0.4213867, -29.3292694, -15.6097565, 9.7560978, 0.0132601
0.8930664, -0.3378906, -0.4213867, -28.5365868, -16.0975609, 10.1829271, 0.0099031
0.8842773, -0.3466797, -0.4243164, -27.9268303, -16.8292694, 10.3048782, 0.0099031
0.8774414, -0.3515625, -0.4287109, -27.3780499, -17.439024, 10.4878054, 0.0020142
0.8710938, -0.3491211, -0.4370117, -27.0121956, -18.3536587, 10.2439022, -0.0041962
0.8706055, -0.3476562, -0.4379883, -27.1951218, -18.8414631, 10.4878054, -0.0085603
0.871582, -0.3398438, -0.4311523, -26.9512196, -19.2682934, 10.6707315, -0.0142672
0.8754883, -0.3261719, -0.4360352, -26.8292694, -19.8780499, 10.8536587, -0.0193027
0.8803711, -0.3217773, -0.4467773, -26.6463413, -21.3414631, 10.7317076, -0.0240024
0.8847656, -0.3110352, -0.4609375, -26.8902454, -21.7682934, 10.8536587, -0.0256809
0.8891602, -0.3051758, -0.4731445, -28.2926826, -22.8658543, 11.1585369, -0.0323949
0.890625, -0.3017578, -0.4985352, -29.0853672, -23.3536587, 11.5243902, -0.0411231
0.8920898, -0.3027344, -0.5063477, -31.280489, -23.8414631, 11.8292685, -0.0454871
0.8984375, -0.3100586, -0.5078125, -33.3536606, -24.3902435, 12.2560978, -0.04448
0.8959961, -0.3120117, -0.5024414, -34.1463432, -24.3292694, 12.2560978, -0.0451514
0.8950195, -0.3129883, -0.4980469, -35.6707344, -25.1829281, 12.4390249, -0.0397803
0.8911133, -0.3149414, -0.4970703, -36.4024391, -25.8536587, 12.3780489, -0.0357519
0.8842773, -0.3251953, -0.4990234, -38.7804871, -27.3170738, 12.4390249, -0.0323949
0.8798828, -0.3364258, -0.5, -39.4512215, -28.2317085, 12.3780489, -0.0303807
0.8740234, -0.3383789, -0.5004883, -41.8292694, -29.2682934, 13.0487804, -0.0350805
0.8662109, -0.3427734, -0.5073242, -42.6829262, -29.8780499, 13.2317076, -0.0370947
0.8632812, -0.3466797, -0.5063477, -44.0243912, -31.6463413, 13.4146347, -0.0337377
0.8676758, -0.3413086, -0.5073242, -45.4268303, -33.2317085, 13.4756098, -0.0337377
0.8686523, -0.3393555, -0.5024414, -46.0365868, -34.0853653, 13.9024391, -0.0287022
0.8686523, -0.3237305, -0.4960938, -47.8658562, -35.3658562, 14.4512196, -0.0250095
0.8691406, -0.3164062, -0.4951172, -48.6585388, -36.0975609, 15.060976, -0.0219883
0.8691406, -0.2973633, -0.4960938, -50.2439041, -38.5365868, 15.2439032, -0.0166171
0.871582, -0.2924805, -0.503418, -51.341465, -40.0609779, 15.3048782, -0.0146029
0.8759766, -0.2978516, -0.5151367, -54.0853653, -43.1097565, 15.7317076, -0.0115816
0.8808594, -0.3173828, -0.5195312, -55.1219521, -44.4512215, 15.6097565, -0.0146029
0.8862305, -0.3256836, -0.515625, -57.2560997, -46.5243912, 16.2195129, -0.0149386
0.887207, -0.3500977, -0.4990234, -57.5609779, -47.1341476, 16.4634151, -0.0135958
0.887207, -0.3500977, -0.4892578, -57.8658562, -48.4756126, 16.4024391, -0.0139315
0.8745117, -0.3554688, -0.465332, -56.5243912, -49.8170738, 16.280489, -0.0169528
0.8681641, -0.3535156, -0.4599609, -55.6097565, -51.1585388, 16.3414631, -0.0115816
0.8520508, -0.3374023, -0.4672852, -53.841465, -54.0243912, 16.6463413, -0.0092317
0.8476562, -0.3305664, -0.4799805, -53.5365868, -55.7317085, 16.6463413, -0.0082246
0.8510742, -0.3261719, -0.5107422, -53.841465, -58.6585388, 17.3170738, -0.0085603
0.8496094, -0.3286133, -0.5292969, -54.2073174, -60.18293, 17.3170738, -0.002182
0.8579102, -0.324707, -0.5463867, -55.0609779, -62.0731735, 17.9268303, -0.0028534
0.8666992, -0.3305664, -0.5595703, -55.2439041, -62.9268303, 17.8658543, -0.0068818
0.8759766, -0.3320312, -0.559082, -55.6707344, -64.1463394, 18.2317085, -0.0095674
0.8798828, -0.3359375, -0.5488281, -55.3048782, -64.6341476, 18.6585369, -0.0146029
0.8730469, -0.3388672, -0.5473633, -54.6341476, -66.4634171, 18.6585369, -0.008896
0.8701172, -0.3398438, -0.5385742, -53.9024391, -68.5365906, 18.5975609, -0.008896
0.8696289, -0.3378906, -0.5371094, -53.7195129, -69.5121994, 18.7195129, -0.0062104
0.8505859, -0.3515625, -0.546875, -53.5975609, -71.4024429, 19.0853672, -0.0104067
0.8442383, -0.3598633, -0.5595703, -53.9634171, -72.5609741, 18.9634151, -0.0229953
0.8330078, -0.3774414, -0.5766602, -54.1463432, -74.2682953, 19.3902435, -0.0347448
0.828125, -0.3852539, -0.5830078, -53.5975609, -75.4268341, 19.5731716, -0.0394446
0.8203125, -0.4003906, -0.5869141, -52.8048782, -76.7682953, 20.3658543, -0.0411231
0.8242188, -0.4033203, -0.5952148, -52.1951218, -77.8048782, 20.4878044, -0.0411231
0.8251953, -0.4003906, -0.6005859, -50.6707344, -79.3292694, 20.3658543, -0.0458228
0.8198242, -0.3999023, -0.6254883, -50.1829262, -79.6341476, 20.3658543, -0.0475013
0.8154297, -0.394043, -0.6484375, -49.7560997, -80.9756088, 20.4878044, -0.0458228
0.8115234, -0.3916016, -0.6928711, -49.6341476, -81.7682953, 21.4024391, -0.0421302
0.8164062, -0.3881836, -0.7133789, -49.6951218, -82.0121994, 21.8292694, -0.0421302
0.8325195, -0.3847656, -0.7460938, -49.8780518, -82.3780518, 23.0487804, -0.0364233
0.8344727, -0.3842773, -0.7568359, -49.8780518, -82.4390259, 23.5365868, -0.0243381
0.8549805, -0.3789062, -0.7685547, -50.6097565, -81.3414688, 24.6951218, -0.0142672
0.8569336, -0.3745117, -0.7695312, -50.5487823, -80.7317123, 25.1829281, -0.0102388
0.8554688, -0.3613281, -0.7661133, -50.9756126, -79.2073212, 26.280489, -0.0030213
0.8530273, -0.3413086, -0.777832, -51.5243912, -78.7804871, 26.8902454, -0.0005035
0.8481445, -0.3374023, -0.7841797, -52.8658562, -78.8414688, 28.0487804, -0.0015106
0.8457031, -0.3295898, -0.7939453, -53.7195129, -79.3902435, 28.5365868, -0.0008392
0.8452148, -0.3310547, -0.7924805, -56.0975609, -80.4878082, 29.3292694, -0.0015106
0.84375, -0.3393555, -0.7685547, -58.4146347, -81.646347, 30.3048782, -0.0082246
0.8447266, -0.3457031, -0.7553711, -59.4512215, -82.5, 30.7317085, -0.008896
0.84375, -0.3613281, -0.7299805, -60.3048782, -83.6585388, 30.9756107, -0.0109102
0.84375, -0.375, -0.722168, -60.7317085, -84.6951218, 30.7926846, -0.0135958
0.8344727, -0.40625, -0.7158203, -60.8536606, -87.5609741, 31.0365868, -0.0157778
0.8251953, -0.425293, -0.7216797, -60.3658562, -88.9024429, 31.0975609, -0.0181277
0.8193359, -0.4545898, -0.7329102, -58.5975609, -91.1585388, 31.8902454, -0.0206455
0.8125, -0.4707031, -0.7490234, -57.3170738, -92.0731735, 32.8658562, -0.0198062
0.8129883, -0.4633789, -0.7553711, -53.7804909, -93.6585388, 34.5121956, -0.0139315
0.8105469, -0.4472656, -0.7612305, -52.0121956, -94.6341476, 35.2439041, -0.012253
0.8149414, -0.4316406, -0.7666016, -48.2317085, -95.9756088, 36.2195129, -0.0132601
0.8125, -0.4033203, -0.7773438, -46.1585388, -97.6219559, 36.7073174, -0.017792
0.8173828, -0.3945312, -0.777832, -45.6097565, -98.7195129, 36.7073174, -0.0216526
0.8266602, -0.3847656, -0.7866211, -45.9756126, -101.2195129, 36.5243912, -0.0263523
0.8276367, -0.3803711, -0.7841797, -46.5243912, -102.5, 36.5243912, -0.0344091
0.8266602, -0.3798828, -0.7783203, -46.8902435, -105.3048782, 36.8292694, -0.0384375
0.8256836, -0.3857422, -0.7773438, -47.1951218, -106.7073212, 36.8292694, -0.0397803
0.8193359, -0.4106445, -0.7802734, -47.1341476, -109.6341476, 37.3170738, -0.0458228
0.8081055, -0.4238281, -0.8081055, -46.4634171, -111.0365906, 37.1951218, -0.0438087
0.8012695, -0.4272461, -0.8212891, -45.4268303, -113.7195129, 37.2560997, -0.0381018
0.7915039, -0.4291992, -0.8564453, -45.1219521, -114.8780518, 37.6219521, -0.0370947
0.7900391, -0.4277344, -0.8710938, -44.1463432, -117.1341476, 37.9878044, -0.0468299
0.7871094, -0.4262695, -0.8920898, -43.5975609, -119.2073212, 38.2926826, -0.0481727
0.7861328, -0.4267578, -0.8999023, -43.5975609, -120.18293, 38.3536606, -0.0431373
0.7949219, -0.4321289, -0.8916016, -43.4756126, -121.5853653, 38.2317085, -0.0320592
0.7963867, -0.4306641, -0.8881836, -43.5365868, -122.3780518, 38.2926826, -0.0203098
0.7871094, -0.4360352, -0.878418, -42.9878044, -123.6585388, 38.7804871, -0.0114137
0.7822266, -0.4350586, -0.8818359, -42.3780479, -124.4512253, 38.7804871, 0.0031891
0.7802734, -0.4257812, -0.8833008, -41.2804871, -126.2195129, 39.6341476, 0.0119173
0.7714844, -0.4038086, -0.902832, -40.6097565, -127.2561035, 40.2439041, 0.0166171
0.7739258, -0.3984375, -0.8974609, -40.3048782, -130, 40.5487823, 0.0146029
0.7729492, -0.3793945, -0.8876953, -40.7317085, -131.5853729, 40.1829262, 0.0099031
0.7646484, -0.3686523, -0.8974609, -41.2195129, -132.6219482, 40.5487823, 0.0031891
0.7578125, -0.3686523, -0.9189453, -42.0121956, -133.4146423, 42.2560997, -0.0132601
0.7558594, -0.3681641, -0.9345703, -42.6219521, -134.9390259, 42.7439041, -0.0357519
0.753418, -0.3769531, -0.9873047, -44.3292694, -137.9878082, 43.2317085, -0.054551
0.7519531, -0.3847656, -1.0068359, -45.2439041, -139.2073212, 43.2317085, -0.0636149
0.7421875, -0.4082031, -1.0263672, -47.4390259, -140.1829376, 44.3292694, -0.0486763
0.7392578, -0.4179688, -1.0185547, -47.4390259, -140, 44.7560997, -0.0052033
0.7407227, -0.4018555, -1.0063477, -46.5853653, -139.3292694, 45.9756126, 0.0293736
0.7485352, -0.3730469, -1.0053711, -45.3658562, -139.146347, 46.4634171, 0.0394446
0.7519531, -0.3569336, -1.0126953, -44.4512215, -139.5121918, 46.8292694, 0.0325628
0.7524414, -0.3564453, -1.0410156, -45.1829262, -140.2439117, 46.5853653, 0.0226596
0.75, -0.3696289, -1.0522461, -48.1707344, -142.0121918, 46.7682953, 0.002182
0.7529297, -0.3945312, -1.0561523, -51.6463432, -144.146347, 47.4390259, -0.0082246
0.7548828, -0.4111328, -1.0488281, -52.8048782, -144.6341553, 47.7439041, -0.0115816
0.7514648, -0.4458008, -1.0307617, -53.2317085, -145.36586, 48.2926826, -0.0162814
0.7514648, -0.4594727, -1.0195312, -52.3170738, -145.4268341, 48.3536606, -0.0246738
0.7353516, -0.4624023, -1.0068359, -49.8780518, -145.9756165, 48.1097565, -0.0209812
0.7138672, -0.4638672, -1.0058594, -48.7804871, -146.5243988, 47.8658562, -0.0162814
0.7050781, -0.4643555, -1.0092773, -46.7073174, -148.5975647, 48.2926826, -0.0149386
0.6889648, -0.4619141, -1.0239258, -45.8536606, -149.3902435, 48.4146347, -0.0099031
0.6860352, -0.4604492, -1.0327148, -44.7560997, -151.4634247, 48.9634171, -0.0028534
0.6821289, -0.4487305, -1.0488281, -44.2073174, -152.5609741, 48.841465, 0.0083925
0.6835938, -0.4438477, -1.0639648, -42.9878044, -154.0853729, 48.7804871, 0.0159457
0.6904297, -0.4345703, -1.0981445, -42.6829262, -155.5487823, 48.6585388, 0.0209812
0.6928711, -0.4370117, -1.1074219, -42.6219521, -156.1585388, 48.4756126, 0.0169528
0.6987305, -0.4345703, -1.1049805, -42.6829262, -156.8902435, 49.2073174, 0.0099031
0.7045898, -0.4370117, -1.0957031, -42.8658562, -157.0731812, 49.3902435, 0.0018463
0.7055664, -0.4375, -1.0673828, -42.5609779, -156.8292694, 49.5121956, -0.0095674
0.6953125, -0.4160156, -1.059082, -42.1341476, -156.646347, 49.5121956, -0.0182956
0.6850586, -0.4052734, -1.0625, -41.8292694, -157.0731812, 49.2682953, -0.0216526
0.6577148, -0.3901367, -1.0869141, -42.0121956, -158.1097565, 48.7195129, -0.0226596
0.6474609, -0.390625, -1.0888672, -42.6829262, -161.5853729, 48.1097565, -0.0290379
0.6401367, -0.40625, -1.0952148, -43.7804871, -163.3536682, 47.8048782, -0.0287022
0.6357422, -0.4189453, -1.0947266, -45.5487823, -165.7317047, 47.4390259, -0.0350805
0.6376953, -0.4414062, -1.0981445, -46.341465, -166.8902435, 47.4390259, -0.0421302
0.6323242, -0.4482422, -1.1088867, -46.2804871, -166.8902435, 47.6829262, -0.0407874
0.6220703, -0.4584961, -1.1357422, -45.3658562, -167.5, 47.5609779, -0.0421302
0.6206055, -0.4521484, -1.1459961, -45.0609779, -167.9878082, 47.5609779, -0.0495155
0.6196289, -0.4355469, -1.1630859, -43.6585388, -168.5365906, 47.6829262, -0.0505226
0.6206055, -0.4072266, -1.1577148, -43.2926826, -168.9634247, 47.5, -0.0535439
0.6279297, -0.3989258, -1.1552734, -42.9878044, -168.2317047, 47.3780518, -0.0525368
0.6289062, -0.3969727, -1.1459961, -43.0487823, -167.6219482, 47.0731735, -0.04448
0.6259766, -0.4067383, -1.144043, -43.4146347, -167.3780518, 46.6463432, -0.0263523
0.6210938, -0.4321289, -1.159668, -43.9634171, -167.4390259, 46.6463432, -0.0179599
0.6113281, -0.4492188, -1.1640625, -43.7195129, -168.4146423, 47.4390259, -0.012253
0.605957, -0.4775391, -1.168457, -42.5, -169.0853729, 47.8048782, -0.0135958
0.6005859, -0.4858398, -1.1621094, -41.341465, -169.2073212, 47.9268303, -0.0194705
0.5927734, -0.4819336, -1.1479492, -39.3902435, -168.4146423, 47.9268303, -0.0236667
0.5878906, -0.4702148, -1.1411133, -38.4756088, -167.6829376, 47.1341476, -0.0310521
0.5761719, -0.4321289, -1.1328125, -36.6463432, -166.8292694, 46.0975609, -0.0357519
0.5517578, -0.3764648, -1.159668, -36.5853653, -167.0121918, 45.3658562, -0.0313878
0.5478516, -0.3554688, -1.1914062, -37.3780479, -168.6585388, 44.6341476, -0.0283665
0.543457, -0.34375, -1.2539062, -37.9878044, -169.9390259, 44.6341476, -0.0229953
0.5493164, -0.347168, -1.269043, -41.0365868, -171.5243988, 45.7926826, -0.0152743
0.5849609, -0.3833008, -1.2524414, -42.4390259, -172.0121918, 46.9512215, -0.0082246
0.6025391, -0.4038086, -1.2255859, -44.6951218, -171.0975647, 48.4756126, -0.0020142
0.6191406, -0.4189453, -1.1791992, -45.0609779, -167.8048859, 48.4756126, -0.0028534
0.6123047, -0.4169922, -1.1665039, -44.5731735, -166.4024353, 48.1097565, -0.0099031
0.5722656, -0.3964844, -1.190918, -44.1463432, -166.0975647, 47.0121956, -0.011078
0.5507812, -0.3852539, -1.2172852, -44.5121956, -167.5, 46.7073174, -0.0198062
0.512207, -0.3632812, -1.2661133, -46.5853653, -171.2804871, 47.3780518, -0.0364233
0.5195312, -0.3598633, -1.2641602, -48.0487823, -173.1097565, 47.7439041, -0.0475013
0.5288086, -0.3637695, -1.2451172, -51.8292694, -173.9634247, 48.5975609, -0.0538796
0.5444336, -0.3510742, -1.2045898, -53.4756126, -173.7195129, 48.1097565, -0.0555581
0.5483398, -0.3432617, -1.1933594, -55.9146347, -172.5609741, 47.3170738, -0.0532082
0.5288086, -0.3457031, -1.1938477, -56.5243912, -172.6219482, 46.8902435, -0.043473
0.5185547, -0.3554688, -1.199707, -58.0487823, -174.8170776, 46.5853653, -0.04448
0.5019531, -0.4008789, -1.2133789, -59.6951218, -178.0487823, 47.8658562, -0.0495155
0.5014648, -0.4272461, -1.2197266, -60.3048782, -179.5731812, 48.2926826, -0.0505226
0.4970703, -0.4584961, -1.2314453, -60.18293, -180.5487823, 48.7195129, -0.0475013
0.4892578, -0.4643555, -1.2368164, -59.7560997, -180.5487823, 48.2926826, -0.0365911
0.4833984, -0.4526367, -1.2329102, -57.8048782, -179.7561035, 46.7073174, -0.0287022
0.4755859, -0.425293, -1.2133789, -57.0731735, -180, 45.4268303, -0.0236667
0.472168, -0.4057617, -1.2041016, -55.7317085, -180.3048859, 43.3536606, -0.0162814
0.4628906, -0.3759766, -1.2006836, -55.7317085, -180.7926941, 42.8658562, -0.0072175
0.4550781, -0.3706055, -1.2075195, -57.0121956, -182.1951294, 42.1951218, -0.0068818
0.440918, -0.387207, -1.2216797, -57.7439041, -182.9268341, 42.1341476, -0.0099031
0.4350586, -0.402832, -1.2265625, -59.5731735, -184.8780518, 42.8048782, -0.01561
0.4233398, -0.4262695, -1.2304688, -59.0853691, -185.4878082, 43.1707344, -0.0243381
0.4179688, -0.4389648, -1.2231445, -58.1097565, -185.6707306, 43.2317085, -0.030045
0.4155273, -0.4433594, -1.2128906, -55, -184.7561035, 43.4146347, -0.0303807
0.4111328, -0.440918, -1.2119141, -53.4756126, -183.7804871, 43.1707344, -0.0292058
0.3950195, -0.4243164, -1.2285156, -51.2195129, -181.5853729, 42.7439041, -0.0243381
0.3730469, -0.3911133, -1.2680664, -50.7317085, -180.9146423, 42.3170738, -0.0229953
0.3637695, -0.3720703, -1.2885742, -50.7926826, -180.1219482, 41.8902435, -0.0196384
0.3710938, -0.3530273, -1.3081055, -50.9756126, -180.0609741, 42.0731735, -0.0179599
0.3852539, -0.3461914, -1.3046875, -52.1951218, -179.5121918, 42.5, -0.0166171
0.4223633, -0.3564453, -1.2504883, -52.8048782, -179.3292694, 42.6829262, -0.0238346
0.4355469, -0.3613281, -1.2182617, -54.3292694, -176.9512177, 42.5609779, -0.0404517
0.4321289, -0.3701172, -1.1386719, -55.3048782, -175.36586, 41.7682953, -0.0488441
0.4121094, -0.3691406, -1.1040039, -55.4268303, -174.8170776, 40.9756088, -0.0525368
0.3613281, -0.3510742, -1.0405273, -55.3658562, -175.0609741, 39.6341476, -0.051194
0.3271484, -0.3359375, -1.0087891, -55, -175.36586, 38.2926826, -0.0488441
0.2392578, -0.3383789, -0.9892578, -53.9634171, -178.5365906, 36.4024391, -0.0431373
0.159668, -0.3500977, -1.0205078, -53.5975609, -180.6097565, 36.0975609, -0.0397803
0.1342773, -0.3657227, -1.0517578, -53.5365868, -186.2195129, 37.1341476, -0.030045
0.121582, -0.4047852, -1.1269531, -54.0853653, -189.0853729, 37.9878044, -0.0263523
0.128418, -0.4125977, -1.1655273, -54.5121956, -193.6585388, 40.7317085, -0.0203098
0.190918, -0.4135742, -1.2163086, -54.3902435, -194.8170776, 41.2804871, -0.0236667
0.2265625, -0.3969727, -1.2363281, -52.7439041, -194.2073212, 41.0975609, -0.0203098
0.2929688, -0.3417969, -1.246582, -51.0975609, -190.4268341, 39.5731735, -0.0303807
0.315918, -0.3110352, -1.2416992, -51.1585388, -188.1707306, 39.2073174, -0.0397803
0.3383789, -0.2612305, -1.206543, -52.6219521, -184.2073212, 38.9634171, -0.0406195
0.3374023, -0.2539062, -1.1860352, -53.9634171, -182.2561035, 39.5121956, -0.0391089
0.3217773, -0.2602539, -1.1425781, -57.3780518, -180.6707306, 40.3658562, -0.043473
0.2661133, -0.2802734, -1.1606445, -59.0853691, -180.3048859, 40.6097565, -0.051194
0.2294922, -0.2880859, -1.1958008, -62.3780518, -179.8170776, 41.7073174, -0.0417945
0.1640625, -0.2885742, -1.2719727, -63.5365868, -179.5731812, 42.6829262, -0.0451514
0.1557617, -0.2856445, -1.2910156, -64.3292694, -179.4512177, 45, -0.0538796
0.1772461, -0.2749023, -1.25, -63.6585388, -178.8414612, 45.6097565, -0.0481727
0.2036133, -0.265625, -1.2026367, -63.5975609, -177.7439117, 45.0609779, -0.0372625
0.2421875, -0.269043, -1.1103516, -64.6951218, -175.1829376, 43.2926826, -0.0297093
0.2446289, -0.2817383, -1.0771484, -65.6707306, -174.2073212, 43.2926826, -0.01561
0.2236328, -0.3330078, -1.0546875, -67.3170776, -174.2073212, 44.9390259, -0.002182
0.2094727, -0.347168, -1.0605469, -67.9268341, -174.3902435, 45.9146347, 0.005539
0.1704102, -0.3486328, -1.0668945, -67.5609741, -174.8170776, 46.2195129, 0.0146029
0.1293945, -0.3076172, -1.0527344, -67.4390259, -174.3292694, 44.9390259, 0.0219883
0.105957, -0.2792969, -1.046875, -66.7682953, -173.5365906, 40.6707344, 0.0231632
0.0605469, -0.2373047, -1.0488281, -66.6463394, -173.9634247, 38.7804871, 0.0213169
0.0463867, -0.2299805, -1.0517578, -68.5975647, -177.2561035, 37.1341476, 0.023331
0.0527344, -0.2509766, -1.0415039, -72.0121994, -182.0121918, 38.7804871, 0.0236667
0.0673828, -0.2773438, -1.0229492, -73.1707306, -183.9024506, 39.8780479, 0.0213169
0.1020508, -0.3251953, -0.9702148, -73.7195129, -185.3048859, 40.7317085, 0.0166171
0.1103516, -0.347168, -0.9550781, -72.7439041, -184.0853729, 40.5487823, 0.012253
0.0913086, -0.3710938, -0.9765625, -68.8414688, -181.646347, 39.5121956, 0.0105745
0.0717773, -0.3740234, -0.9970703, -66.5853653, -181.0975647, 39.2073174, 0.0072175
0.0429688, -0.3588867, -1.0332031, -62.2560997, -182.3780518, 39.0243912, 0.0010071
0.0332031, -0.3237305, -1.015625, -60.3048782, -183.7195129, 38.3536606, -0.0075532
0.0351562, -0.3022461, -1.0043945, -57.3170738, -184.5731812, 36.4024391, -0.0146029
0.0283203, -0.262207, -0.9975586, -56.2195129, -184.2073212, 35.6097565, -0.0209812
0.0180664, -0.2485352, -1.0117188, -55.4878044, -182.7439117, 35.1219521, -0.0260166
0.0019531, -0.2382812, -1.0678711, -55.6097565, -182.6219482, 37.4390259, -0.0381018
0.0024414, -0.2392578, -1.0942383, -55.7926826, -183.0487823, 39.0853653, -0.0381018
0.019043, -0.2387695, -1.1328125, -55.18293, -182.6829376, 42.4390259, -0.0397803
0.0375977, -0.2407227, -1.1342773, -54.9390259, -181.7073212, 43.2317085, -0.040116
0.0849609, -0.2329102, -1.0776367, -53.5975609, -178.5365906, 42.9878044, -0.0392767
0.1015625, -0.2250977, -1.0366211, -53.2926826, -176.8902435, 42.2560997, -0.0357519
0.1020508, -0.2026367, -0.9780273, -54.3292694, -174.0243988, 40.0609779, -0.0305486
0.0561523, -0.1767578, -0.9624023, -55.3048782, -172.7439117, 39.0243912, -0.0182956
0.019043, -0.1699219, -0.9746094, -58.9024391, -172.1951294, 38.6585388, -0.0090639
-0.050293, -0.1748047, -1.0229492, -60.7926826, -172.3780518, 39.4512215, 0.0008392
-0.0771484, -0.1835938, -1.0507812, -64.0243912, -173.2317047, 42.7439041, 0.0025177
-0.0834961, -0.1748047, -1.0996094, -65.7926865, -173.5975647, 46.8902435, 0.0018463
-0.0737305, -0.1542969, -1.1196289, -66.8902435, -172.86586, 47.2560997, -0.0062104
-0.0380859, -0.1069336, -1.1030273, -69.0853653, -170.2439117, 46.4024391, -0.0209812
-0.0161133, -0.0859375, -1.0615234, -70.6097565, -168.9634247, 45, -0.0250095
0.0336914, -0.0869141, -0.9277344, -75.4878082, -168.9024506, 42.2560997, -0.0337377
0.0458984, -0.112793, -0.8632812, -78.6585388, -169.2073212, 41.2195129, -0.0424659
0.0214844, -0.184082, -0.8076172, -84.5731735, -170.1219482, 40.8536606, -0.057908
-0.0639648, -0.2514648, -0.859375, -86.8292694, -170.1829376, 41.5853653, -0.0783856
-0.1083984, -0.2744141, -0.8959961, -87.3780518, -170.7317047, 43.9024391, -0.093492
-0.1694336, -0.3037109, -0.9145508, -85.6707306, -171.4634247, 45.1829262, -0.0988632
-0.1767578, -0.3037109, -0.8979492, -78.2926865, -173.2317047, 45.1829262, -0.0844282
-0.1635742, -0.2963867, -0.8496094, -69.7560959, -174.3902435, 41.9512215, -0.0464942
-0.1489258, -0.2871094, -0.8276367, -65.9146347, -174.8780518, 39.7560997, -0.002182
-0.144043, -0.277832, -0.8095703, -62.2560997, -175.4878082, 36.0365868, 0.0229953
-0.1450195, -0.2836914, -0.8173828, -61.7682953, -176.1585388, 35.1219521, 0.0357519
-0.1586914, -0.2983398, -0.878418, -61.0975609, -176.8902435, 36.0975609, 0.0307164
-0.1660156, -0.3007812, -0.9321289, -60.5487823, -177.4390259, 37.2560997, 0.0179599
-0.168457, -0.2714844, -1.0532227, -56.6463432, -175.6707306, 40, 0.0105745
-0.1499023, -0.1958008, -1.1191406, -53.9024391, -173.8414612, 41.0365868, 0.0003357
-0.1186523, -0.1557617, -1.1069336, -50.2439041, -169.8170776, 40, -0.0151064
-0.0444336, -0.0981445, -1.0097656, -49.6951218, -167.7439117, 38.7804871, -0.0223239
-0.0175781, -0.0854492, -0.9545898, -52.4390259, -163.8414612, 35.3048782, -0.0219883
-0.0112305, -0.0947266, -0.9008789, -59.0853691, -159.9390259, 34.2682953, -0.0253452
-0.0385742, -0.109375, -0.9194336, -63.0487823, -157.9878082, 35.3048782, -0.0318914
-0.1069336, -0.1118164, -1.0131836, -70.2439041, -155.36586, 38.7195129, -0.0303807
-0.1376953, -0.1079102, -1.0571289, -72.8048782, -154.2682953, 40.2439041, -0.0307164
-0.1757812, -0.0854492, -1.0766602, -75.1219559, -152.2561035, 41.8292694, -0.0270237
-0.175293, -0.0800781, -1.0454102, -74.8170776, -151.0975647, 41.6463432, -0.0218204
-0.1503906, -0.1040039, -0.9516602, -74.6341476, -148.9634247, 40.7317085, -0.024506
-0.1201172, -0.1376953, -0.8891602, -74.7560959, -147.6219482, 40.8536606, -0.0256809
-0.1201172, -0.1503906, -0.8857422, -76.8292694, -142.9878082, 40.7317085, -0.0260166
-0.1411133, -0.159668, -0.9155273, -78.6585388, -140.36586, 40.6097565, -0.0256809
-0.1523438, -0.1621094, -0.9311523, -82.0121994, -135.9146423, 39.5121956, -0.0253452
-0.1796875, -0.1655273, -0.8955078, -82.6219559, -133.1097565, 37.5609779, -0.0229953
-0.1933594, -0.1694336, -0.8579102, -81.9512177, -131.9512177, 36.0365868, -0.0191348
-0.206543, -0.1816406, -0.7602539, -79.0243912, -130.6707306, 33.3536606, -0.023331
-0.2177734, -0.1899414, -0.7294922, -77.1341476, -129.6341553, 31.7682934, -0.0246738
-0.2563477, -0.2246094, -0.7163086, -73.8414688, -128.9024353, 30.3658543, -0.0213169
-0.2773438, -0.2348633, -0.7158203, -71.4634171, -128.9024353, 30.6707325, -0.0203098
-0.3139648, -0.2094727, -0.6943359, -66.2195129, -129.146347, 31.1585369, -0.0151064
-0.3193359, -0.1308594, -0.6323242, -63.2926826, -128.5365906, 30.4268303, -0.0166171
-0.3261719, -0.0913086, -0.5981445, -57.9268303, -126.8292694, 25.6097565, -0.0231632
-0.3579102, -0.0537109, -0.5258789, -56.2195129, -126.0365906, 22.6829281, -0.0182956
-0.3828125, -0.0620117, -0.4995117, -54.9390259, -128.7195129, 18.5975609, -0.0176242
-0.4345703, -0.1054688, -0.5019531, -53.7804909, -134.6951294, 19.3902435, -0.0139315
-0.4560547, -0.1308594, -0.5410156, -53.1097565, -137.9878082, 20.8536587, -0.0137636
-0.4863281, -0.1469727, -0.6948242, -51.2195129, -143.7804871, 24.6951218, -0.0176242
-0.4873047, -0.1303711, -0.7792969, -49.2682953, -145.4268341, 26.7073174, -0.0323949
-0.4472656, -0.0585938, -0.8930664, -44.3902435, -145.7317047, 28.6585369, -0.0471656
-0.3657227, 0.0083008, -0.8706055, -42.5609779, -144.3902435, 28.3536587, -0.0552224
-0.3100586, 0.0263672, -0.8125, -41.0365868, -140.1219482, 26.4634151, -0.0548867
-0.2241211, 0.0263672, -0.6811523, -41.5853653, -137.1341553, 24.5121956, -0.047837
-0.2099609, 0.0083008, -0.6342773, -45.9146347, -131.7073212, 21.8292694, -0.030045
-0.2412109, -0.0268555, -0.6381836, -48.9024391, -129.6951294, 21.8292694, -0.0068818
-0.2851562, -0.0332031, -0.6826172, -53.9634171, -126.7682953, 24.0243912, 0.008896
-0.3828125, -0.012207, -0.7993164, -55.6707344, -125.6707382, 29.1463413, 0.0203098
-0.4125977, 0.0058594, -0.831543, -55, -125.3048782, 31.6463413, 0.0223239
-0.4248047, 0.046875, -0.8007812, -52.0121956, -124.3902435, 35.4268303, 0.0236667
-0.4042969, 0.0546875, -0.7646484, -50.7926826, -123.0487823, 36.0975609, 0.0298772
-0.3696289, 0.046875, -0.7329102, -51.6463432, -118.9634171, 35.5487823, 0.0287022
-0.3662109, 0.0166016, -0.7436523, -54.0853653, -117.2561035, 34.9390259, 0.0223239
-0.3623047, -0.0078125, -0.7368164, -59.6951218, -115.4878082, 34.0853653, 0.0115816
-0.3637695, -0.0810547, -0.6831055, -61.8292694, -115.4268341, 33.7195129, 0.0011749
-0.3618164, -0.1186523, -0.6572266, -62.2560997, -116.4024429, 32.9268303, 0.0005035
-0.3681641, -0.1748047, -0.6689453, -60.7926826, -116.5243912, 32.6829262, -0.011078
-0.3828125, -0.1777344, -0.7070312, -55.6707344, -115.6707306, 32.1951218, -0.026688
-0.3999023, -0.1323242, -0.7504883, -50.4268303, -112.0731735, 31.4634151, -0.0448157
-0.4042969, -0.0981445, -0.7348633, -48.1097565, -109.2073212, 30.8536587, -0.079057
-0.3925781, -0.0327148, -0.6430664, -45.3658562, -103.5365906, 27.3170738, -0.0985275
-0.3920898, -0.0073242, -0.5878906, -44.6341476, -101.3414688, 24.8780499, -0.1008774
-0.4111328, 0.0166016, -0.543457, -45.9146347, -98.4756088, 21.1585369, -0.0955062
-0.4702148, 0.0004883, -0.6147461, -47.1341476, -98.7804871, 20.9756107, -0.0861067
-0.4990234, -0.0195312, -0.6699219, -49.5121956, -101.5853653, 23.2926826, -0.0649577
-0.5102539, -0.0581055, -0.7182617, -49.9390259, -102.8658524, 25.1829281, -0.0431373
-0.4912109, -0.0654297, -0.6928711, -48.1097565, -102.9268341, 27.6219521, -0.027863
-0.4370117, -0.0620117, -0.5742188, -46.1585388, -100.9146347, 27.1341476, -0.0169528
-0.4179688, -0.0585938, -0.5087891, -42.2560997, -93.6585388, 22.3780499, -0.008896
-0.4365234, -0.0454102, -0.4394531, -40.7317085, -87.7439041, 16.7073174, -0.0028534
-0.4726562, -0.046875, -0.4433594, -40.9146347, -86.7682953, 15.1219511, 0.0092317
-0.5610352, -0.0566406, -0.5019531, -42.1341476, -89.3292694, 14.8170738, 0.0085603
-0.5947266, -0.0507812, -0.5410156, -42.2560997, -91.4634171, 16.2195129, 0.0078889
-0.6206055, -0.0136719, -0.5927734, -40, -95.3658524, 19.0853672, -0.0001678
-0.5854492, 0.0473633, -0.6298828, -38.4756088, -95.7317123, 19.3292694, 0.0011749
-0.5678711, 0.0703125, -0.6254883, -35.9146347, -92.8658524, 18.1707325, 0.0025177
-0.5302734, 0.074707, -0.5576172, -35.4878044, -90.7317123, 17.3780499, -0.0016785
-0.5175781, 0.0571289, -0.4980469, -36.0975609, -86.4634171, 16.280489, -0.0023499
-0.5024414, 0.027832, -0.3930664, -37.0731697, -84.9390259, 15.7926836, 0.0011749
-0.5175781, 0.015625, -0.3789062, -38.9634171, -82.4390259, 14.0853662, 0.0045319
-0.5878906, 0.0107422, -0.4506836, -40.5487823, -83.1707306, 14.1463413, 0.0030213
-0.6362305, 0.0107422, -0.5039062, -40.2439041, -85.2439041, 15.3048782, 0.002182
-0.6791992, 0.0195312, -0.5761719, -37.5609779, -92.3170776, 18.780489, 0.0005035
-0.6679688, 0.0219727, -0.5771484, -35.3048782, -94.8170776, 20.3048782, -0.0031891
-0.6044922, 0.0390625, -0.5288086, -30.5487804, -94.3292694, 20.1829281, -0.0114137
-0.5605469, 0.0517578, -0.4462891, -30.1829281, -91.7073212, 19.2682934, -0.0293736
-0.5605469, 0.0585938, -0.4165039, -29.8780499, -85.18293, 16.4634151, -0.0461585
-0.5966797, 0.0615234, -0.3823242, -30.4268303, -83.0487823, 15.1219511, -0.0518654
-0.6210938, 0.0561523, -0.3764648, -32.1341476, -83.3536606, 13.3536587, -0.0520333
-0.6796875, 0.0507812, -0.3696289, -32.3780479, -85.0609741, 12.9878054, -0.0498512
-0.7011719, 0.0507812, -0.3706055, -32.9268303, -87.9878082, 14.0853662, -0.0453193
-0.7294922, 0.0507812, -0.3945312, -32.1951218, -90.5487823, 15.8536587, -0.0293736
-0.7358398, 0.0581055, -0.4116211, -32.1341476, -91.2195129, 16.9512196, -0.0203098
-0.7216797, 0.0839844, -0.4165039, -32.0121956, -91.7682953, 17.6219521, -0.0162814
-0.7099609, 0.0908203, -0.4086914, -32.1951218, -91.1585388, 17.5, -0.0146029
-0.6865234, 0.0966797, -0.3754883, -34.0243912, -89.5121994, 16.4634151, -0.0135958
-0.6772461, 0.0766602, -0.324707, -34.6341476, -88.7804871, 16.0365849, -0.0125887
-0.6889648, 0.0634766, -0.3149414, -36.2195129, -87.8658524, 15.7926836, -0.0132601
-0.7114258, 0.0493164, -0.3256836, -36.6463432, -87.8048782, 15.6707325, -0.0062104
-0.7265625, 0.0541992, -0.3525391, -36.7682953, -89.146347, 16.7682934, -0.0068818
-0.7382812, 0.0634766, -0.3867188, -36.4024391, -89.8780518, 17.3780499, -0.0139315
-0.7387695, 0.0595703, -0.3974609, -35.3658562, -90.8536606, 18.1097565, -0.0193027
-0.7246094, 0.0361328, -0.3793945, -33.9024391, -90.7926865, 18.8414631, -0.0250095
-0.7177734, 0.0175781, -0.3579102, -32.6219521, -90, 19.1463413, -0.0276951
-0.7011719, -0.0078125, -0.3100586, -30.4268303, -87.0731735, 18.4756107, -0.0253452
-0.6992188, -0.0063477, -0.2851562, -29.2073174, -85, 17.3170738, -0.0216526
-0.7373047, 0.0043945, -0.2451172, -27.5, -81.2195129, 13.780488, -0.0193027
-0.796875, -0.0019531, -0.2524414, -27.0121956, -80.6707306, 12.8048782, -0.0176242
-0.8154297, -0.0161133, -0.2753906, -25, -83.2926865, 12.6219511, -0.0146029
-0.8378906, -0.0458984, -0.3452148, -23.5975609, -85.4268341, 13.3536587, -0.0283665
-0.8310547, -0.0551758, -0.3730469, -19.7560978, -89.5731735, 14.2682934, -0.0305486
-0.7797852, -0.0517578, -0.3730469, -16.9512196, -90.18293, 14.3292685, -0.0317235
-0.7460938, -0.0283203, -0.3530273, -13.2926836, -87.9878082, 13.0487804, -0.0317235
-0.7055664, 0.043457, -0.3154297, -11.4024391, -81.4634171, 9.5121956, -0.0320592
-0.7006836, 0.0834961, -0.3129883, -11.5853662, -77.8658524, 7.6829271, -0.027863
-0.7202148, 0.1557617, -0.3457031, -14.2682934, -72.6219559, 6.280488, -0.0256809
-0.7358398, 0.1801758, -0.3666992, -16.3414631, -71.1585388, 6.3414636, -0.0287022
-0.7524414, 0.190918, -0.4013672, -21.2195129, -69.2682953, 7.2560978, -0.0256809
-0.7504883, 0.1552734, -0.3818359, -23.4146347, -68.1097565, 8.1097565, -0.0216526
-0.7416992, 0.125, -0.3535156, -26.0365868, -65.6707306, 9.0243902, -0.018967
-0.7177734, 0.0766602, -0.2924805, -25.9146347, -63.9634171, 9.0243902, -0.0182956
-0.7089844, 0.0595703, -0.2807617, -23.9634151, -60.6097565, 8.4146347, -0.01561
-0.7163086, 0.0449219, -0.2670898, -22.560976, -58.5975609, 7.3780489, -0.01561
-0.7250977, 0.0478516, -0.2685547, -19.7560978, -53.9634171, 5.4268293, -0.0176242
-0.7436523, 0.0585938, -0.2753906, -19.0243912, -49.5731735, 3.5975611, -0.0193027
-0.7553711, 0.0664062, -0.2773438, -18.6585369, -47.5, 3.1097562, -0.0293736
-0.7817383, 0.081543, -0.2929688, -19.6951218, -43.9024391, 2.3170731, -0.0313878
-0.78125, 0.0820312, -0.3007812, -20, -42.0731735, 2.0121951, -0.0297093
-0.777832, 0.0864258, -0.3012695, -21.4634151, -38.7804871, 1.4634147, -0.0256809
-0.7666016, 0.0795898, -0.2915039, -21.2195129, -37.2560997, 1.0365853, -0.0251774
-0.7553711, 0.0756836, -0.2768555, -21.0365868, -33.6585388, 0.4878049, -0.0229953
-0.7416992, 0.0683594, -0.2495117, -20.1829281, -30.9146347, -0.0609756, -0.0191348
-0.7353516, 0.0673828, -0.2373047, -19.2073174, -25.5487804, -1.402439, -0.0223239
-0.7407227, 0.0566406, -0.2114258, -17.9268303, -20.9146347, -2.1341465, -0.0297093
-0.746582, 0.0498047, -0.1953125, -17.1341476, -19.2073174, -2.804878, -0.0313878
-0.7592773, 0.0620117, -0.1630859, -15.4268293, -15.4268293, -4.390244, -0.0263523
-0.7714844, 0.074707, -0.1547852, -14.7560978, -14.0853662, -5, -0.0243381
-0.7900391, 0.1147461, -0.1601562, -14.1463413, -11.8292685, -6.4634147, -0.0203098
-0.7973633, 0.1289062, -0.1674805, -14.3902445, -11.0975609, -6.9512196, -0.0149386
-0.800293, 0.1279297, -0.199707, -15, -10.8536587, -6.7073174, -0.0135958
-0.7885742, 0.1030273, -0.2495117, -15, -10.5487804, -6.3414636, -0.0095674
-0.7744141, 0.0844727, -0.2675781, -15.6097565, -9.9390249, -5.609756, -0.0102388
-0.734375, 0.0493164, -0.2607422, -15.1219511, -8.6585369, -5.3658538, -0.0176242
-0.7138672, 0.0449219, -0.2407227, -12.0731707, -4.1463413, -6.4024391, -0.0162814
-0.6889648, 0.0629883, -0.1992188, -9.2073174, 2.8658538, -8.6585369, -0.0162814
-0.6933594, 0.0761719, -0.1821289, -8.2317076, 6.3414636, -10.1219511, -0.0169528
-0.7294922, 0.1196289, -0.1782227, -8.6585369, 12.4390249, -11.7682934, -0.0142672
-0.7543945, 0.1411133, -0.1899414, -9.8780489, 13.5365858, -11.9512196, -0.0129244
-0.7880859, 0.1660156, -0.215332, -11.6463413, 12.9878054, -11.0975609, -0.0119173
-0.7900391, 0.1635742, -0.2226562, -12.0121956, 12.4390249, -10.4878054, -0.0182956
-0.7749023, 0.1489258, -0.2358398, -12.3780489, 12.0121956, -9.5731707, -0.018967
-0.7475586, 0.1142578, -0.2441406, -12.3780489, 12.560976, -9.4512196, -0.0193027
-0.7294922, 0.0966797, -0.2431641, -12.2560978, 14.5121956, -9.5121956, -0.0166171
-0.703125, 0.0678711, -0.2314453, -11.5853662, 16.1585369, -9.6951218, -0.0179599
-0.6904297, 0.0595703, -0.2319336, -8.9024391, 19.0853672, -10.2439022, -0.0229953
-0.6835938, 0.0712891, -0.2426758, -6.5243902, 23.4146347, -11.5243902, -0.0256809
-0.6845703, 0.0869141, -0.2583008, -5.7926831, 25.4878063, -12.3170738, -0.0221561
-0.7060547, 0.121582, -0.3046875, -6.5243902, 28.9634151, -12.9878054, -0.0223239
-0.715332, 0.1337891, -0.3139648, -7.5, 30.1829281, -12.8048782, -0.023331
-0.7094727, 0.1386719, -0.2958984, -8.841464, 32.5, -11.7073174, -0.0250095
-0.699707, 0.137207, -0.2783203, -8.9024391, 34.3902435, -11.341464, -0.0223239
-0.690918, 0.137207, -0.2612305, -8.2317076, 39.2682953, -11.341464, -0.0229953
-0.6923828, 0.1303711, -0.2832031, -8.2926826, 41.7073174, -11.0975609, -0.0231632
-0.6923828, 0.1176758, -0.3017578, -8.6585369, 45.0609779, -11.0975609, -0.0171206
-0.690918, 0.097168, -0.3520508, -9.3902445, 45.9146347, -10.7926836, -0.0149386
-0.6879883, 0.0869141, -0.3681641, -10.6097565, 47.5609779, -10.3048782, -0.0149386
-0.6616211, 0.0766602, -0.387207, -11.7073174, 49.9390259, -10.1219511, -0.0179599
-0.6484375, 0.074707, -0.3852539, -11.341464, 51.8902435, -10.1219511, -0.0135958
-0.6289062, 0.0800781, -0.3793945, -10.5487804, 56.2804909, -10.7926836, -0.008896
-0.6210938, 0.0839844, -0.3833008, -10.3048782, 59.0853691, -11.1585369, -0.0109102
-0.621582, 0.09375, -0.402832, -10.9146347, 64.8780518, -11.6463413, -0.0169528
-0.6289062, 0.0922852, -0.4086914, -11.7682934, 67.0121994, -11.7073174, -0.023331
-0.628418, 0.0786133, -0.4057617, -12.5, 70.7926865, -10.9146347, -0.0276951
-0.6181641, 0.0576172, -0.3857422, -12.8048782, 72.68293, -10.6097565, -0.0313878
-0.6162109, 0.0449219, -0.378418, -12.2560978, 76.3414688, -10.3658543, -0.0377661
-0.6235352, 0.0283203, -0.3881836, -11.5853662, 78.2926865, -10.4268293, -0.0397803
-0.6240234, 0.0258789, -0.3925781, -10.060976, 82.6219559, -10.3658543, -0.0354162
-0.6298828, 0.0185547, -0.3935547, -8.719512, 85.9146347, -10.4878054, -0.0303807
-0.6328125, 0.0244141, -0.3886719, -7.9878049, 87.2560959, -10.6707315, -0.0250095
-0.6298828, 0.0424805, -0.3623047, -6.4024391, 90.4268341, -11.7682934, -0.0176242
-0.6318359, 0.0546875, -0.3515625, -5.670732, 91.4024429, -12.1341467, -0.0176242
-0.6367188, 0.0869141, -0.3725586, -5.7926831, 93.5975647, -12.6829271, -0.0172885
-0.6401367, 0.1005859, -0.3901367, -6.3414636, 93.7195129, -13.0487804, -0.0253452
-0.6474609, 0.105957, -0.425293, -8.841464, 93.8414688, -12.7439032, -0.03122
-0.6347656, 0.0878906, -0.4345703, -9.6951218, 93.5365906, -12.4390249, -0.0297093
-0.6191406, 0.0678711, -0.4306641, -10.7317076, 94.0243912, -11.5243902, -0.0285344
-0.5825195, 0.0541992, -0.409668, -9.9390249, 94.8780518, -11.1585369, -0.0270237
-0.5688477, 0.0561523, -0.4033203, -7.4390244, 98.5975647, -10.9146347, -0.0258488
-0.5556641, 0.078125, -0.387207, -5, 103.9634171, -11.280488, -0.023331
-0.5595703, 0.0859375, -0.3837891, -5.0609756, 106.646347, -11.8902445, -0.0256809
-0.5761719, 0.0898438, -0.4023438, -5.609756, 110.5487823, -12.4390249, -0.0317235
-0.5908203, 0.0830078, -0.4194336, -6.3414636, 111.5853653, -12.8658543, -0.0276951
-0.6123047, 0.0654297, -0.4477539, -8.5365858, 111.1585388, -12.5, -0.026688
-0.6108398, 0.0546875, -0.4624023, -9.2073174, 110.4268341, -12.5, -0.0219883
-0.597168, 0.0405273, -0.4794922, -9.5121956, 109.5121994, -12.6219511, -0.0151064
-0.574707, 0.0283203, -0.4916992, -8.6585369, 109.3292694, -12.6829271, -0.0078889
-0.5551758, 0.0292969, -0.496582, -7.8658538, 110, -12.6829271, -0.0045319
-0.5219727, 0.0454102, -0.515625, -7.1341467, 111.0975647, -12.8658543, -0.0052033
-0.5107422, 0.0532227, -0.5317383, -6.280488, 114.0243912, -13.5365858, -0.005539
-0.4946289, 0.0644531, -0.5629883, -6.8292685, 117.3170776, -13.9634151, -0.008896
-0.4907227, 0.0551758, -0.5688477, -7.3170733, 118.8414688, -13.5365858, -0.0250095
-0.4873047, 0.027832, -0.5517578, -6.9512196, 121.646347, -13.1707315, -0.0391089
-0.4833984, 0.0166016, -0.5361328, -6.0365853, 123.2926865, -13.1707315, -0.0491798
-0.4755859, -0.003418, -0.5234375, -3.7804878, 127.2561035, -13.4756098, -0.0518654
-0.4765625, -0.0151367, -0.5419922, -2.8658538, 128.7804871, -13.780488, -0.0538796
-0.5004883, -0.0083008, -0.6020508, -1.7682927, 130.0609741, -13.7195129, -0.0491798
-0.5092773, 0.0078125, -0.6518555, -2.195122, 129.9390259, -13.780488, -0.0406195
-0.5009766, 0.015625, -0.6640625, -3.1097562, 130.1829224, -13.6585369, -0.026688
-0.4765625, 0.015625, -0.6757812, -3.2317073, 130.7317047, -14.2682934, -0.0149386
-0.4648438, 0.0102539, -0.6811523, -3.5975611, 133.4756165, -14.9390249, 0.0031891
-0.4370117, 0.0009766, -0.6748047, -3.5975611, 137.1951294, -15.4268293, 0.0038605
-0.4277344, -0.0024414, -0.6582031, -2.8658538, 139.3292694, -15.7926836, -0.0005035
-0.4174805, -0.0141602, -0.6064453, -1.5243902, 143.7195129, -17.1341476, -0.005539
-0.4223633, -0.0195312, -0.5795898, -0.1219512, 145.6707306, -17.8048782, -0.0162814
-0.4428711, -0.0424805, -0.5683594, 2.5, 148.8414612, -18.3536587, -0.018967
-0.4628906, -0.0507812, -0.5732422, 3.2926829, 149.8170776, -18.5365849, -0.0276951
-0.5, -0.0498047, -0.5693359, 4.6951222, 150.3048859, -19.0853672, -0.0350805
-0.5205078, -0.027832, -0.5424805, 5.4878049, 149.6341553, -19.8780499, -0.0407874
-0.5205078, -0.012207, -0.5297852, 7.3170733, 147.1341553, -22.3170738, -0.04448
-0.5224609, 0.0019531, -0.4912109, 8.0487804, 145.5487823, -23.5975609, -0.0540475
-0.5214844, -0.0019531, -0.4741211, 8.841464, 142.2561035, -26.5243912, -0.0585794
-0.5205078, -0.0253906, -0.4326172, 9.3292685, 138.7195129, -28.5975609, -0.057908
-0.5239258, -0.0410156, -0.4135742, 9.6951218, 136.3414612, -30, -0.0458228
-0.5249023, -0.0683594, -0.4116211, 11.1585369, 131.8902435, -32.6219521, -0.0129244
-0.5244141, -0.0766602, -0.4521484, 11.7073174, 129.5731812, -33.7195129, 0.0270237
-0.5253906, -0.0708008, -0.6142578, 10.1829271, 124.7561035, -35, 0.0599222
-0.5029297, -0.0463867, -0.7695312, 8.4756098, 121.8902435, -34.8170738, 0.0733501
-0.4638672, -0.0297852, -0.793457, 6.1585369, 117.9878082, -34.5121956, 0.0642863
-0.3696289, 0.0009766, -0.765625, 6.280488, 117.3780518, -35.1829262, 0.0488441
-0.3222656, 0.012207, -0.7397461, 7.7439027, 122.1951218, -38.3536606, 0.0287022
-0.2724609, 0.0175781, -0.7490234, 8.0487804, 126.8292694, -39.7560997, 0.0112459
-0.2773438, 0.0161133, -0.7929688, 4.8780489, 136.7073212, -41.7073174, -0.0031891
-0.3056641, -0.0102539, -0.8837891, -1.402439, 143.0487823, -37.6219521, -0.008896
-0.315918, -0.0307617, -0.9013672, -3.2926829, 143.7195129, -33.9634171, -0.0166171
-0.2817383, -0.0541992, -0.8852539, -2.5, 144.4512177, -28.0487804, -0.0256809
-0.2548828, -0.0395508, -0.8618164, 0.2439024, 146.9512177, -26.9512196, -0.0223239
-0.2314453, -0.0131836, -0.8154297, 6.5243902, 157.0121918, -27.8048782, -0.0280308
-0.2602539, -0.0180664, -0.7954102, 8.9634151, 162.5609741, -28.3536587, -0.0290379
-0.2817383, -0.0410156, -0.7900391, 11.1585369, 168.6585388, -27.6829281, -0.0297093
-0.3100586, -0.1005859, -0.7714844, 11.4024391, 169.0853729, -26.5853672, -0.0317235
-0.3144531, -0.1293945, -0.7612305, 11.341464, 166.646347, -25.6707325, -0.0337377
-0.3271484, -0.1699219, -0.7412109, 11.7073174, 165.2439117, -25.7926826, -0.0317235
-0.3369141, -0.1860352, -0.737793, 13.0487804, 163.4146423, -27.9268303, -0.0350805
-0.3510742, -0.2070312, -0.7558594, 16.0365849, 161.2195129, -29.6341476, -0.0399481
-0.3457031, -0.2163086, -0.7797852, 17.7439022, 159.5121918, -29.6951218, -0.043473
-0.3330078, -0.199707, -0.862793, 20.8536587, 156.646347, -30.3658543, -0.0377661
-0.3110352, -0.1826172, -0.9169922, 21.8902435, 156.0975647, -30.8536587, -0.0350805
-0.2592773, -0.1357422, -1.0004883, 22.439024, 157.3780518, -32.7439041, -0.0260166
-0.2080078, -0.0917969, -1.0102539, 21.9512196, 158.9024353, -34.2682953, -0.0184634
-0.1831055, -0.0830078, -0.9736328, 20.6097565, 162.1951294, -38.1097565, -0.0102388
-0.1494141, -0.0927734, -0.8383789, 20.3048782, 163.9634247, -39.9390259, -0.0052033
-0.1459961, -0.1088867, -0.765625, 21.280489, 165.9756165, -43.1707344, -0.0052033
-0.1958008, -0.1430664, -0.6645508, 22.1951218, 166.5243988, -44.5121956, -0.0062104
-0.2338867, -0.1616211, -0.6616211, 24.0853672, 165.5487823, -45.2439041, -0.005539
-0.3242188, -0.1640625, -0.7753906, 24.7560978, 160.0609741, -44.1463432, -0.0099031
-0.3574219, -0.1518555, -0.8662109, 25, 155.9756165, -43.2926826, -0.0149386
-0.3764648, -0.1235352, -1.0327148, 23.1097565, 146.9512177, -41.341465, -0.014435
-0.3525391, -0.1132812, -1.0874023, 21.8292694, 143.1097565, -40, -0.0216526
-0.269043, -0.1118164, -1.0947266, 20, 137.9878082, -36.9512215, -0.021149
-0.1450195, -0.1323242, -0.9897461, 20.9146347, 137.1951294, -35.1219521, -0.0149386
-0.0864258, -0.1298828, -0.925293, 26.9512196, 141.2195129, -31.6463413, -0.01561
-0.0288086, -0.1015625, -0.8681641, 30.7317085, 145.9146423, -31.280489, -0.0176242
-0.0400391, -0.0751953, -0.8979492, 36.8292694, 159.2682953, -31.7682934, -0.0119173
-0.1152344, -0.027832, -1.0561523, 37.6829262, 164.7561035, -31.4634151, -0.0142672
-0.152832, -0.0097656, -1.1547852, 34.5731697, 168.1097565, -28.4756107, -0.0209812
-0.175293, -0.0253906, -1.3178711, 26.7073174, 163.2926941, -23.1097565, -0.0196384
-0.1533203, -0.0488281, -1.3466797, 23.0487804, 160.3048859, -20.2439022, -0.0273594
-0.0507812, -0.0957031, -1.2880859, 19.2682934, 159.146347, -16.1585369, -0.0337377
0.0087891, -0.1152344, -1.2080078, 19.939024, 162.0121918, -15.5487804, -0.03122
0.1000977, -0.1308594, -1.0322266, 24.2682934, 173.3536682, -17.8048782, -0.0287022
0.0771484, -0.1176758, -0.9086914, 26.7073174, 179.8780518, -19.6951218, -0.0404517
0.0239258, -0.109375, -0.8759766, 30.6097565, 189.0243988, -22.8658543, -0.0431373
-0.1157227, -0.1035156, -0.8979492, 31.2195129, 190.2439117, -23.1707325, -0.0439765
-0.1782227, -0.1044922, -0.9487305, 27.7439022, 185.36586, -22.6829281, -0.0424659
-0.2651367, -0.1254883, -1.0830078, 24.6951218, 180.1219482, -21.8292694, -0.0421302
-0.2753906, -0.1420898, -1.1347656, 16.6463413, 168.2317047, -20.8536587, -0.0404517
-0.2226562, -0.1967773, -1.1538086, 11.5853662, 157.5609741, -21.0365868, -0.0364233
-0.1660156, -0.2304688, -1.1176758, 11.280488, 153.2926941, -22.2560978, -0.0339055
-0.0366211, -0.2949219, -0.9824219, 14.9390249, 150.1219482, -25.1219521, -0.0310521
0.0195312, -0.3115234, -0.9145508, 18.780489, 150.6707306, -27.4390259, -0.0297093
0.0654297, -0.309082, -0.8144531, 27.6219521, 154.8170776, -33.2317085, -0.0287022
0.0195312, -0.2666016, -0.8227539, 31.7073174, 156.8292694, -36.2195129, -0.0246738
-0.0214844, -0.2304688, -0.8769531, 37.5609779, 157.1951294, -39.7560997, -0.0238346
-0.1118164, -0.1811523, -1.0654297, 37.8048782, 155.5487823, -40.4878044, -0.0224918
-0.1425781, -0.1557617, -1.1787109, 33.1097565, 147.6219482, -37.9878044, -0.0229953
-0.1328125, -0.1357422, -1.3735352, 29.1463413, 143.4756165, -35.1829262, -0.0246738
-0.0986328, -0.1264648, -1.4189453, 21.5853672, 137.1341553, -29.2682934, -0.0250095
0.0117188, -0.1147461, -1.3857422, 19.8170738, 136.646347, -22.8048782, -0.0206455
0.0942383, -0.1074219, -1.3310547, 22.2560978, 138.9024353, -20.3048782, -0.0204776
0.2338867, -0.0839844, -1.1831055, 30.4268303, 149.4512177, -18.2317085, -0.0159457
0.2709961, -0.0649414, -1.1171875, 35.0609779, 156.8292694, -18.6585369, -0.0132601
0.2539062, -0.0253906, -1.0458984, 40.6707344, 172.1951294, -19.7560978, -0.011078
0.1210938, -0.0043945, -1.0585938, 41.7682953, 177.9268341, -19.3292694, -0.0104067
0.0424805, -0.0063477, -1.0839844, 38.4756088, 181.2804871, -15.4268293, -0.0135958
-0.0776367, -0.0551758, -1.1308594, 35.9146347, 178.9634247, -12.5, -0.0256809
-0.1015625, -0.090332, -1.1381836, 31.4634151, 168.7195129, -5.9146342, -0.0370947
-0.0917969, -0.1743164, -1.1118164, 30.3048782, 162.9268341, -3.5975611, -0.0505226
-0.0610352, -0.2099609, -1.0791016, 31.6463413, 153.0487823, -1.7073171, -0.0619364
0.0102539, -0.2729492, -1.0107422, 36.5853653, 148.2926788, -2.9878049, -0.0626078
0.0449219, -0.293457, -0.9799805, 39.6951218, 147.9878082, -4.3292685, -0.0599222
0.0864258, -0.2910156, -0.9526367, 45.6707344, 149.5731812, -6.7682929, -0.0448157
0.0908203, -0.2744141, -0.9609375, 47.5, 150.9756165, -7.9268293, -0.0317235
0.0800781, -0.2104492, -1.0166016, 49.5731735, 151.646347, -10.9146347, -0.0152743
0.0581055, -0.1577148, -1.1147461, 48.5975609, 150.9756165, -12.1951218, -0.0003357
0.0537109, -0.1362305, -1.1582031, 43.7804871, 147.4390259, -13.780488, 0.008896
0.0664062, -0.1098633, -1.2089844, 40.3048782, 145.2439117, -14.2682934, 0.0186313
0.0830078, -0.1049805, -1.2099609, 33.1097565, 142.2561035, -13.841464, 0.0256809
0.1328125, -0.1166992, -1.1474609, 28.6585369, 142.1951294, -13.9024391, 0.0240024
0.1567383, -0.1230469, -1.0922852, 27.3170738, 143.1097565, -14.5731707, 0.0125887
0.1821289, -0.1469727, -0.9765625, 27.5, 145, -16.5243912, -0.0104067
0.1757812, -0.1635742, -0.9331055, 27.9268303, 145.7926788, -17.5, -0.0290379
0.1303711, -0.1948242, -0.8999023, 29.2073174, 145.1829376, -19.6951218, -0.0411231
0.0991211, -0.206543, -0.9248047, 29.2073174, 143.2926788, -20.4878044, -0.0473335
0.0292969, -0.2324219, -1.0102539, 29.3292694, 137.3780518, -21.5243912, -0.0508583
0.0068359, -0.2670898, -1.0703125, 29.2073174, 133.3536682, -21.3414631, -0.0458228
0.0205078, -0.2861328, -1.0751953, 30.3658543, 124.3292694, -20, -0.0253452
0.0791016, -0.3222656, -1.0205078, 31.9512196, 120.3048782, -19.1463413, -0.0129244
0.1206055, -0.3300781, -0.9912109, 37.9878044, 115.7317123, -18.6585369, -0.0015106
0.1894531, -0.3198242, -0.9980469, 44.5121956, 117.5609818, -19.3292694, 0.0132601
0.2070312, -0.2993164, -1.0473633, 46.8292694, 120.0609818, -20.1219521, 0.0223239
0.215332, -0.2392578, -1.2011719, 47.7439041, 125.0609818, -21.5853672, 0.0280308
0.2124023, -0.2021484, -1.2758789, 46.4024391, 126.7073212, -21.280489, 0.0287022
0.2197266, -0.1367188, -1.362793, 42.4390259, 127.0731735, -19.2073174, 0.033402
0.2436523, -0.1137695, -1.3525391, 40.5487823, 127.1951218, -17.0121956, 0.0320592
0.3110352, -0.0927734, -1.2431641, 38.6585388, 129.5121918, -13.1707315, 0.0240024
0.3676758, -0.0888672, -1.1040039, 38.5365868, 132.9268341, -11.5853662, 0.0166171
0.3691406, -0.0908203, -1.0605469, 38.7195129, 143.2926788, -10.1219511, 0.0105745
0.3149414, -0.1079102, -1.0664062, 37.5609779, 148.5365906, -9.9390249, 0.0099031
0.2705078, -0.1259766, -1.1098633, 32.0121956, 155, -8.719512, 0.0082246
0.1801758, -0.1669922, -1.2143555, 24.0853672, 152.5609741, -6.5853658, 0.0025177
0.1606445, -0.2011719, -1.2373047, 19.8780499, 148.5365906, -4.6951222, -0.0028534
0.1816406, -0.2836914, -1.1914062, 15.1829271, 139.6341553, -1.4634147, -0.0095674
0.2250977, -0.3222656, -1.125, 15.6097565, 136.2804871, -0.6707317, -0.0162814
0.3120117, -0.3837891, -0.9614258, 20.6707325, 135, -0.9756098, -0.0229953
0.347168, -0.4038086, -0.8847656, 25.2439022, 136.4634247, -2.0121951, -0.0283665
0.3574219, -0.4077148, -0.7993164, 35.5487823, 141.2195129, -5.9756098, -0.0350805
0.3032227, -0.3720703, -0.8481445, 39.7560997, 142.5, -8.1097565, -0.0374304
0.269043, -0.3447266, -0.9101562, 44.3292694, 140.7317047, -12.3780489, -0.0406195
0.2050781, -0.2768555, -1.0463867, 44.7560997, 137.9268341, -14.2682934, -0.0528725
0.1982422, -0.2514648, -1.0834961, 41.6463432, 129.5731812, -17.0121956, -0.0679789
0.2250977, -0.2314453, -1.0629883, 37.0121956, 121.646347, -18.2317085, -0.0750286
0.2573242, -0.2436523, -1.0117188, 35.3048782, 118.7195129, -18.5975609, -0.0795605
0.3354492, -0.293457, -0.878418, 35.5487823, 115.6707306, -20.3658543, -0.0726787
0.3691406, -0.3232422, -0.8217773, 37.0731697, 115.36586, -21.1585369, -0.0622721
0.3881836, -0.3691406, -0.7724609, 42.1341476, 115.7926865, -25, -0.051194
0.3779297, -0.387207, -0.7856445, 45.0609779, 115.6707306, -27.3170738, -0.0317235
0.3310547, -0.3833008, -0.8999023, 51.1585388, 113.0487823, -31.4024391, -0.023331
0.2919922, -0.3745117, -1.0620117, 53.2317085, 110.9146347, -32.9268303, -0.0182956
0.2895508, -0.3779297, -1.1342773, 56.341465, 105.6097565, -34.0853653, -0.01561
0.3339844, -0.3881836, -1.1821289, 57.0121956, 103.3536606, -33.5365868, -0.008896
0.378418, -0.394043, -1.1611328, 57.8048782, 101.0365906, -30.6707325, -0.0115816
0.4946289, -0.3999023, -1.0478516, 59.8780518, 103.9024429, -29.2073174, -0.0216526
0.5449219, -0.3920898, -0.9887695, 61.7073174, 107.6219559, -29.7560978, -0.0196384
0.5893555, -0.3486328, -0.9204102, 66.5243912, 116.7682953, -33.1097565, -0.0142672
0.581543, -0.3129883, -0.9355469, 68.1707306, 120.9146347, -35.6097565, -0.0117494
0.5024414, -0.2319336, -1.03125, 66.6463394, 125, -39.5731735, -0.0198062
0.4521484, -0.1894531, -1.1054688, 63.5365868, 124.5121994, -39.8780479, -0.0411231
0.3754883, -0.1313477, -1.2280273, 53.9634171, 120.8536606, -37.6219521, -0.0548867
0.3666992, -0.1030273, -1.2749023, 48.1707344, 118.9024429, -35.1219521, -0.0538796
0.3916016, -0.0976562, -1.2641602, 36.341465, 117.6219559, -29.3292694, -0.0332341
0.4716797, -0.1162109, -1.1733398, 30.9756107, 118.4756088, -26.5243912, 0.0062104
0.5209961, -0.1376953, -1.1142578, 23.0487804, 123.2317123, -22.9878063, 0.0377661
0.5942383, -0.2026367, -1.0019531, 18.4756107, 128.5365906, -21.7682934, 0.0501869
0.6088867, -0.2392578, -0.9633789, 17.0121956, 130.8536682, -21.9512196, 0.0454871
0.5957031, -0.3027344, -0.9204102, 14.8780489, 132.5, -23.2926826, 0.0384375
0.5776367, -0.3334961, -0.9077148, 14.0853662, 131.7682953, -23.9024391, 0.023331
0.5292969, -0.3813477, -0.8925781, 13.5975609, 127.86586, -24.7560978, 0.0099031
0.5126953, -0.3984375, -0.8867188, 14.3902445, 125.18293, -25.060976, -0.005539
0.4887695, -0.425293, -0.8481445, 16.9512196, 120, -25.4268303, -0.0152743
0.4799805, -0.4365234, -0.7939453, 18.9024391, 118.0487823, -25.7317085, -0.0223239
0.484375, -0.4384766, -0.7626953, 24.4512196, 115.4268341, -26.5853672, -0.0303807
0.4912109, -0.4443359, -0.7011719, 27.9268303, 114.0243912, -27.4390259, -0.0303807
0.4985352, -0.4443359, -0.6713867, 35, 110.6097565, -30.3658543, -0.0305486
0.5009766, -0.4365234, -0.6342773, 42.7439041, 106.0975647, -33.841465, -0.0310521
0.5009766, -0.4287109, -0.6430664, 46.2195129, 103.1707306, -36.0975609, -0.0271916
0.4985352, -0.4140625, -0.7470703, 51.4024391, 97.8048782, -39.7560997, -0.030045
0.4980469, -0.4086914, -0.8398438, 52.9268303, 95.0609741, -40.9756088, -0.0283665
0.5083008, -0.3984375, -1.0493164, 52.6829262, 91.5243912, -42.3170738, -0.0260166
0.5322266, -0.4042969, -1.1245117, 51.5853653, 90.4268341, -41.5853653, -0.0229953
0.6147461, -0.4213867, -1.1738281, 49.5731735, 90.3658524, -39.0853653, -0.0216526
0.7402344, -0.4262695, -1.0761719, 48.9634171, 91.8902435, -37.4390259, -0.0216526
0.8081055, -0.4204102, -0.9990234, 51.2195129, 98.7195129, -35.6707344, -0.0206455
0.9067383, -0.3847656, -0.8808594, 53.4756126, 104.0243912, -36.0975609, -0.0179599
0.9165039, -0.3540039, -0.8657227, 59.3292694, 116.2804871, -40.1829262, -0.018967
0.8588867, -0.2817383, -0.9165039, 62.3170738, 124.5731735, -46.341465, -0.0256809
0.7978516, -0.2529297, -0.9736328, 61.7682953, 125.9756165, -48.6585388, -0.0287022
0.6757812, -0.2006836, -1.0825195, 56.5853653, 123.4146347, -50.3048782, -0.0310521
0.6235352, -0.1831055, -1.1157227, 52.4390259, 120.5487823, -49.0853653, -0.0263523
0.5805664, -0.1767578, -1.1318359, 42.9878044, 114.146347, -44.0243912, -0.0270237
0.5878906, -0.1831055, -1.1098633, 38.5975609, 112.4390259, -40.9146347, -0.0310521
0.6420898, -0.2177734, -1.0244141, 32.5, 112.0731735, -36.5243912, -0.030045
0.7207031, -0.2734375, -0.9384766, 30.7317085, 113.4146347, -35.3048782, -0.0370947
0.7548828, -0.2973633, -0.9111328, 28.9634151, 116.7682953, -34.5121956, -0.0464942
0.7880859, -0.3413086, -0.9003906, 28.2926826, 118.3536606, -35, -0.0552224
0.7944336, -0.3544922, -0.9125977, 27.5, 119.5121994, -36.4024391, -0.051194
0.7973633, -0.3779297, -0.9443359, 26.0365868, 118.0487823, -37.8658562, -0.0461585
0.7924805, -0.3862305, -0.9526367, 25.8536587, 116.5853653, -37.8048782, -0.0438087
0.800293, -0.3974609, -0.9316406, 25.8536587, 114.5121994, -37.8048782, -0.0421302
0.8081055, -0.3979492, -0.9067383, 26.4024391, 113.7804871, -37.4390259, -0.0391089
0.8334961, -0.3955078, -0.840332, 28.780489, 113.2926865, -37.9268303, -0.0337377
0.8408203, -0.3920898, -0.7749023, 30.1829281, 113.9024429, -38.5365868, -0.033402
0.8374023, -0.3920898, -0.7543945, 33.6585388, 114.9390259, -40.9146347, -0.0370947
0.800293, -0.3935547, -0.7402344, 35.2439041, 115.2439041, -42.2560997, -0.051194
0.7763672, -0.3911133, -0.7495117, 37.9878044, 113.2317123, -44.6341476, -0.0538796
0.7407227, -0.3867188, -0.7792969, 39.0853653, 111.5243912, -45.4878044, -0.0459907
0.7319336, -0.3857422, -0.7988281, 40.2439041, 106.0365906, -46.4634171, -0.0458228
0.7324219, -0.4008789, -0.8300781, 40.6097565, 101.0975647, -45.9756126, -0.0370947
0.7446289, -0.4013672, -0.8378906, 40.8536606, 99.2682953, -45.7317085, -0.0097353
0.7807617, -0.4155273, -0.8535156, 41.2195129, 97.9268341, -44.6341476, 0.0139315
0.8041992, -0.4189453, -0.8662109, 41.4634171, 98.1097565, -44.2073174, 0.0350805
0.8476562, -0.4140625, -0.9111328, 42.0731735, 99.8170776, -44.0243912, 0.0542153
0.8867188, -0.4057617, -0.9365234, 42.1951218, 100.9146347, -44.4512215, 0.0592508
0.9013672, -0.3994141, -0.9404297, 41.9512215, 103.1097565, -45, 0.0616007
0.9238281, -0.3764648, -0.9199219, 41.7073174, 104.0243912, -45.3658562, 0.0602579
0.9345703, -0.3652344, -0.9072266, 41.7073174, 105.4268341, -46.5853653, 0.0468299
0.9331055, -0.3339844, -0.8779297, 41.5853653, 106.2195129, -47.0731735, 0.0350805
0.9287109, -0.3095703, -0.8779297, 41.5243912, 108.0487823, -47.6219521, 0.0313878
0.9038086, -0.2695312, -0.9086914, 40.1829262, 110, -47.8048782, 0.0182956
0.8911133, -0.2519531, -0.9404297, 38.5975609, 110.7317123, -47.5, 0.0035248
0.8686523, -0.2280273, -0.9921875, 33.0487823, 111.1585388, -46.341465, -0.0075532
0.8652344, -0.2143555, -1.0078125, 29.4512196, 110.4878082, -45.1219521, -0.0172885
0.8686523, -0.2172852, -1.003418, 21.7682934, 109.3902435, -43.1707344, -0.0203098
0.9047852, -0.2319336, -0.9609375, 18.4756107, 109.0243912, -41.8902435, -0.018967
0.9179688, -0.2519531, -0.9335938, 12.560976, 109.2682953, -40.4268303, -0.0171206
0.9394531, -0.2807617, -0.8974609, 10.4268293, 110.0609818, -40.1219521, -0.0218204
0.9433594, -0.2978516, -0.8891602, 7.3780489, 111.2195129, -40.0609779, -0.0283665
0.9350586, -0.3388672, -0.8754883, 6.4024391, 111.2804871, -39.9390259, -0.0350805
0.9262695, -0.3554688, -0.871582, 4.6341462, 110.1219559, -39.9390259, -0.0424659
0.9121094, -0.394043, -0.859375, 3.8414636, 108.3536606, -39.2073174, -0.0575723
0.9038086, -0.4130859, -0.8535156, 3.9024391, 106.9512253, -39.1463432, -0.0654612
0.9008789, -0.4394531, -0.828125, 4.9390244, 105.0609818, -38.9634171, -0.057908
0.8984375, -0.449707, -0.8173828, 6.280488, 104.2682953, -38.7804871, -0.0498512
0.8935547, -0.4545898, -0.7739258, 9.9390249, 103.1097565, -38.9024391, -0.0471656
0.9003906, -0.4428711, -0.7285156, 11.9512196, 102.68293, -38.9634171, -0.0454871
0.8984375, -0.4311523, -0.715332, 16.7682934, 101.2195129, -39.9390259, -0.0431373
0.8867188, -0.4067383, -0.7148438, 19.0243912, 100.5487823, -40.1219521, -0.0491798
0.8833008, -0.3935547, -0.730957, 22.3170738, 97.9878082, -41.4634171, -0.0585794
0.8730469, -0.3793945, -0.7905273, 23.1097565, 96.4634171, -41.4634171, -0.0666361
0.8681641, -0.3666992, -0.8261719, 22.1951218, 92.8048782, -41.0365868, -0.0716716
0.8725586, -0.3549805, -0.8837891, 19.5731716, 89.8170776, -39.5731735, -0.0760357
0.8828125, -0.3466797, -0.8984375, 17.8658543, 88.9634171, -38.9024391, -0.0803998
0.9091797, -0.3276367, -0.8876953, 13.7195129, 88.6585388, -37.5609779, -0.0713359
0.9257812, -0.3217773, -0.871582, 11.1585369, 89.0243912, -37.1951218, -0.0558938
0.9482422, -0.3188477, -0.8408203, 6.7682929, 90.5487823, -37.1341476, -0.0438087
0.9370117, -0.3056641, -0.8242188, 4.8170733, 91.5243912, -37.1951218, -0.0293736
0.9311523, -0.3046875, -0.828125, -0.3658537, 92.9268341, -37.1951218, -0.0146029
0.9023438, -0.3066406, -0.8657227, -3.7195122, 93.0487823, -37.0121956, 0.0028534
0.8867188, -0.3061523, -0.8969727, -9.9390249, 94.2073212, -35.3658562, 0.0139315
0.8706055, -0.3149414, -0.9550781, -12.2560978, 94.5121994, -34.2682953, 0.0132601
0.8754883, -0.328125, -0.9677734, -15.1219511, 93.9634171, -32.4390259, 0.0045319
0.894043, -0.3613281, -0.9536133, -15.9756098, 94.5121994, -30.3658543, -0.0062104
0.9101562, -0.3706055, -0.9223633, -15.1219511, 95.6097565, -29.5121956, -0.0193027
0.9438477, -0.3847656, -0.8442383, -11.280488, 99.0243912, -29.2682934, -0.0431373
0.9550781, -0.387207, -0.8071289, -8.780488, 101.1585388, -29.3902454, -0.0602579
0.949707, -0.387207, -0.7597656, -3.9024391, 104.3902435, -30.6707325, -0.0592508
0.9204102, -0.3798828, -0.7446289, -1.7682927, 105.2439041, -31.4024391, -0.0458228
0.8974609, -0.3764648, -0.7431641, 0.4268293, 104.8780518, -32.1951218, -0.0159457
0.8613281, -0.3745117, -0.7397461, 0.6097561, 103.4756088, -32.1341476, 0.0159457
0.8442383, -0.371582, -0.7397461, 0.4878049, 100, -31.280489, 0.0397803
0.8222656, -0.375, -0.7529297, 0.4268293, 98.0487823, -30.5487804, 0.0414588
0.8212891, -0.3808594, -0.7592773, 0.8536586, 95, -29.3292694, 0.0310521
0.8295898, -0.3774414, -0.7792969, 2.5609756, 93.5975647, -27.9878063, 0.0132601
0.8364258, -0.371582, -0.7915039, 3.5975611, 92.8048782, -27.6219521, 0.0011749
0.8579102, -0.3652344, -0.793457, 5.4268293, 91.8902435, -26.7682934, -0.0048676
0.8666992, -0.3574219, -0.784668, 6.4024391, 91.2195129, -26.4024391, -0.0102388
0.8925781, -0.3432617, -0.753418, 7.2560978, 90.18293, -26.7073174, -0.0166171
0.9013672, -0.324707, -0.7236328, 7.8048782, 89.9390259, -27.0121956, -0.0236667
0.894043, -0.3183594, -0.7094727, 7.6219516, 89.5731735, -27.5, -0.0318914
0.8637695, -0.3134766, -0.6933594, 7.0121951, 89.5121994, -27.560976, -0.0360876
0.8491211, -0.3100586, -0.6904297, 5.0609756, 87.7439041, -27.3780499, -0.0414588
0.8134766, -0.3217773, -0.6850586, 4.1463413, 86.2195129, -26.9512196, -0.0424659
0.8017578, -0.328125, -0.6875, 2.804878, 81.5853653, -25.6707325, -0.0501869
0.793457, -0.3417969, -0.7006836, 2.0731707, 77.1951218, -24.5121956, -0.0632792
0.7924805, -0.3505859, -0.7138672, 1.9512196, 74.8170776, -23.8414631, -0.0679789
0.8007812, -0.3598633, -0.7363281, 1.8292683, 71.3414688, -22.9878063, -0.070161
0.8144531, -0.3623047, -0.7441406, 2.1341465, 70.2439041, -22.5, -0.0619364
0.8413086, -0.3710938, -0.7460938, 2.9878049, 68.1707306, -22.5, -0.0558938
0.875, -0.3813477, -0.7397461, 3.5365853, 67.8048782, -22.6219521, -0.0605936
0.8847656, -0.3837891, -0.7392578, 4.390244, 67.5, -22.6829281, -0.0605936
0.8911133, -0.3803711, -0.7529297, 4.7560978, 67.6219559, -22.8658543, -0.0547189
0.8862305, -0.378418, -0.762207, 4.5121951, 68.2926865, -22.9268303, -0.0491798
0.8740234, -0.3691406, -0.7695312, 4.2073174, 68.5975647, -22.7439022, -0.0431373
0.8657227, -0.3666992, -0.765625, 2.804878, 68.4756088, -22.2560978, -0.0364233
0.8520508, -0.3657227, -0.7617188, 1.5853659, 67.5609741, -22.0731716, -0.0323949
0.8388672, -0.3642578, -0.7661133, 0.9146342, 66.8902435, -21.7682934, -0.026688
0.8193359, -0.362793, -0.7797852, -0.6707317, 65.7317123, -20.6097565, -0.0182956
0.8134766, -0.3564453, -0.793457, -1.7682927, 65.3658524, -19.7560978, -0.0250095
0.8037109, -0.3300781, -0.8305664, -5.609756, 65.3048782, -17.8658543, -0.0323949
0.8120117, -0.3046875, -0.8374023, -8.4146347, 65.1219559, -16.4024391, -0.0364233
0.8271484, -0.3017578, -0.8339844, -12.4390249, 64.4512177, -14.4512196, -0.0595865
0.8691406, -0.300293, -0.7954102, -14.0853662, 63.841465, -13.841464, -0.0740215
0.8852539, -0.3061523, -0.769043, -15.6097565, 62.68293, -12.7439032, -0.0674754
0.9052734, -0.3129883, -0.7182617, -15.9756098, 61.9512215, -12.6829271, -0.0485084
0.9116211, -0.3183594, -0.6977539, -16.4634151, 61.5243912, -12.6829271, -0.0250095
0.9003906, -0.3291016, -0.6796875, -16.8292694, 60.0609779, -13.1707315, 0.0011749
0.8867188, -0.3461914, -0.6791992, -17.2560978, 59.0853691, -13.3536587, 0.0223239
0.847168, -0.3725586, -0.6728516, -18.9024391, 55.2439041, -12.0731707, 0.0387732
0.8286133, -0.3837891, -0.6694336, -19.3292694, 53.2317085, -11.0365858, 0.0525368
0.8076172, -0.387207, -0.6743164, -18.2317085, 49.3902435, -8.780488, 0.0558938
0.8183594, -0.3798828, -0.7041016, -17.1951218, 47.3780518, -7.8658538, 0.0528725
0.8286133, -0.3789062, -0.7285156, -14.5121956, 43.5975609, -7.4390244, 0.0481727
0.8569336, -0.3833008, -0.7597656, -13.7195129, 41.5243912, -7.0121951, 0.0397803
0.8779297, -0.390625, -0.769043, -12.9878054, 37.9878044, -6.7073174, 0.0290379
0.9150391, -0.4047852, -0.7587891, -12.9878054, 36.0365868, -5.4878049, 0.0186313
0.9350586, -0.4042969, -0.7436523, -13.0487804, 35.7317085, -5.1829271, 0.0062104
0.9555664, -0.3994141, -0.7280273, -12.3780489, 35.5487823, -5.2439027, -0.002182
0.9560547, -0.3994141, -0.7216797, -12.0121956, 35.6707344, -5.609756, -0.0102388
0.9370117, -0.3964844, -0.7421875, -11.8902445, 34.1463432, -5.5487804, -0.011078
0.9267578, -0.3945312, -0.7543945, -12.0731707, 32.6829262, -5.1829271, -0.0142672
0.8989258, -0.3876953, -0.7724609, -12.3170738, 29.2682934, -4.0853658, -0.0179599
0.887207, -0.3886719, -0.7832031, -11.8292685, 27.3780499, -3.2926829, -0.018967
0.8881836, -0.378418, -0.7832031, -12.0731707, 24.3292694, -1.402439, -0.0223239
0.8950195, -0.3676758, -0.7880859, -11.7682934, 22.8048782, -0.9146342, -0.0246738
0.9023438, -0.3657227, -0.7822266, -12.0121956, 20.7926826, 0.5487805, -0.0290379
0.9111328, -0.3457031, -0.7666016, -12.9268293, 18.7195129, 1.1585366, -0.0303807
0.918457, -0.3388672, -0.7553711, -13.0487804, 17.7439022, 1.5853659, -0.0283665
0.925293, -0.3354492, -0.7431641, -14.0853662, 15.1829271, 1.8292683, -0.0297093
0.9189453, -0.3339844, -0.7392578, -14.9390249, 13.6585369, 2.4390244, -0.0297093
0.9042969, -0.3393555, -0.7421875, -16.9512196, 10.7926836, 3.4756098, -0.0243381
0.8974609, -0.3427734, -0.7363281, -18.4146347, 9.1463413, 4.1463413, -0.0216526
0.8916016, -0.3608398, -0.737793, -21.3414631, 5.2439027, 6.1585369, -0.0236667
0.8930664, -0.3745117, -0.7397461, -21.7682934, 3.7195122, 7.0121951, -0.0256809
0.894043, -0.3779297, -0.7446289, -22.6829281, 0.3658537, 7.9878049, -0.0240024
0.9042969, -0.3828125, -0.7661133, -22.9878063, -1.097561, 8.3536587, -0.0276951
0.9116211, -0.3876953, -0.7753906, -23.5365868, -4.0853658, 8.9634151, -0.0280308
0.9257812, -0.4008789, -0.800293, -24.1463413, -6.890244, 8.841464, -0.024506
0.9277344, -0.4091797, -0.8066406, -24.8780499, -7.9878049, 8.780488, -0.0226596
0.9375, -0.4155273, -0.7954102, -24.9390259, -9.9390249, 9.4512196, -0.0231632
0.9375, -0.4169922, -0.7788086, -24.7560978, -10.6097565, 9.8780489, -0.0303807
0.9248047, -0.4165039, -0.7441406, -24.3292694, -11.7682934, 10.3048782, -0.0337377
0.9155273, -0.4135742, -0.7290039, -23.5975609, -12.560976, 10.6707315, -0.0290379
0.8876953, -0.4023438, -0.7177734, -22.8658543, -14.6341467, 11.280488, -0.0293736
0.8671875, -0.3959961, -0.7324219, -22.7439022, -16.2195129, 11.219512, -0.023331
0.8569336, -0.3935547, -0.7451172, -23.2317085, -21.2195129, 12.5, -0.0283665
0.8520508, -0.4008789, -0.7958984, -23.4146347, -23.780489, 12.8658543, -0.0431373
0.8583984, -0.4077148, -0.8208008, -23.5365868, -28.2317085, 13.9634151, -0.0471656
0.8813477, -0.4277344, -0.8510742, -23.4756107, -31.6463413, 15.9146347, -0.0498512
0.8945312, -0.4282227, -0.8544922, -23.5975609, -32.8048782, 16.8292694, -0.0589151
0.9282227, -0.4291992, -0.8349609, -23.6585369, -33.7195129, 18.5365849, -0.0621042
0.9326172, -0.4204102, -0.8173828, -23.780489, -33.4756088, 19.2073174, -0.0632792
0.9350586, -0.3994141, -0.7788086, -23.9024391, -32.9878044, 20.1219521, -0.057908
0.9257812, -0.3847656, -0.7636719, -23.9634151, -33.4756088, 20.6097565, -0.0488441
0.9018555, -0.362793, -0.7519531, -24.6341476, -35.6707344, 20.8536587, -0.0471656
0.8808594, -0.3544922, -0.7617188, -25.1219521, -37.8048782, 21.280489, -0.0532082
0.8696289, -0.3530273, -0.7739258, -27.0731716, -43.5975609, 22.0121956, -0.0558938
0.8666992, -0.3579102, -0.8037109, -28.4146347, -46.4634171, 22.3780499, -0.051194
0.8720703, -0.3603516, -0.8129883, -30.9146347, -51.4024391, 23.9024391, -0.0231632
0.8803711, -0.362793, -0.8149414, -32.5609779, -55, 25.1219521, 0.0139315
0.8876953, -0.3632812, -0.8183594, -33.1707306, -56.0365868, 25.4878063, 0.0411231
0.8959961, -0.3666992, -0.8222656, -34.0243912, -58.0487823, 25.5487804, 0.0387732
0.8974609, -0.3681641, -0.8344727, -34.0853653, -58.841465, 25.3048782, 0.0152743
0.8925781, -0.3798828, -0.8579102, -35.7317085, -60.7926826, 26.3414631, -0.0162814
0.887207, -0.3881836, -0.8681641, -36.8902435, -61.7073174, 27.2560978, -0.0475013
0.8759766, -0.3862305, -0.859375, -38.2317085, -63.5975609, 28.9024391, -0.0592508
0.8764648, -0.375, -0.8359375, -38.7195129, -64.6951218, 29.8170738, -0.0636149
0.875, -0.3666992, -0.8237305, -39.3292694, -66.5243912, 30.3658543, -0.0464942
0.8691406, -0.3686523, -0.8149414, -39.8170738, -67.7439041, 30.3658543, -0.0223239
0.8637695, -0.3686523, -0.8208008, -41.5243912, -70.7317123, 30.2439022, 0.0016785
0.8657227, -0.3891602, -0.8364258, -43.841465, -74.7560959, 30.2439022, 0.0137636
0.8618164, -0.3984375, -0.8466797, -44.8780479, -76.646347, 30.3658543, 0.0119173
0.8710938, -0.4130859, -0.871582, -46.4024391, -80.3048782, 31.0975609, 0.0119173
0.8803711, -0.4165039, -0.875, -46.6463432, -81.7682953, 31.7682934, 0.0092317
0.8959961, -0.4243164, -0.8930664, -45.8536606, -83.4756088, 31.8292694, -0.0045319
0.9042969, -0.425293, -0.8955078, -45.4268303, -83.9024429, 32.6219521, -0.0109102
0.9077148, -0.418457, -0.8969727, -43.7804871, -85, 33.1707306, -0.0048676
0.9067383, -0.4042969, -0.887207, -43.4146347, -85.3048782, 33.4756088, -0.002182
0.9042969, -0.3920898, -0.8779297, -43.3536606, -85.9756088, 33.841465, 0.0048676
0.8955078, -0.3696289, -0.8618164, -43.5365868, -86.1585388, 34.1463432, 0.0132601
0.8852539, -0.3564453, -0.8515625, -44.7560997, -88.3536606, 34.6951218, 0.026688
0.8691406, -0.3398438, -0.8432617, -46.4634171, -91.4024429, 35.4878044, 0.0310521
0.8647461, -0.3383789, -0.8481445, -47.3170738, -93.5975647, 35.7926826, 0.0246738
0.8598633, -0.3476562, -0.8598633, -49.4512215, -98.4146347, 36.5853653, 0.0025177
0.8618164, -0.3500977, -0.8623047, -50.6097565, -100.7926865, 37.0731697, -0.0082246
0.8671875, -0.3735352, -0.8637695, -52.0731735, -105.18293, 37.8658562, -0.0204776
0.8857422, -0.3979492, -0.859375, -52.6829262, -107.3170776, 38.4756088, -0.0352483
0.8867188, -0.4091797, -0.8535156, -52.5609779, -110.5487823, 38.9634171, -0.0485084
0.8925781, -0.421875, -0.8500977, -52.0731735, -112.3170776, 38.7195129, -0.0518654
0.8930664, -0.4223633, -0.859375, -50.3048782, -114.2682953, 38.9634171, -0.0458228
0.8930664, -0.4130859, -0.8881836, -49.2682953, -115.5487823, 39.1463432, -0.0283665
0.8959961, -0.4013672, -0.909668, -47.9268303, -118.1097565, 39.6951218, -0.012253
0.894043, -0.3813477, -0.9355469, -47.9878044, -120.7926865, 40.6097565, 0.0052033
0.8999023, -0.3681641, -0.9379883, -48.2317085, -121.9512253, 41.2195129, 0.0146029
0.9130859, -0.3374023, -0.9453125, -49.6341476, -123.5975647, 42.3780479, 0.0119173
0.9189453, -0.3173828, -0.9516602, -50.3658562, -124.0853653, 42.6219521, 0.0075532
0.9233398, -0.2915039, -0.9726562, -52.1951218, -125.9146347, 43.2317085, -0.0052033
0.9301758, -0.2919922, -0.9916992, -54.3292694, -127.0731735, 43.5365868, -0.0058747
0.934082, -0.2998047, -0.9960938, -58.9024391, -130.4878082, 43.9634171, -0.0092317
0.9355469, -0.3271484, -0.9892578, -60.9756126, -132.0121918, 44.3902435, -0.0115816
0.9384766, -0.3408203, -0.9707031, -64.6341476, -134.9390259, 45.1829262, -0.0193027
0.9414062, -0.3759766, -0.9291992, -65.4878082, -136.0975647, 45.1829262, -0.0270237
0.9418945, -0.3891602, -0.9121094, -66.5853653, -138.5365906, 45.0609779, -0.0287022
0.9238281, -0.4106445, -0.9008789, -65.7317123, -140.7926788, 45, -0.0303807
0.9125977, -0.4204102, -0.9106445, -64.7560959, -142.0121918, 44.6341476, -0.0287022
0.8828125, -0.4248047, -0.953125, -64.0243912, -145.7926788, 44.6341476, -0.0246738
0.8779297, -0.4277344, -0.9902344, -63.5975609, -148.4146423, 44.8780479, -0.0250095
0.8823242, -0.4135742, -1.0288086, -62.9268303, -152.4390259, 46.0975609, -0.0283665
0.909668, -0.3930664, -1.0258789, -62.8048782, -153.5975647, 46.7682953, -0.0317235
0.9277344, -0.3789062, -1.0161133, -62.0731735, -154.3902435, 47.6219521, -0.0352483
0.9648438, -0.3520508, -1.0053711, -61.1585388, -154.0853729, 47.3170738, -0.0428016
0.9750977, -0.3427734, -1.0019531, -61.4634171, -154.2682953, 46.1585388, -0.0473335
0.9741211, -0.3349609, -1.0117188, -61.4024391, -155, 45.7317085, -0.043473
0.9707031, -0.3413086, -1.0219727, -63.6585388, -157.9878082, 44.8170738, -0.0451514
0.953125, -0.3647461, -1.0371094, -66.5243912, -162.0731812, 45.1829262, -0.0431373
0.9462891, -0.3798828, -1.0390625, -67.7439041, -163.7195129, 45.6707344, -0.0417945
0.9379883, -0.4091797, -1.0234375, -68.7804871, -165.9756165, 46.7682953, -0.0424659
0.9345703, -0.4145508, -1.0039062, -68.7804871, -166.7073212, 46.8292694, -0.0421302
0.925293, -0.4101562, -0.965332, -66.6463394, -167.2561035, 47.3170738, -0.0397803
0.9160156, -0.3803711, -0.9487305, -65.5487823, -167.86586, 46.8292694, -0.0426337
0.9091797, -0.3681641, -0.9511719, -62.5609779, -170.1219482, 45.6097565, -0.0421302
0.8862305, -0.3510742, -0.9814453, -61.7073174, -171.8292694, 44.8780479, -0.04448
0.8759766, -0.3481445, -1.003418, -62.1341476, -176.2804871, 43.9634171, -0.0471656
0.8623047, -0.3623047, -1.0556641, -63.5975609, -178.5975647, 43.9024391, -0.0500191
0.8598633, -0.3730469, -1.0766602, -66.7073212, -182.5, 44.9390259, -0.0525368
0.8789062, -0.3857422, -1.0869141, -68.5975647, -185.0609741, 46.341465, -0.054551
0.8896484, -0.3920898, -1.0756836, -68.5365906, -185.7926941, 47.0121956, -0.0464942
0.9150391, -0.394043, -1.0380859, -66.8902435, -186.7682953, 46.7682953, -0.0412909
0.9213867, -0.390625, -1.0151367, -65.2439041, -186.9512177, 46.0365868, -0.0475013
0.9179688, -0.3837891, -0.9951172, -62.2560997, -187.2561035, 44.1463432, -0.0525368
0.9023438, -0.3852539, -1.0039062, -61.5243912, -188.1097565, 43.5365868, -0.0471656
0.8857422, -0.3823242, -1.027832, -61.7682953, -190.8536682, 42.5609779, -0.0391089
0.8588867, -0.3710938, -1.0957031, -62.2560997, -193.0487823, 42.5, -0.027863
0.8466797, -0.3613281, -1.1303711, -64.2682953, -195.8536682, 42.9268303, -0.0152743
0.8447266, -0.3266602, -1.1694336, -65.0609741, -196.8292694, 43.2317085, -0.0114137
0.8603516, -0.3115234, -1.1679688, -66.7682953, -198.5975647, 44.2073174, -0.0035248
0.8930664, -0.2929688, -1.1308594, -68.5365906, -198.9024506, 44.2073174, -0.0048676
0.9067383, -0.2905273, -1.1054688, -70.0609741, -198.7804871, 44.1463432, -0.0209812
0.9116211, -0.2915039, -1.0795898, -73.7804871, -199.0243988, 43.3536606, -0.0307164
0.9018555, -0.2993164, -1.081543, -76.0365906, -199.7561035, 42.6219521, -0.0364233
0.8613281, -0.3232422, -1.0922852, -80.1219559, -203.5365906, 42.3780479, -0.0397803
0.8251953, -0.347168, -1.0708008, -81.2804871, -205.6707306, 42.9268303, -0.0317235
0.8178711, -0.3525391, -1.0620117, -81.1585388, -209.146347, 43.9634171, -0.0263523
0.8027344, -0.3549805, -1.0566406, -79.7560959, -209.8780518, 44.5731735, -0.0135958
0.793457, -0.3569336, -1.0683594, -77.1341476, -210.5487823, 44.6951218, -0.0052033
0.7739258, -0.3691406, -1.1083984, -76.8902435, -210.7926941, 44.7560997, -0.0011749
0.7641602, -0.3657227, -1.1220703, -77.8048782, -211.7073212, 46.0975609, -0.002182
0.7675781, -0.3408203, -1.1191406, -79.6341476, -212.3170776, 47.6219521, -0.0005035
0.7749023, -0.3173828, -1.105957, -80, -212.1341553, 47.6219521, 0.0045319
0.7763672, -0.2578125, -1.0761719, -79.0853653, -211.4634247, 47.2560997, 0.0058747
0.7705078, -0.230957, -1.0766602, -78.8414688, -211.2804871, 46.7682953, 0.0070497
0.7456055, -0.1933594, -1.0986328, -79.7560959, -211.646347, 47.0731735, 0.002182
0.715332, -0.1835938, -1.1430664, -81.5243912, -212.8048859, 48.4756126, -0.0062104
0.7070312, -0.1816406, -1.1577148, -86.2804871, -215.7317047, 53.1097565, -0.0162814
0.715332, -0.1806641, -1.1577148, -88.7195129, -217.2561035, 55.2439041, -0.0229953
0.7197266, -0.1865234, -1.1416016, -91.8292694, -218.9634247, 58.4146347, -0.0236667
0.7299805, -0.1958008, -1.0898438, -92.1341476, -218.8414612, 59.5121956, -0.0344091
0.7285156, -0.2036133, -1.0678711, -91.646347, -217.8048859, 60.1219521, -0.0451514
0.7089844, -0.2382812, -1.0410156, -92.1341476, -218.8414612, 60, -0.0558938
0.6938477, -0.2670898, -1.0263672, -92.5609741, -220.3048859, 60.3048782, -0.0632792
0.6616211, -0.3525391, -0.9868164, -93.1097565, -225.8536682, 60.9146347, -0.0500191
0.6469727, -0.3876953, -0.9594727, -93.3536606, -228.5365906, 60.7926826, -0.0182956
0.6074219, -0.4379883, -0.9223633, -89.6341476, -232.9268341, 59.2073174, -0.0001678
0.5498047, -0.4301758, -0.9389648, -86.8292694, -234.2682953, 57.5, 0.0193027
0.5185547, -0.4135742, -0.9731445, -79.146347, -236.7682953, 53.841465, 0.0199741
0.4663086, -0.3598633, -1.0751953, -75.3658524, -239.0243988, 52.5609779, 0.0102388
0.453125, -0.3408203, -1.1225586, -69.8170776, -244.4512177, 51.7073174, -0.0119173
0.4760742, -0.3046875, -1.1606445, -68.8414688, -246.7682953, 52.3780518, -0.0218204
0.5053711, -0.2905273, -1.1435547, -68.8414688, -248.9024506, 53.9634171, -0.0313878
0.5678711, -0.2631836, -1.0825195, -69.2682953, -246.7073212, 53.5365868, -0.0406195
0.5859375, -0.2509766, -1.0654297, -69.6951218, -244.8780518, 52.5, -0.0522011
0.5644531, -0.2172852, -1.0893555, -70.6707306, -241.4634247, 49.8170738, -0.0614328
0.5341797, -0.2016602, -1.1254883, -71.2195129, -241.5853729, 49.2682953, -0.0518654
0.4799805, -0.1972656, -1.2050781, -72.8048782, -244.0853729, 50.3048782, -0.0384375
0.4663086, -0.2436523, -1.2373047, -74.0853653, -245.73172, 51.9512215, -0.018967
0.4794922, -0.2753906, -1.2290039, -77.0121994, -247.012207, 55.18293, 0.0025177
0.5019531, -0.3452148, -1.1767578, -78.5975647, -245.8536682, 56.1585388, 0.0139315
0.5053711, -0.3725586, -1.1464844, -79.8170776, -240.7926941, 55.7926826, 0.0297093
0.4882812, -0.3979492, -1.0834961, -77.0731735, -235.6097565, 53.6585388, 0.036759
0.4667969, -0.3881836, -1.0712891, -74.3902435, -233.9024506, 52.2560997, 0.0387732
0.4082031, -0.3525391, -1.0961914, -69.4512177, -233.5365906, 50, 0.0441444
0.3769531, -0.3398438, -1.1235352, -67.6219559, -234.4512177, 49.3902435, 0.0441444
0.3515625, -0.3457031, -1.1508789, -66.5853653, -237.1341553, 48.9024391, 0.0461585
0.3549805, -0.3608398, -1.1445312, -67.4390259, -237.9268341, 48.7195129, 0.0468299
0.3769531, -0.4018555, -1.1044922, -68.2317123, -236.646347, 48.2317085, 0.0364233
0.3896484, -0.4301758, -1.0893555, -67.9268341, -235.3048859, 46.9512215, 0.0280308
0.3842773, -0.4316406, -1.0986328, -64.7560959, -231.9512177, 44.5121956, 0.0162814
0.3701172, -0.4082031, -1.1337891, -62.6219521, -230.6707306, 43.5975609, -0.0001678
0.3676758, -0.3833008, -1.1533203, -58.4146347, -228.2926941, 42.0121956, -0.0097353
0.3745117, -0.3227539, -1.2045898, -57.3780518, -224.9390259, 39.8170738, -0.0206455
0.3769531, -0.2988281, -1.2216797, -58.2317085, -222.4390259, 38.6585388, -0.0236667
0.3876953, -0.2939453, -1.2172852, -61.5243912, -218.0487823, 37.8048782, -0.0229953
0.3984375, -0.2998047, -1.1899414, -62.9878082, -215.7926941, 37.7439041, -0.0287022
0.4238281, -0.309082, -1.0961914, -64.2073212, -210.6097565, 36.6463432, -0.0340734
0.4243164, -0.3085938, -1.059082, -63.7804909, -207.5, 35.3658562, -0.0464942
0.3779297, -0.3149414, -1.034668, -63.2926826, -202.012207, 31.9512196, -0.0538796
0.2875977, -0.3085938, -1.0473633, -63.4146347, -200.4878082, 30.9756107, -0.0575723
0.2558594, -0.3037109, -1.0576172, -63.9634171, -200.4268341, 30.3048782, -0.0669718
0.2172852, -0.2958984, -1.0629883, -64.0853653, -201.3414612, 29.6341476, -0.0686503
0.2089844, -0.2905273, -1.059082, -64.6951218, -202.0731812, 29.2682934, -0.0647898
0.2119141, -0.2861328, -1.0771484, -64.8780518, -200.9146423, 27.9268303, -0.0639506
0.2148438, -0.2875977, -1.0878906, -64.6951218, -200.0609741, 27.8658543, -0.061265
0.2456055, -0.3017578, -1.0981445, -63.3536606, -198.6585388, 29.1463413, -0.0498512
0.277832, -0.3081055, -1.0825195, -62.1341476, -197.1341553, 29.2073174, -0.0424659
0.3334961, -0.3110352, -1.0302734, -59.6341476, -191.4634247, 27.9268303, -0.0287022
0.3388672, -0.3085938, -1.0029297, -58.6585388, -187.6219482, 26.1585369, -0.0216526
0.3007812, -0.2807617, -0.9873047, -57.7439041, -180.0609741, 23.1707325, -0.0146029
0.2104492, -0.2348633, -0.9990234, -57.5, -177.6829376, 22.0731716, -0.0149386
0.1708984, -0.2080078, -0.9970703, -57.9878044, -176.8292694, 20.8536587, -0.0142672
0.1269531, -0.1767578, -0.9692383, -58.2926826, -177.4390259, 20.5487804, -0.0095674
0.1201172, -0.175293, -0.9501953, -59.5731735, -179.6951294, 20.4878044, -0.0152743
0.1142578, -0.2172852, -0.9072266, -60.18293, -180.4878082, 21.280489, -0.0271916
0.1108398, -0.2490234, -0.8881836, -59.5731735, -181.1585388, 22.6829281, -0.0407874
0.1206055, -0.2856445, -0.8579102, -55.9756126, -182.0121918, 24.2073174, -0.0629435
0.121582, -0.2763672, -0.862793, -54.0243912, -181.4024506, 23.6585369, -0.0728466
0.0981445, -0.2026367, -0.9287109, -52.3780518, -179.7561035, 19.6951218, -0.0674754
0.0688477, -0.1523438, -0.9780273, -53.2317085, -180.1219482, 17.7439022, -0.0679789
0.0424805, -0.0854492, -1.0585938, -57.3780518, -182.8048859, 17.3780499, -0.0587472
0.081543, -0.0595703, -1.0942383, -59.5121956, -184.5731812, 18.5975609, -0.0515297
0.1235352, -0.0625, -1.0766602, -63.4146347, -184.7561035, 21.4024391, -0.0384375
0.2177734, -0.0917969, -0.980957, -65.4878082, -182.9268341, 22.1951218, -0.0243381
0.2456055, -0.1162109, -0.9077148, -67.9268341, -175.1219482, 20.4878044, -0.0099031
0.2236328, -0.1762695, -0.7695312, -69.6341476, -168.2926941, 17.0121956, -0.0125887
0.1694336, -0.215332, -0.7402344, -69.4512177, -167.0731812, 15.9146347, -0.0659648
0.0073242, -0.2558594, -0.7949219, -66.5243912, -169.3292694, 16.3414631, -0.1331044
-0.0683594, -0.2504883, -0.8725586, -63.9634171, -172.0731812, 17.2560978, -0.1555962
-0.1508789, -0.1967773, -1.0493164, -57.9268303, -177.9268341, 20, -0.1522393
-0.137207, -0.1630859, -1.0966797, -55.4268303, -180.0609741, 20.9756107, -0.1334401
-0.0009766, -0.1376953, -1.0600586, -54.1463432, -179.3292694, 20.7926826, -0.0948348
0.1625977, -0.1679688, -0.9155273, -55.4878044, -176.9512177, 19.7560978, -0.0458228
0.2055664, -0.1967773, -0.8603516, -60.1219521, -168.7195129, 16.2195129, 0.0048676
0.1738281, -0.2368164, -0.8554688, -61.341465, -165.7317047, 14.3902445, 0.0532082
0.1230469, -0.2294922, -0.8896484, -60.3048782, -164.2073212, 12.4390249, 0.0931563
0.0175781, -0.1611328, -0.9511719, -55.5487823, -165.2439117, 11.4024391, 0.1126268
-0.0102539, -0.1098633, -0.972168, -53.9024391, -165.1219482, 10.7317076, 0.1064164
-0.0444336, -0.0400391, -0.9912109, -54.9390259, -162.5609741, 9.3292685, 0.0988632
-0.0556641, -0.0366211, -1.003418, -57.68293, -161.9512177, 9.6951218, 0.0921492
-0.0390625, -0.0834961, -0.984375, -64.1463394, -163.1707306, 12.1951218, 0.0817426
-0.0205078, -0.1142578, -0.9536133, -66.2195129, -164.0853729, 13.4756098, 0.0780499
0.0253906, -0.1542969, -0.8666992, -66.1585388, -164.8780518, 13.5975609, 0.0757
0.0356445, -0.1679688, -0.78125, -64.7560959, -164.4512177, 12.3170738, 0.0683146
0.0131836, -0.1723633, -0.7646484, -60.7317085, -160.6707306, 9.3902445, 0.0441444
-0.0717773, -0.1567383, -0.8222656, -58.9634171, -160.0609741, 8.4756098, 0.0152743
-0.1201172, -0.1420898, -0.8701172, -57.3170738, -160.8536682, 8.4756098, -0.0068818
-0.1713867, -0.0991211, -0.9404297, -56.5853653, -164.8170776, 9.6341467, -0.0196384
-0.1743164, -0.0791016, -0.9423828, -56.341465, -166.646347, 10.060976, -0.0236667
-0.1235352, -0.0678711, -0.8979492, -56.1585388, -168.3536682, 9.0243902, -0.033402
-0.0913086, -0.0737305, -0.8696289, -57.0121956, -168.0487823, 8.1097565, -0.0426337
-0.0683594, -0.109375, -0.8330078, -58.7804909, -165.9756165, 6.7073174, -0.0542153
-0.074707, -0.1352539, -0.8330078, -58.9634171, -165.4268341, 6.8292685, -0.0713359
-0.1113281, -0.1635742, -0.8447266, -56.4634171, -165.6707306, 8.6585369, -0.0837568
-0.1240234, -0.1430664, -0.840332, -53.5365868, -165.7926941, 9.3292685, -0.0773785
-0.1269531, -0.1132812, -0.8378906, -48.2317085, -163.9024353, 8.841464, -0.0411231
-0.1557617, -0.0585938, -0.8657227, -46.8902435, -161.7073212, 7.4390244, 0.0025177
-0.1821289, -0.0458984, -0.8901367, -47.5, -159.7561035, 5.3658538, 0.0370947
-0.2109375, -0.0576172, -0.9047852, -50.7926826, -162.0731812, 6.3414636, 0.0495155
-0.2080078, -0.0766602, -0.8789062, -51.7682953, -163.7804871, 7.6219516, 0.0468299
-0.1645508, -0.1264648, -0.800293, -50.9756126, -165.1829376, 8.1707315, 0.0340734
-0.1523438, -0.1503906, -0.7763672, -49.6951218, -164.146347, 7.5, 0.0223239
-0.1796875, -0.1791992, -0.7836914, -47.0731735, -161.5243988, 6.6463418, 0.0048676
-0.2041016, -0.1796875, -0.7944336, -45.2439041, -160.7317047, 6.6463418, -0.0176242
-0.2392578, -0.1577148, -0.8100586, -40.7317085, -160.1829376, 7.3780489, -0.0354162
-0.262207, -0.1020508, -0.8359375, -39.0853653, -159.8780518, 6.9512196, -0.0525368
-0.2744141, -0.0751953, -0.8500977, -37.3170738, -158.7804871, 4.8170733, -0.0605936
-0.3061523, -0.0429688, -0.8881836, -37.8048782, -158.2926941, 3.9024391, -0.0592508
-0.309082, -0.0405273, -0.8891602, -40.3048782, -159.2073212, 3.6585367, -0.0533761
-0.2983398, -0.0571289, -0.8671875, -42.6829262, -160.9756165, 4.7560978, -0.0424659
-0.2817383, -0.074707, -0.8432617, -43.4146347, -161.4024353, 5.3048782, -0.0298772
-0.2597656, -0.1142578, -0.7900391, -43.2926826, -159.6951294, 5.5487804, -0.0213169
-0.2563477, -0.1298828, -0.769043, -42.6829262, -157.6829376, 5.4878049, -0.0181277
-0.2729492, -0.1289062, -0.7368164, -40.7317085, -153.2317047, 4.6951222, -0.012253
-0.3168945, -0.1044922, -0.7402344, -39.5121956, -151.2804871, 3.8414636, -0.0172885
-0.3481445, -0.0927734, -0.753418, -37.8658562, -149.2073212, 2.3780489, -0.0206455
-0.3989258, -0.0854492, -0.7631836, -37.3780479, -149.2073212, 2.2560976, -0.0182956
-0.4135742, -0.0898438, -0.765625, -35.6707344, -150.2439117, 3.5975611, -0.018967
-0.4125977, -0.0854492, -0.7880859, -34.5121956, -150.36586, 4.5731707, -0.0104067
-0.4082031, -0.081543, -0.8032227, -32.9878044, -149.0853729, 5.8536587, -0.0082246
-0.4003906, -0.0654297, -0.8188477, -32.0121956, -146.7682953, 5.5487804, -0.0068818
-0.3896484, -0.0522461, -0.8100586, -31.8292694, -145, 5.3048782, -0.0038605
-0.378418, -0.0351562, -0.8120117, -32.1951218, -141.8902435, 4.4512196, -0.0109102
-0.3774414, -0.0292969, -0.8242188, -33.3536606, -140.1829376, 3.7804878, -0.0171206
-0.3828125, -0.034668, -0.8496094, -34.8780479, -136.2804871, 3.9024391, -0.0182956
-0.3754883, -0.0527344, -0.8212891, -35.4878044, -134.146347, 4.4512196, -0.0209812
-0.3720703, -0.0620117, -0.7817383, -35.3048782, -129.5121918, 5.0609756, -0.0246738
-0.3642578, -0.0874023, -0.6796875, -34.6341476, -126.5243912, 4.8780489, -0.0186313
-0.3745117, -0.1015625, -0.6430664, -32.9268303, -120.0609818, 3.0487804, -0.0203098
-0.4335938, -0.125, -0.6098633, -32.8658562, -118.0487823, 2.0731707, -0.0290379
-0.4770508, -0.1196289, -0.6118164, -33.7804871, -116.0975647, 1.5243902, -0.0391089
-0.5620117, -0.0888672, -0.625, -37.6219521, -118.1097565, 1.2804878, -0.0491798
-0.5922852, -0.0541992, -0.6279297, -38.5365868, -119.2682953, 0.9756098, -0.0622721
-0.6489258, 0.0224609, -0.6162109, -38.9634171, -122.5609818, 0.0609756, -0.0800641
-0.65625, 0.0527344, -0.5952148, -37.7439041, -124.8170776, -0.7926829, -0.1099413
-0.6489258, 0.0629883, -0.5356445, -36.341465, -129.3902435, -1.5853659, -0.1186694
-0.625, 0.0268555, -0.4814453, -36.5243912, -130.8536682, -1.2195122, -0.1116197
-0.6118164, 0.003418, -0.4814453, -37.6219521, -131.5243988, 1.4634147, -0.0921492
-0.6005859, -0.03125, -0.5664062, -38.9634171, -131.2804871, 3.0487804, -0.0619364
-0.5932617, -0.0380859, -0.6220703, -40.7926826, -131.9512177, 6.4634147, -0.0350805
-0.5722656, -0.0224609, -0.6845703, -41.4634171, -132.6219482, 7.5609756, -0.0095674
-0.5522461, -0.0087891, -0.6796875, -39.8780479, -133.5365906, 7.9268293, 0.0132601
-0.5014648, 0.0161133, -0.6201172, -36.0975609, -131.1585388, 6.6463418, 0.0270237
-0.4746094, 0.0268555, -0.5893555, -35, -128.4756165, 5.3658538, 0.0290379
-0.456543, 0.0371094, -0.5546875, -35.5487823, -121.5243912, 2.195122, 0.0327306
-0.4663086, 0.0341797, -0.543457, -36.8292694, -118.5975647, 1.5853659, 0.0313878
-0.5058594, 0.0166016, -0.5703125, -40.0609779, -112.2561035, 1.3414634, 0.0149386
-0.5664062, -0.0083008, -0.5976562, -41.5243912, -111.0365906, 2.1341465, -0.0028534
-0.5834961, -0.0131836, -0.6035156, -42.9268303, -112.5, 5.5487804, -0.0280308
-0.5610352, -0.0039062, -0.5976562, -41.7073174, -113.9634171, 6.4634147, -0.0532082
-0.5556641, -0.0083008, -0.6010742, -38.4756088, -112.0121994, 6.7073174, -0.0693217
-0.5454102, -0.0131836, -0.5947266, -36.7073174, -109.0853653, 7.0731707, -0.0740215
-0.5488281, -0.0239258, -0.5878906, -34.3292694, -103.7804871, 6.8292685, -0.064622
-0.543457, -0.0366211, -0.5610352, -33.9024391, -102.5, 6.0975609, -0.0582437
-0.5405273, -0.0253906, -0.5375977, -34.1463432, -102.4390259, 4.8170733, -0.0486763
-0.5556641, -0.0039062, -0.5058594, -33.7195129, -102.2561035, 1.7073171, -0.0270237
-0.5786133, -0.0029297, -0.5004883, -33.2926826, -102.0121994, 0.7317073, -0.012253
-0.625, -0.0292969, -0.5317383, -30.9146347, -102.4390259, 2.0121951, 0.0028534
-0.637207, -0.0400391, -0.5908203, -28.7195129, -103.9024429, 3.7195122, 0.0146029
-0.6293945, -0.0268555, -0.6259766, -25.9146347, -105.7317123, 7.5609756, 0.0206455
-0.5830078, 0.0205078, -0.6455078, -24.8780499, -105.3658524, 8.3536587, 0.0243381
-0.5610352, 0.0400391, -0.6328125, -23.9634151, -101.646347, 8.0487804, 0.0253452
-0.5180664, 0.0673828, -0.5776367, -23.8414631, -98.7195129, 7.3780489, 0.0075532
-0.5053711, 0.0683594, -0.550293, -24.0853672, -92.8048782, 5.8536587, -0.0109102
-0.5024414, 0.0532227, -0.5327148, -24.8170738, -88.3536606, 5.1829271, -0.0135958
-0.5039062, 0.0371094, -0.5458984, -25.4268303, -86.8902435, 5.5487804, -0.0250095
-0.5317383, 0.0175781, -0.5825195, -27.0121956, -84.3292694, 7.6829271, -0.0297093
-0.5444336, 0.0126953, -0.590332, -27.2560978, -82.68293, 8.719512, -0.0340734
-0.5527344, 0.0161133, -0.5517578, -26.6463413, -78.4756088, 10, -0.0332341
-0.5507812, 0.046875, -0.5029297, -26.2195129, -75.8536606, 9.9390249, -0.0260166
-0.5585938, 0.0625, -0.4916992, -26.4024391, -69.3902435, 8.1707315, -0.0112459
-0.6015625, 0.0722656, -0.4931641, -28.0487804, -67.3780518, 7.1341467, 0.0052033
-0.6230469, 0.0561523, -0.4887695, -31.6463413, -66.4024429, 5.8536587, 0.0226596
-0.652832, 0.0048828, -0.4624023, -32.8658562, -67.3170776, 6.4024391, 0.03122
-0.6577148, -0.0214844, -0.4594727, -33.4756088, -70.3048782, 8.5975609, 0.0357519
-0.6445312, -0.0498047, -0.4765625, -31.8902454, -71.4634171, 9.7560978, 0.0065461
-0.6376953, -0.0444336, -0.4853516, -30.6097565, -70.6097565, 9.8170738, -0.033402
-0.621582, -0.0029297, -0.4692383, -27.8658543, -66.7073212, 9.3902445, -0.057908
-0.6123047, 0.0258789, -0.4404297, -27.0121956, -64.0853653, 8.9024391, -0.0797284
-0.6015625, 0.0766602, -0.3652344, -25.8536587, -58.3536606, 6.6463418, -0.0884565
-0.6118164, 0.1142578, -0.3154297, -26.6463413, -55.3658562, 5.670732, -0.0861067
-0.6289062, 0.1176758, -0.3061523, -31.1585369, -50.7317085, 3.9024391, -0.0800641
-0.6914062, 0.1035156, -0.3076172, -33.4756088, -49.7560997, 4.0243902, -0.0746929
-0.715332, 0.0878906, -0.3134766, -38.3536606, -50.9756126, 4.9390244, -0.0532082
-0.7480469, 0.0576172, -0.324707, -39.8780479, -52.8048782, 6.1585369, -0.0218204
-0.7558594, 0.0463867, -0.3242188, -40.7926826, -56.8902435, 8.4146347, -0.005539
-0.7363281, 0.0253906, -0.3129883, -39.3902435, -59.6341476, 9.4512196, -0.0035248
-0.722168, 0.0180664, -0.3046875, -38.1707344, -60.0609779, 9.4512196, -0.0196384
-0.6933594, 0.0180664, -0.2988281, -36.0365868, -58.5365868, 8.780488, -0.0330663
-0.6831055, 0.027832, -0.2919922, -35.4268303, -56.4024391, 8.2317076, -0.0344091
-0.6748047, 0.0551758, -0.269043, -34.8780479, -52.8048782, 6.7073174, -0.0206455
-0.6801758, 0.0742188, -0.2382812, -34.5121956, -50.8536606, 5.7926831, -0.0085603
-0.6923828, 0.0800781, -0.2363281, -34.9390259, -47.3170738, 4.5121951, -0.0041962
-0.7216797, 0.0834961, -0.2866211, -35.3048782, -46.7073174, 4.1463413, 0.0152743
-0.7451172, 0.0766602, -0.3261719, -37.6829262, -47.0731735, 4.4512196, 0.0515297
-0.7607422, 0.0380859, -0.3652344, -39.5121956, -49.6951218, 6.2195125, 0.079057
-0.7485352, 0.0185547, -0.362793, -39.0243912, -51.0975609, 7.6219516, 0.0938277
-0.7011719, -0.0014648, -0.331543, -35.0609779, -50.7926826, 8.719512, 0.0931563
-0.6738281, -0.0019531, -0.3120117, -32.6829262, -48.5365868, 8.5975609, 0.0918135
-0.6435547, 0.0297852, -0.2890625, -28.9634151, -40.8536606, 6.4634147, 0.0877852
-0.6445312, 0.0537109, -0.300293, -28.7195129, -36.9512215, 5.1829271, 0.0777142
-0.6738281, 0.0927734, -0.3271484, -30.7926846, -30.3658543, 3.1097562, 0.0458228
-0.7143555, 0.0854492, -0.3286133, -32.3170738, -29.0243912, 2.804878, 0.0018463
-0.7294922, 0.0698242, -0.3120117, -34.3902435, -28.4146347, 4.2073174, -0.0357519
-0.7299805, 0.0263672, -0.2626953, -34.6341476, -28.5365868, 4.8780489, -0.0713359
-0.7231445, 0.0136719, -0.2441406, -33.2926826, -27.1951218, 5.609756, -0.0746929
-0.7329102, 0.0166016, -0.2421875, -32.4390259, -24.3292694, 4.2682929, -0.068986
-0.746582, 0.0239258, -0.2680664, -32.3780479, -23.3536587, 3.5365853, -0.0594186
-0.769043, 0.0581055, -0.3339844, -33.2926826, -23.4146347, 3.5975611, -0.0364233
-0.7734375, 0.0722656, -0.3588867, -33.7195129, -24.2073174, 4.2682929, -0.0350805
-0.7451172, 0.0874023, -0.3764648, -34.4512215, -24.3902435, 5.9756098, -0.0555581
-0.715332, 0.0888672, -0.3735352, -34.2682953, -23.0487804, 6.9512196, -0.0941634
-0.659668, 0.0732422, -0.3525391, -33.5975609, -18.0487804, 7.4390244, -0.1505608
-0.6254883, 0.0522461, -0.3305664, -33.2317085, -14.3902445, 7.3780489, -0.188159
-0.6225586, 0.0419922, -0.3256836, -33.6585388, -6.4024391, 5.8536587, -0.1801022
-0.6459961, 0.0224609, -0.3310547, -33.7804871, -3.0487804, 5.1219511, -0.1487144
-0.6630859, 0.0166016, -0.3442383, -35, 2.3170731, 4.2682929, -0.096849
-0.7006836, 0.0029297, -0.3691406, -36.1585388, 5.3658538, 4.2682929, -0.0287022
-0.7084961, -0.0019531, -0.3793945, -36.1585388, 6.0975609, 4.5731707, 0.0475013
-0.7167969, -0.0131836, -0.3725586, -34.3902435, 7.7439027, 4.8170733, 0.1099413
-0.7045898, -0.0200195, -0.3608398, -32.8048782, 8.841464, 5.2439027, 0.1153124
-0.6762695, -0.027832, -0.3398438, -29.3292694, 12.6219511, 5, 0.0876173
-0.6689453, -0.0292969, -0.3295898, -27.8048782, 15.6097565, 4.2073174, 0.0788891
-0.6679688, -0.0297852, -0.3129883, -25.6707325, 21.4634151, 2.3170731, 0.061265
-0.6865234, -0.0024414, -0.3007812, -25.3658543, 24.1463413, 1.2195122, 0.0448157
-0.6953125, 0.0107422, -0.3032227, -24.6341476, 28.0487804, -0.3048781, 0.0391089
-0.7236328, 0.0219727, -0.3032227, -24.5731716, 29.2073174, -0.7317073, 0.0166171
-0.7299805, 0.0244141, -0.3012695, -24.0853672, 29.9390259, -0.8536586, -0.0018463
-0.7294922, 0.0175781, -0.3095703, -23.1097565, 30.3048782, -0.9146342, -0.0016785
-0.7265625, 0.0087891, -0.3115234, -22.7439022, 30.9146347, -1.2195122, -0.0048676
-0.7104492, 0, -0.3037109, -21.8902435, 33.2926826, -2.5609756, -0.0115816
-0.706543, 0.0053711, -0.2954102, -22.0121956, 34.6951218, -3.5365853, -0.0166171
-0.7045898, 0.0224609, -0.284668, -21.2195129, 37.4390259, -6.280488, -0.0313878
-0.7045898, 0.0371094, -0.2861328, -21.280489, 38.5975609, -6.9512196, -0.0438087
-0.7226562, 0.0698242, -0.3100586, -22.6829281, 39.9390259, -9.0853662, -0.0417945
-0.7246094, 0.0732422, -0.3271484, -23.7195129, 40, -9.3902445, -0.0209812
-0.7207031, 0.0644531, -0.3232422, -25.1219521, 40.4268303, -8.9024391, 0.008896
-0.7045898, 0.0424805, -0.3032227, -25.3048782, 41.341465, -8.3536587, 0.0387732
-0.6889648, 0.0341797, -0.2983398, -23.9634151, 44.3902435, -7.8048782, 0.0481727
-0.6806641, 0.0302734, -0.3032227, -21.8902435, 49.2073174, -8.6585369, 0.0347448
-0.6835938, 0.0375977, -0.3007812, -20.7926826, 51.7682953, -8.780488, 0.0182956
-0.6899414, 0.0581055, -0.3007812, -19.3902435, 55.6097565, -9.0243902, -0.0035248
-0.6928711, 0.0698242, -0.3046875, -18.7195129, 57.3780518, -9.5121956, -0.0364233
-0.7070312, 0.0703125, -0.3085938, -18.5365849, 59.6951218, -10.6097565, -0.0830854
-0.7133789, 0.0571289, -0.315918, -18.4756107, 59.8170738, -10.2439022, -0.145861
-0.7124023, 0.0107422, -0.3291016, -17.7439022, 59.2073174, -8.719512, -0.2069581
-0.6899414, -0.03125, -0.3330078, -16.5853653, 58.9634171, -8.4756098, -0.2438849
-0.671875, -0.0415039, -0.3349609, -12.5, 60.3658562, -8.0487804, -0.24271
-0.6464844, -0.0375977, -0.324707, -10.5487804, 62.0121956, -8.5975609, -0.2009155
-0.640625, -0.0224609, -0.3212891, -6.280488, 67.0731735, -10.8536587, -0.145861
-0.6503906, 0.0092773, -0.3071289, -3.5975611, 72.5609741, -12.8658543, -0.0882887
-0.6630859, 0.0209961, -0.3022461, -2.9878049, 74.4512177, -13.4756098, -0.0238346
-0.6904297, 0.0229492, -0.2919922, -1.4634147, 76.2195129, -13.780488, 0.0263523
-0.6967773, 0.0161133, -0.2924805, -0.7317073, 76.1585388, -13.6585369, 0.0582437
-0.699707, -0.0073242, -0.3154297, 0.5487805, 75.3048782, -12.9878054, 0.0797284
-0.6938477, -0.012207, -0.3422852, 0.7317073, 74.8780518, -12.9268293, 0.0903029
-0.6748047, -0.0180664, -0.3808594, 1.097561, 75.0609741, -13.7195129, 0.085771
-0.6479492, -0.0087891, -0.3730469, 1.3414634, 75.6097565, -14.6341467, 0.0542153
-0.6293945, 0.0102539, -0.3754883, 2.0121951, 77.8658524, -16.5243912, 0.0354162
-0.6098633, 0.0439453, -0.4003906, 2.0121951, 79.2073212, -17.7439022, 0.0327306
-0.609375, 0.0561523, -0.4238281, -0.3048781, 82.3170776, -19.5731716, 0.0216526
-0.605957, 0.0512695, -0.4570312, -3.7804878, 85.2439041, -19.7560978, 0.0112459
-0.6049805, 0.0449219, -0.465332, -5.0609756, 86.2804871, -18.8414631, -0.0068818
-0.5844727, 0.0595703, -0.4677734, -6.5853658, 90.2439041, -17.1341476, -0.0011749
-0.5727539, 0.074707, -0.4648438, -6.8292685, 93.2926865, -17.0731716, 0.0209812
-0.5585938, 0.0986328, -0.4599609, -6.890244, 99.0853653, -18.5975609, 0.024506
-0.5605469, 0.0952148, -0.4604492, -7.4390244, 101.2804871, -18.780489, 0.0340734
-0.5654297, 0.0361328, -0.4824219, -8.4756098, 102.6219559, -17.3170738, 0.0307164
-0.5449219, -0.0644531, -0.5063477, -8.4146347, 102.4390259, -16.1585369, -0.0085603
-0.5292969, -0.1035156, -0.5161133, -6.5243902, 102.8658524, -14.1463413, -0.061265
-0.4926758, -0.1425781, -0.5253906, -4.5731707, 104.6951218, -13.4146347, -0.0928206
-0.4765625, -0.1347656, -0.5302734, 0.0609756, 110.9146347, -14.7560978, -0.1163195
-0.4726562, -0.0756836, -0.5390625, 3.7804878, 118.7195129, -18.5975609, -0.142504
-0.4804688, -0.0395508, -0.5449219, 4.9390244, 122.3780518, -20.7317085, -0.1433433
-0.5092773, 0.0180664, -0.5361328, 4.0853658, 126.9512253, -23.6585369, -0.1226978
-0.5327148, 0.0361328, -0.5185547, 3.3536587, 128.1707306, -24.2682934, -0.0894636
-0.5522461, 0.0380859, -0.4541016, 1.402439, 129.0243988, -24.6341476, -0.0522011
-0.5615234, 0.0151367, -0.4199219, 1.4634147, 128.4756165, -24.6341476, -0.0260166
-0.5791016, -0.0283203, -0.3652344, 2.1341465, 127.0121994, -24.3292694, -0.0152743
-0.6025391, -0.0708008, -0.3510742, 3.5975611, 126.0365906, -24.0853672, -0.0229953
-0.6079102, -0.0883789, -0.3569336, 7.3780489, 123.5365906, -22.9268303, -0.0538796
-0.6098633, -0.0849609, -0.4262695, 9.3902445, 122.5, -22.3780499, -0.0951705
-0.6044922, -0.0698242, -0.4692383, 12.4390249, 120.3048782, -21.9512196, -0.1351186
-0.5844727, -0.0341797, -0.5712891, 13.2926836, 119.2682953, -22.8048782, -0.1666743
-0.5678711, -0.0214844, -0.6000977, 12.9268293, 118.7804871, -23.9634151, -0.1482109
-0.5170898, -0.0131836, -0.5776367, 12.5, 118.8414688, -25.7926826, -0.0495155
-0.4873047, -0.0195312, -0.5322266, 13.3536587, 119.3902435, -26.8292694, 0.0720073
-0.4467773, -0.0405273, -0.4238281, 17.0731716, 121.4024429, -28.780489, 0.1656672
-0.4321289, -0.0605469, -0.3984375, 19.2682934, 123.2317123, -29.6951218, 0.2002441
-0.4453125, -0.059082, -0.4350586, 22.3780499, 126.8292694, -31.341465, 0.1891661
-0.4975586, -0.0297852, -0.5556641, 22.3170738, 128.1707306, -32.1951218, 0.1609674
-0.5209961, -0.0097656, -0.6044922, 19.6951218, 128.9024353, -32.4390259, 0.1240406
-0.5375977, 0.0068359, -0.637207, 18.1707325, 128.1097565, -32.0121956, 0.0884565
-0.5307617, 0.0053711, -0.6264648, 17.0121956, 124.6951218, -31.1585369, 0.0582437
-0.4838867, -0.0151367, -0.5795898, 19.2073174, 121.1585388, -30.6707325, 0.0310521
-0.4594727, -0.0322266, -0.5551758, 21.280489, 120.2439041, -30.7926846, 0.0035248
-0.4189453, -0.0703125, -0.5229492, 25.6097565, 121.2804871, -31.2195129, -0.0203098
-0.4121094, -0.0874023, -0.5385742, 27.0731716, 122.8048782, -31.341465, -0.0491798
-0.4057617, -0.0893555, -0.6401367, 27.8048782, 126.7682953, -30.4268303, -0.0884565
-0.4277344, -0.0512695, -0.7924805, 26.4634151, 128.5975647, -29.5731716, -0.1116197
-0.4316406, -0.0205078, -0.855957, 22.439024, 131.5243988, -26.7073174, -0.139147
-0.4155273, 0.043457, -0.9257812, 20.060976, 132.86586, -25.3048782, -0.1519036
-0.3916016, 0.0727539, -0.9291992, 17.439024, 135.6707306, -23.0487804, -0.1505608
-0.3320312, 0.1181641, -0.9018555, 16.5243912, 137.4390259, -22.439024, -0.1297475
-0.3027344, 0.1333008, -0.8710938, 15.7317076, 141.5243988, -22.0121956, -0.103563
-0.2607422, 0.1313477, -0.7851562, 14.5121956, 147.3780518, -21.5853672, -0.0958419
-0.2558594, 0.1142578, -0.7304688, 13.5365858, 150.2439117, -20.9146347, -0.0931563
-0.2641602, 0.0673828, -0.6245117, 12.2560978, 154.146347, -19.8170738, -0.0810712
-0.2861328, 0.0371094, -0.5917969, 12.0121956, 154.6951294, -18.9634151, -0.072343
-0.3496094, -0.019043, -0.578125, 12.0731707, 153.1707306, -17.439024, -0.0847639
-0.4057617, -0.0673828, -0.6679688, 11.8902445, 150.9146423, -16.9512196, -0.1169909
-0.4282227, -0.0864258, -0.7456055, 10.5487804, 144.5121918, -15.1219511, -0.0995346
-0.4453125, -0.1044922, -0.8950195, 8.719512, 141.5243988, -14.3292685, -0.047837
-0.4370117, -0.097168, -0.9306641, 6.5243902, 135.9146423, -13.2926836, 0.0099031
