Application:, Trigno Discover (1.6.5)
Date/Time:, 12/02/2025 16:55:18
Collection Length (seconds):, 39.15
wrist (81457), , , , , , bicep (81139)
sensor mode: 609, , , , , , sensor mode: 40
ACC X (G), ACC Y (G), ACC Z (G), GYRO X (deg/s), GYRO Y (deg/s), GYRO Z (deg/s), EMG 1 (mV)
370.3704 Hz, 370.3704 Hz, 370.3704 Hz, 370.3704 Hz, 370.3704 Hz, 370.3704 Hz, 2148.1481 Hz
0.9921875, -0.1132812, -0.2719727, -23.2317085, 0.1219512, 10.1219511, -0.0117494
0.9907227, -0.1254883, -0.2675781, -23.780489, -0.5487805, 10.2439022, -0.0176242
0.987793, -0.1391602, -0.2587891, -23.5975609, -0.8536586, 10.2439022, -0.0213169
0.984375, -0.1416016, -0.2548828, -22.3170738, -0.9146342, 10.1829271, -0.0209812
0.9848633, -0.1386719, -0.2490234, -21.5243912, -0.6097561, 9.9390249, -0.021149
0.984375, -0.1376953, -0.2504883, -20.2439022, -0.6707317, 9.6341467, -0.0219883
0.9790039, -0.1367188, -0.246582, -19.6951218, -0.7317073, 9.6341467, -0.0206455
0.9775391, -0.1328125, -0.2421875, -18.2926826, -0.9146342, 9.0243902, -0.0198062
0.9848633, -0.1196289, -0.2480469, -16.8902435, -0.9756098, 9.1463413, -0.0068818
0.9858398, -0.1230469, -0.2480469, -15.9146347, -1.097561, 9.0853662, 0.0011749
0.980957, -0.1088867, -0.2568359, -15.060976, -0.8536586, 8.841464, 0.0028534
0.9902344, -0.1030273, -0.2612305, -15.1829271, -1.0365853, 8.780488, 0.0011749
0.9931641, -0.1005859, -0.2592773, -15.5487804, -0.9756098, 8.780488, 0.0011749
0.9951172, -0.0932617, -0.2558594, -15.5487804, -1.3414634, 8.841464, 0.0011749
0.9926758, -0.0869141, -0.2539062, -16.1585369, -2.1341465, 9.0243902, -0.0018463
0.9960938, -0.0869141, -0.2578125, -16.280489, -2.3780489, 9.3292685, -0.0102388
0.9960938, -0.0800781, -0.2583008, -16.280489, -3.4756098, 9.4512196, -0.0203098
0.9970703, -0.0883789, -0.2553711, -16.5853653, -3.9024391, 9.0243902, -0.0256809
1.0024414, -0.0913086, -0.2509766, -17.1341476, -4.390244, 9.2073174, -0.0332341
1.0039062, -0.105957, -0.2358398, -16.8902435, -4.4512196, 8.841464, -0.0377661
1.0043945, -0.1152344, -0.2338867, -16.5853653, -4.0243902, 8.9634151, -0.0417945
0.9941406, -0.1176758, -0.2397461, -15.4878054, -3.9024391, 9.0243902, -0.04448
0.9863281, -0.1186523, -0.2558594, -15.060976, -4.1463413, 9.0243902, -0.0495155
0.9824219, -0.1210938, -0.2617188, -15, -4.8780489, 9.6951218, -0.0506905
0.9887695, -0.1210938, -0.2646484, -15.060976, -5.3658538, 9.7560978, -0.0547189
0.996582, -0.1206055, -0.2651367, -15.1219511, -5.670732, 9.2073174, -0.0602579
1.0180664, -0.1240234, -0.2583008, -15, -5.8536587, 9.0243902, -0.0626078
1.0214844, -0.128418, -0.2583008, -14.8780489, -5.609756, 8.4146347, -0.0654612
1.0175781, -0.1298828, -0.2641602, -14.5731707, -5.609756, 8.2926826, -0.0659648
1.0161133, -0.1318359, -0.2685547, -14.8780489, -5.1829271, 8.2317076, -0.06009
1.0048828, -0.1357422, -0.2670898, -14.4512196, -5.1219511, 8.6585369, -0.0538796
1.0019531, -0.1318359, -0.2666016, -14.3902445, -5.1829271, 8.5975609, -0.0454871
0.9951172, -0.1220703, -0.2680664, -13.9634151, -4.9390244, 8.1707315, -0.0411231
0.9995117, -0.1225586, -0.2773438, -13.780488, -4.7560978, 7.6219516, -0.0404517
1.0009766, -0.1269531, -0.2802734, -14.0853662, -5.2439027, 6.8292685, -0.0330663
1.0083008, -0.1337891, -0.2670898, -14.6341467, -5.3048782, 6.7682929, -0.03122
1.0102539, -0.137207, -0.2612305, -15.4878054, -5.3048782, 6.8292685, -0.0243381
1.0073242, -0.1435547, -0.2558594, -15.7317076, -5.2439027, 6.7682929, -0.018967
1, -0.1396484, -0.2558594, -16.0975609, -5.2439027, 7.1341467, -0.017792
0.9814453, -0.1162109, -0.2583008, -15.9146347, -5.1829271, 7.3170733, -0.0129244
0.9790039, -0.109375, -0.2607422, -15.8536587, -5.4268293, 7.9268293, -0.0105745
0.9853516, -0.081543, -0.2641602, -15.9146347, -5.670732, 7.9268293, -0.0099031
0.9887695, -0.0766602, -0.2700195, -16.1585369, -5.670732, 7.9268293, -0.0085603
0.9921875, -0.065918, -0.2885742, -18.0487804, -5.7926831, 7.9268293, -0.0102388
1, -0.0732422, -0.2915039, -19.3292694, -6.0365853, 8.3536587, -0.0135958
1.0019531, -0.0761719, -0.2895508, -22.5, -6.280488, 8.780488, -0.0203098
1.0043945, -0.0864258, -0.2763672, -23.3536587, -5.9756098, 9.0853662, -0.0297093
1.0029297, -0.0961914, -0.269043, -24.4512196, -5.8536587, 9.3292685, -0.0339055
0.9975586, -0.1166992, -0.2607422, -24.5121956, -5.7317076, 9.2073174, -0.0350805
0.9921875, -0.1289062, -0.253418, -23.9024391, -5.5487804, 8.5365858, -0.0386053
0.9765625, -0.1474609, -0.2553711, -23.6585369, -5.670732, 8.2926826, -0.0394446
0.9682617, -0.1538086, -0.2529297, -23.0487804, -4.8170733, 8.1707315, -0.0372625
0.9643555, -0.1655273, -0.2426758, -22.2560978, -4.8780489, 7.6219516, -0.0340734
0.9492188, -0.1728516, -0.2358398, -21.5243912, -4.8170733, 7.1951222, -0.0370947
0.9482422, -0.1748047, -0.237793, -19.4512196, -4.0853658, 6.890244, -0.0412909
0.9331055, -0.1782227, -0.2539062, -18.5365849, -4.1463413, 6.5853658, -0.0394446
0.9301758, -0.1713867, -0.2661133, -16.4634151, -4.0243902, 6.4634147, -0.0485084
0.9375, -0.1586914, -0.2758789, -15.9146347, -4.0853658, 6.6463418, -0.0486763
0.940918, -0.152832, -0.2773438, -14.8780489, -4.1463413, 6.6463418, -0.0458228
0.9672852, -0.137207, -0.269043, -14.6341467, -3.9634147, 6.280488, -0.0471656
0.9760742, -0.1303711, -0.2641602, -13.841464, -3.2926829, 4.9390244, -0.0500191
0.9902344, -0.128418, -0.2631836, -13.6585369, -2.804878, 4.3292685, -0.0498512
0.9833984, -0.128418, -0.2695312, -13.9024391, -2.5609756, 4.1463413, -0.0491798
0.9814453, -0.1264648, -0.2753906, -14.2073174, -2.9878049, 4.8780489, -0.0515297
0.9785156, -0.1279297, -0.2739258, -14.9390249, -3.1097562, 5.1219511, -0.0446479
0.9765625, -0.1293945, -0.2783203, -15.9756098, -3.5975611, 5.4268293, -0.0392767
0.9702148, -0.1289062, -0.2705078, -16.4024391, -3.6585367, 5.1829271, -0.0357519
0.96875, -0.1318359, -0.265625, -16.8902435, -3.5365853, 4.8170733, -0.0310521
0.9506836, -0.1347656, -0.2592773, -17.1341476, -3.4756098, 4.5121951, -0.0223239
0.9482422, -0.1396484, -0.2553711, -17.6219521, -3.1707318, 4.5121951, -0.0169528
0.9370117, -0.1479492, -0.2529297, -17.7439022, -3.1097562, 4.8170733, -0.0162814
0.9262695, -0.1499023, -0.2543945, -18.1707325, -3.8414636, 5.3048782, -0.011078
0.9384766, -0.1557617, -0.2607422, -18.0487804, -3.9024391, 5.4878049, -0.0102388
0.940918, -0.15625, -0.2617188, -17.7439022, -4.8780489, 4.8170733, -0.0082246
0.9467773, -0.1611328, -0.2661133, -17.8048782, -5.5487804, 4.5121951, -0.0073854
0.9599609, -0.1606445, -0.2563477, -17.9268303, -5.670732, 4.6951222, -0.0011749
0.9624023, -0.1665039, -0.2470703, -18.5975609, -5.5487804, 4.8780489, 0.0063783
0.9609375, -0.1665039, -0.2275391, -19.0243912, -5.4268293, 4.8780489, 0.0139315
0.9516602, -0.1660156, -0.21875, -19.2073174, -5.1829271, 5.1219511, 0.0209812
0.9433594, -0.1513672, -0.2094727, -18.4146347, -5.1219511, 5.1829271, 0.0240024
0.9326172, -0.1381836, -0.2114258, -17.6829281, -5.7926831, 5.670732, 0.0219883
0.9331055, -0.1347656, -0.2167969, -17.1951218, -6.4024391, 5.5487804, 0.0182956
0.9316406, -0.1367188, -0.2246094, -16.9512196, -7.3780489, 5.1219511, 0.0135958
0.9370117, -0.152832, -0.2382812, -16.8292694, -7.6219516, 5.1219511, -0.0001678
0.9375, -0.1616211, -0.2426758, -17.5, -7.5, 5.4268293, -0.0078889
0.9384766, -0.1777344, -0.2426758, -17.2560978, -7.6829271, 6.0365853, -0.0132601
0.9331055, -0.1757812, -0.2421875, -17.0121956, -7.3170733, 5.9756098, -0.0152743
0.9321289, -0.1728516, -0.2431641, -16.5853653, -8.0487804, 5.609756, -0.0229953
0.9331055, -0.1704102, -0.2387695, -16.280489, -8.4146347, 5.3658538, -0.0250095
0.9350586, -0.1738281, -0.2441406, -15.6707325, -8.841464, 4.8170733, -0.0243381
0.9384766, -0.1816406, -0.2412109, -15.3658543, -9.0853662, 4.5731707, -0.0253452
0.9360352, -0.190918, -0.2426758, -14.8170738, -8.9024391, 4.1463413, -0.0263523
0.9311523, -0.1982422, -0.2441406, -14.5121956, -8.9024391, 4.2073174, -0.0226596
0.9291992, -0.1972656, -0.2387695, -12.6829271, -8.3536587, 4.5121951, -0.0243381
0.9238281, -0.1879883, -0.2431641, -11.7073174, -8.2926826, 3.9634147, -0.0196384
0.9091797, -0.1835938, -0.2646484, -9.0243902, -9.0243902, 2.9878049, -0.0226596
0.9223633, -0.1728516, -0.2290039, -6.5243902, -10.5487804, 2.3170731, -0.0238346
0.9536133, -0.1728516, -0.2294922, -7.0121951, -7.9878049, 2.0121951, -0.0256809
0.953125, -0.171875, -0.2495117, -9.8170738, -6.5243902, 2.0121951, -0.0354162
0.9233398, -0.1738281, -0.2617188, -10.9756098, -7.8658538, 2.195122, -0.0491798
0.9135742, -0.1831055, -0.2446289, -12.0731707, -9.8170738, 2.9268293, -0.051194
0.9179688, -0.1879883, -0.2041016, -11.219512, -9.8780489, 3.7195122, -0.0532082
0.9135742, -0.1679688, -0.2055664, -9.6341467, -7.8048782, 4.2073174, -0.0528725
0.8857422, -0.125, -0.2373047, -9.1463413, -6.890244, 3.5365853, -0.0528725
0.871582, -0.109375, -0.2514648, -10.060976, -8.2317076, 2.8658538, -0.0558938
0.8803711, -0.1118164, -0.2729492, -11.4024391, -9.9390249, 3.5365853, -0.054551
0.902832, -0.1171875, -0.2768555, -13.9024391, -12.8048782, 5.5487804, -0.0552224
0.9516602, -0.1274414, -0.2900391, -15.1219511, -12.3170738, 6.3414636, -0.054551
0.9716797, -0.1352539, -0.2895508, -15.4878054, -10.9146347, 6.280488, -0.0486763
0.9790039, -0.1411133, -0.2885742, -17.1341476, -8.780488, 5.3048782, -0.0404517
0.9702148, -0.1533203, -0.2749023, -17.8658543, -8.780488, 5.2439027, -0.0332341
0.9614258, -0.1616211, -0.2626953, -19.0243912, -9.2682924, 5.5487804, -0.0313878
0.9536133, -0.1738281, -0.2539062, -19.0853672, -9.3902445, 6.0365853, -0.0258488
0.9492188, -0.1787109, -0.2480469, -18.780489, -9.6951218, 6.2195125, -0.017792
0.9414062, -0.1865234, -0.2480469, -18.5365849, -9.5121956, 6.280488, -0.0097353
0.940918, -0.1904297, -0.25, -18.8414631, -9.8780489, 5.609756, -0.0048676
0.9311523, -0.1962891, -0.2529297, -18.7195129, -10.1219511, 5.3048782, 0.0031891
0.9335938, -0.1967773, -0.2485352, -18.3536587, -10.4268293, 5.5487804, 0.0125887
0.9296875, -0.1884766, -0.2441406, -17.560976, -10.060976, 5.4878049, 0.0198062
0.9296875, -0.1850586, -0.2407227, -16.8292694, -10.2439022, 5.4268293, 0.0186313
0.9360352, -0.1796875, -0.2441406, -15.7317076, -10.8536587, 4.8780489, 0.0246738
0.9428711, -0.1806641, -0.2514648, -15.4878054, -10.9756098, 4.7560978, 0.0236667
0.949707, -0.1831055, -0.2553711, -15.5487804, -10.9756098, 4.2073174, 0.0260166
0.953125, -0.190918, -0.2568359, -15.9146347, -11.280488, 3.9634147, 0.0263523
0.9541016, -0.2011719, -0.2524414, -16.4024391, -10.6707315, 4.5121951, 0.0240024
0.9545898, -0.2070312, -0.2460938, -16.4634151, -10.3048782, 4.6951222, 0.0206455
0.9516602, -0.2001953, -0.2392578, -15.4268293, -10.060976, 4.390244, 0.014435
0.9438477, -0.1835938, -0.230957, -14.5121956, -9.9390249, 4.2073174, 0.0078889
0.9423828, -0.1835938, -0.2290039, -13.3536587, -9.6951218, 3.7195122, 0.0018463
0.9301758, -0.1787109, -0.2358398, -13.3536587, -9.4512196, 3.5975611, 0.0005035
0.9282227, -0.1665039, -0.2421875, -13.3536587, -9.5121956, 3.7195122, -0.0023499
0.9262695, -0.1630859, -0.25, -14.2073174, -10.1219511, 4.390244, -0.0030213
0.9301758, -0.1616211, -0.2631836, -14.8170738, -10.4878054, 4.5731707, -0.0035248
0.9360352, -0.15625, -0.2709961, -15.3048782, -10.5487804, 4.8170733, -0.0097353
0.9458008, -0.1621094, -0.2763672, -15.6707325, -10.6707315, 4.6341462, -0.0162814
0.9492188, -0.1635742, -0.2768555, -15.9756098, -10.5487804, 4.8780489, -0.0182956
0.9575195, -0.1655273, -0.2602539, -16.4634151, -10.1829271, 5, -0.0191348
0.9614258, -0.1630859, -0.2519531, -16.5853653, -9.7560978, 4.8170733, -0.0231632
0.9672852, -0.1640625, -0.2407227, -16.7073174, -9.6951218, 4.7560978, -0.0213169
0.9604492, -0.1640625, -0.2397461, -17.1341476, -9.6341467, 4.6341462, -0.021149
0.9560547, -0.1738281, -0.2421875, -17.6829281, -10, 5.1829271, -0.0199741
0.9570312, -0.1743164, -0.2470703, -17.6829281, -10.3658543, 5.4878049, -0.0243381
0.9550781, -0.1801758, -0.2514648, -17.560976, -10.4268293, 5.7317076, -0.0224918
0.9541016, -0.1821289, -0.2626953, -17.3170738, -10.1219511, 5.609756, -0.0256809
0.9555664, -0.184082, -0.2666016, -16.9512196, -10.2439022, 5.7926831, -0.0303807
0.9570312, -0.1850586, -0.2666016, -16.8292694, -10.1829271, 5.7926831, -0.0330663
0.9619141, -0.1870117, -0.2626953, -16.9512196, -9.5731707, 5.3658538, -0.0313878
0.956543, -0.1889648, -0.2504883, -16.8292694, -9.7560978, 5.4268293, -0.0310521
0.9580078, -0.1826172, -0.2426758, -16.6463413, -9.8170738, 4.9390244, -0.0260166
0.9511719, -0.1787109, -0.2348633, -16.6463413, -10, 4.9390244, -0.0216526
0.9487305, -0.1733398, -0.2324219, -16.1585369, -10.1829271, 5.4268293, -0.0166171
0.9482422, -0.1625977, -0.2329102, -16.1585369, -10.1829271, 5.4878049, -0.0135958
0.9550781, -0.1625977, -0.2373047, -16.5243912, -10.4878054, 5.4268293, -0.0139315
0.9570312, -0.1645508, -0.2416992, -17.2560978, -10.4268293, 5.1829271, -0.01561
0.9609375, -0.1699219, -0.2441406, -17.6219521, -10.3658543, 5.1829271, -0.0204776
0.9584961, -0.1738281, -0.246582, -18.5975609, -9.6951218, 5.4878049, -0.0229953
0.9575195, -0.1748047, -0.2480469, -18.8414631, -9.3902445, 5.7926831, -0.0229953
0.9545898, -0.1728516, -0.2539062, -19.2073174, -8.6585369, 6.0975609, -0.0218204
0.9448242, -0.1669922, -0.262207, -19.2073174, -8.2926826, 6.1585369, -0.0206455
0.9433594, -0.168457, -0.2626953, -20.1219521, -8.0487804, 6.4634147, -0.0236667
0.9458008, -0.1655273, -0.2636719, -20.2439022, -7.6829271, 6.0365853, -0.0276951
0.949707, -0.1655273, -0.2597656, -19.8170738, -7.5, 5.8536587, -0.0290379
0.9575195, -0.168457, -0.2558594, -19.5731716, -6.7073174, 5.670732, -0.0270237
0.9570312, -0.1621094, -0.262207, -19.5731716, -5.9756098, 5.4878049, -0.0258488
0.9526367, -0.15625, -0.269043, -20.5487804, -5.3048782, 5.609756, -0.0263523
0.9443359, -0.1606445, -0.2768555, -20.9146347, -5.3048782, 5.7317076, -0.0265202
0.9428711, -0.1586914, -0.2749023, -22.1951218, -5.3048782, 6.4024391, -0.0313878
0.9506836, -0.1557617, -0.2685547, -21.8292694, -5.3658538, 6.7073174, -0.0354162
0.9584961, -0.1499023, -0.2719727, -21.8292694, -4.390244, 6.2195125, -0.033402
0.9599609, -0.1494141, -0.28125, -21.7682934, -3.7195122, 5.8536587, -0.0303807
0.9541016, -0.1484375, -0.2851562, -22.5, -2.6219513, 5.7926831, -0.0236667
0.9477539, -0.1542969, -0.2861328, -24.0243912, -2.5, 6.0975609, -0.0164492
0.9462891, -0.159668, -0.2817383, -24.3902435, -2.6829269, 6.3414636, -0.0132601
0.9443359, -0.1586914, -0.2583008, -23.8414631, -2.4390244, 6.3414636, -0.0149386
0.9467773, -0.1640625, -0.2382812, -23.4756107, -2.195122, 5.9756098, -0.0129244
0.9433594, -0.1655273, -0.2299805, -22.560976, -2.0731707, 5.3048782, -0.0166171
0.9375, -0.1728516, -0.2260742, -22.2560978, -2.0731707, 5.2439027, -0.0172885
0.9331055, -0.1791992, -0.2260742, -22.0731716, -2.3780489, 4.8170733, -0.0179599
0.9316406, -0.1904297, -0.2226562, -21.8292694, -2.7439024, 4.8780489, -0.0179599
0.9370117, -0.1943359, -0.2241211, -21.4634151, -3.7804878, 5.1829271, -0.0216526
0.9414062, -0.2021484, -0.2275391, -21.1585369, -4.2682929, 5.609756, -0.0236667
0.9487305, -0.1967773, -0.230957, -19.8170738, -4.2682929, 5.4878049, -0.0229953
0.9550781, -0.1870117, -0.2392578, -19.0853672, -4.1463413, 5.2439027, -0.0240024
0.9580078, -0.1811523, -0.2436523, -18.4146347, -4.2682929, 5.2439027, -0.0209812
0.9604492, -0.1665039, -0.2456055, -17.8048782, -4.7560978, 5.3658538, -0.0229953
0.9667969, -0.1499023, -0.2441406, -17.3780499, -4.8170733, 5.3048782, -0.0236667
0.9658203, -0.1459961, -0.2446289, -17.9878044, -4.8780489, 5.3658538, -0.0216526
0.9638672, -0.1386719, -0.2495117, -18.6585369, -4.8780489, 5.4268293, -0.0263523
0.9628906, -0.1396484, -0.2470703, -20.4878044, -5.1219511, 5.7926831, -0.030045
0.9550781, -0.1469727, -0.2402344, -21.2195129, -5.4268293, 5.9146342, -0.0337377
0.9541016, -0.1489258, -0.234375, -21.8902435, -6.280488, 6.3414636, -0.0359197
0.9453125, -0.1542969, -0.2392578, -21.7073174, -6.5853658, 6.2195125, -0.0350805
0.9399414, -0.1503906, -0.2373047, -21.3414631, -6.9512196, 6.6463418, -0.0285344
0.9423828, -0.1494141, -0.2573242, -21.280489, -7.1341467, 7.0121951, -0.0238346
0.9414062, -0.1484375, -0.2680664, -21.2195129, -7.5, 7.0121951, -0.0176242
0.9467773, -0.1474609, -0.2817383, -21.9512196, -7.6829271, 7.3170733, -0.0157778
0.9584961, -0.1508789, -0.2836914, -22.439024, -7.9878049, 7.8658538, -0.0162814
0.9619141, -0.1499023, -0.2802734, -22.5, -7.5, 7.8658538, -0.0152743
0.9658203, -0.1503906, -0.2773438, -23.1097565, -7.1341467, 7.6829271, -0.0077211
0.9633789, -0.1455078, -0.2749023, -23.2926826, -6.2195125, 7.3780489, -0.0045319
0.9628906, -0.1474609, -0.2739258, -23.9634151, -6.2195125, 7.1951222, -0.0045319
0.956543, -0.1503906, -0.2680664, -25.3048782, -6.8292685, 7.3170733, -0.0075532
0.949707, -0.1518555, -0.2602539, -25.7926826, -7.1341467, 7.7439027, -0.0070497
0.9511719, -0.1489258, -0.2553711, -26.3414631, -7.4390244, 8.1097565, -0.005539
0.9580078, -0.1606445, -0.2446289, -26.280489, -7.6829271, 7.7439027, -0.0062104
0.9628906, -0.1704102, -0.2402344, -25.9146347, -7.6829271, 7.1951222, -0.005539
0.9624023, -0.1782227, -0.234375, -25.1829281, -6.7682929, 6.6463418, -0.0058747
0.9472656, -0.1875, -0.2382812, -24.8170738, -6.1585369, 6.4634147, -0.0035248
0.9404297, -0.1884766, -0.2412109, -24.0243912, -6.2195125, 6.7073174, -0.002182
0.9316406, -0.1870117, -0.2348633, -23.780489, -6.5853658, 6.8292685, -0.003357
0.9370117, -0.190918, -0.2246094, -22.5, -6.7073174, 6.5853658, -0.0058747
0.9467773, -0.1875, -0.2216797, -21.9512196, -6.6463418, 6.4024391, -0.0048676
0.9477539, -0.1865234, -0.222168, -20.7926826, -6.7682929, 5.2439027, -0.0075532
0.9536133, -0.1855469, -0.2246094, -20.3048782, -6.890244, 4.7560978, -0.0082246
0.956543, -0.1870117, -0.2260742, -20.2439022, -7.8048782, 4.2073174, -0.0142672
0.9609375, -0.1967773, -0.2236328, -20.5487804, -7.9878049, 4.2682929, -0.01561
0.9609375, -0.1972656, -0.2255859, -20, -8.1707315, 4.5731707, -0.0152743
0.9619141, -0.1855469, -0.2250977, -18.5975609, -8.2926826, 4.2073174, -0.0203098
0.9614258, -0.1743164, -0.2392578, -18.1097565, -8.4146347, 3.9634147, -0.0256809
0.9589844, -0.1630859, -0.2485352, -17.1341476, -8.4146347, 3.5365853, -0.0250095
0.9594727, -0.1621094, -0.2592773, -17.2560978, -8.780488, 3.7195122, -0.0270237
0.9599609, -0.1635742, -0.2543945, -18.1097565, -8.9024391, 3.9024391, -0.0236667
0.9682617, -0.1655273, -0.253418, -18.1097565, -8.780488, 4.0243902, -0.0270237
0.9741211, -0.1630859, -0.2509766, -18.1097565, -8.3536587, 3.4756098, -0.0318914
0.9648438, -0.1577148, -0.2446289, -17.9878044, -7.8048782, 3.2926829, -0.0330663
0.9599609, -0.1518555, -0.246582, -17.9268303, -7.9268293, 3.1097562, -0.0431373
0.9536133, -0.1455078, -0.2524414, -18.3536587, -8.4146347, 3.4146342, -0.0498512
0.953125, -0.1420898, -0.2612305, -19.0853672, -8.6585369, 3.7804878, -0.0572366
0.9550781, -0.144043, -0.262207, -21.1585369, -9.2073174, 4.2073174, -0.0636149
0.9663086, -0.144043, -0.2631836, -22.1341476, -9.0243902, 4.3292685, -0.0706645
0.965332, -0.1416016, -0.2666016, -23.2317085, -8.9024391, 4.2682929, -0.0793927
0.9750977, -0.144043, -0.2714844, -23.7195129, -8.9024391, 4.390244, -0.0767071
0.9707031, -0.1484375, -0.2729492, -24.3902435, -8.719512, 4.6341462, -0.073518
0.9677734, -0.140625, -0.2768555, -25.060976, -8.5365858, 5.1829271, -0.0753643
0.9692383, -0.1386719, -0.2773438, -25.5487804, -8.1707315, 5.3658538, -0.0659648
0.9736328, -0.1347656, -0.2685547, -25.7317085, -8.0487804, 5.5487804, -0.0609293
0.972168, -0.1333008, -0.2612305, -26.0975609, -8.1097565, 5.3658538, -0.0532082
0.9794922, -0.1425781, -0.2421875, -26.4634151, -8.3536587, 5, -0.0448157
0.9760742, -0.1582031, -0.2275391, -26.4634151, -8.2926826, 4.6951222, -0.0404517
0.9697266, -0.1616211, -0.2270508, -25.9146347, -8.2926826, 4.5121951, -0.0344091
0.9477539, -0.1645508, -0.2358398, -25.5487804, -8.4146347, 4.4512196, -0.0273594
0.940918, -0.1655273, -0.2431641, -25.4878063, -9.0243902, 4.8780489, -0.0229953
0.9350586, -0.175293, -0.2480469, -25.3048782, -9.2682924, 4.8170733, -0.0132601
0.9360352, -0.1806641, -0.253418, -24.7560978, -9.6951218, 4.3292685, -0.0109102
0.9301758, -0.1865234, -0.2597656, -24.3292694, -9.8780489, 3.9634147, -0.0025177
0.9345703, -0.1914062, -0.2597656, -24.0853672, -9.7560978, 3.4756098, 0.0072175
0.9379883, -0.1958008, -0.2539062, -23.5975609, -9.5121956, 3.4756098, 0.0166171
0.9443359, -0.1992188, -0.2514648, -22.1951218, -9.5731707, 3.4146342, 0.0287022
0.956543, -0.1972656, -0.2460938, -20.3048782, -9.4512196, 2.7439024, 0.0364233
0.9619141, -0.1831055, -0.2548828, -19.6341476, -9.3902445, 2.6219513, 0.0414588
0.9672852, -0.1796875, -0.2592773, -18.7195129, -9.2073174, 2.4390244, 0.036759
0.9702148, -0.1606445, -0.2700195, -18.6585369, -8.9634151, 2.6829269, 0.0276951
0.9702148, -0.1533203, -0.2729492, -19.0853672, -8.9634151, 2.6219513, 0.0146029
0.972168, -0.1347656, -0.2827148, -19.5731716, -8.9634151, 2.8658538, 0.0058747
0.9702148, -0.1303711, -0.2861328, -20, -8.841464, 3.4756098, -0.0048676
0.9711914, -0.1293945, -0.2827148, -20.6097565, -8.780488, 3.5365853, -0.0135958
0.9697266, -0.1333008, -0.2807617, -21.1585369, -8.5975609, 3.2926829, -0.018967
0.9702148, -0.1396484, -0.2783203, -21.5243912, -8.1097565, 3.2926829, -0.0218204
0.9707031, -0.1420898, -0.2705078, -22.560976, -7.9878049, 3.1707318, -0.0229953
0.972168, -0.1577148, -0.2592773, -23.5365868, -7.9268293, 3.0487804, -0.0246738
0.9702148, -0.1630859, -0.2397461, -23.9634151, -7.6829271, 3.4146342, -0.0236667
0.9716797, -0.1665039, -0.2363281, -23.6585369, -7.7439027, 3.3536587, -0.0223239
0.9658203, -0.1601562, -0.2329102, -23.5975609, -7.8658538, 3.2317073, -0.0196384
0.9638672, -0.1591797, -0.2348633, -22.8658543, -7.9268293, 3.1707318, -0.021149
0.9604492, -0.1640625, -0.2421875, -22.560976, -8.3536587, 2.804878, -0.0208133
0.9624023, -0.1713867, -0.2485352, -23.1097565, -9.3292685, 2.7439024, -0.0273594
0.9589844, -0.1757812, -0.2548828, -22.9878063, -9.2073174, 2.6219513, -0.0293736
0.9584961, -0.1801758, -0.2519531, -23.2317085, -9.2682924, 3.1707318, -0.0359197
0.9541016, -0.1811523, -0.2480469, -23.1707325, -9.2073174, 3.2317073, -0.0374304
0.9550781, -0.1791992, -0.2456055, -22.6829281, -8.841464, 3.1097562, -0.0391089
0.9521484, -0.1723633, -0.25, -22.0731716, -8.4146347, 2.4390244, -0.0424659
0.9487305, -0.1660156, -0.253418, -22.1341476, -8.5975609, 2.3780489, -0.0424659
0.9487305, -0.1582031, -0.2587891, -22.1341476, -8.9024391, 2.5, -0.0404517
0.9545898, -0.159668, -0.2617188, -22.3170738, -9.0853662, 2.6219513, -0.0406195
0.9672852, -0.1616211, -0.2675781, -22.7439022, -9.7560978, 2.3780489, -0.0377661
0.9755859, -0.1591797, -0.2631836, -23.1097565, -9.6951218, 2.5609756, -0.0332341
0.980957, -0.1591797, -0.2661133, -23.7195129, -9.5731707, 2.5, -0.0310521
0.9829102, -0.1586914, -0.2563477, -24.2682934, -9.4512196, 2.4390244, -0.0313878
0.9799805, -0.1616211, -0.2485352, -24.1463413, -9.8780489, 2.4390244, -0.0320592
0.984375, -0.1645508, -0.2285156, -23.8414631, -9.8170738, 2.3780489, -0.0293736
0.9799805, -0.1621094, -0.2270508, -22.6219521, -9.4512196, 2.0121951, -0.0243381
0.9619141, -0.1591797, -0.2329102, -21.6463413, -9.0243902, 1.9512196, -0.0243381
0.9399414, -0.1625977, -0.2485352, -21.6463413, -9.3902445, 2.0121951, -0.023331
0.9345703, -0.1699219, -0.2524414, -22.2560978, -9.9390249, 2.1341465, -0.0223239
0.9375, -0.1870117, -0.2509766, -22.2560978, -10.6097565, 2.6829269, -0.0231632
0.9438477, -0.199707, -0.2514648, -22.0121956, -10.9756098, 2.0731707, -0.0213169
0.9575195, -0.2114258, -0.2553711, -21.5853672, -10.8536587, 1.402439, -0.0216526
0.9643555, -0.2119141, -0.2519531, -20.3048782, -10.7926836, 1.1585366, -0.0273594
0.9716797, -0.203125, -0.2495117, -19.5731716, -10.2439022, 1.1585366, -0.0263523
0.9760742, -0.1933594, -0.2524414, -18.5365849, -9.5731707, 1.1585366, -0.0223239
0.9736328, -0.1665039, -0.2646484, -18.4146347, -9.2682924, 1.2804878, -0.0236667
0.9750977, -0.1557617, -0.2675781, -19.0243912, -9.0243902, 1.2804878, -0.0263523
0.972168, -0.1362305, -0.2763672, -20, -9.1463413, 1.402439, -0.0273594
0.9731445, -0.1318359, -0.2724609, -20.4268303, -9.5731707, 1.5853659, -0.0276951
0.9736328, -0.1328125, -0.2685547, -21.7073174, -10, 2.0121951, -0.0323949
0.9755859, -0.1416016, -0.2651367, -22.2560978, -9.7560978, 1.9512196, -0.0323949
0.9663086, -0.1499023, -0.2666016, -22.7439022, -9.3292685, 1.6463414, -0.0310521
0.9448242, -0.1669922, -0.2734375, -23.1707325, -9.3292685, 1.7682927, -0.0330663
0.9350586, -0.1713867, -0.2749023, -23.2926826, -9.5121956, 2.5, -0.0354162
0.9331055, -0.1796875, -0.2700195, -22.9878063, -9.7560978, 2.804878, -0.0310521
0.9345703, -0.1791992, -0.2666016, -22.5, -10.060976, 2.6829269, -0.0297093
0.9516602, -0.1728516, -0.2602539, -22.3170738, -10.1829271, 2.4390244, -0.0248417
0.9594727, -0.1679688, -0.2568359, -21.7682934, -9.8780489, 1.4634147, -0.0229953
0.9741211, -0.1586914, -0.2514648, -21.7682934, -10, 1.6463414, -0.018967
0.9760742, -0.1411133, -0.2402344, -21.8902435, -9.8780489, 1.7682927, -0.0216526
0.9755859, -0.1362305, -0.2431641, -22.3780499, -9.8780489, 2.1341465, -0.0198062
0.9716797, -0.1279297, -0.2607422, -22.9878063, -10.060976, 2.5609756, -0.0176242
0.9638672, -0.1274414, -0.2680664, -23.1707325, -10.6707315, 2.9878049, -0.0209812
0.9643555, -0.1425781, -0.2749023, -23.7195129, -10.9146347, 3.5975611, -0.017792
0.9643555, -0.1518555, -0.2719727, -24.5121956, -11.5853662, 3.3536587, -0.0095674
0.9702148, -0.1704102, -0.2558594, -24.9390259, -11.8292685, 3.2926829, -0.0077211
0.9707031, -0.1821289, -0.2431641, -24.5121956, -10.9146347, 2.9268293, -0.008896
0.9614258, -0.1894531, -0.2216797, -24.2682934, -10.7317076, 2.5609756, -0.002182
0.9492188, -0.1977539, -0.2167969, -23.1707325, -10.7317076, 2.0731707, 0.0001678
0.9311523, -0.1943359, -0.2241211, -21.7682934, -11.0975609, 2.3780489, -0.0041962
0.9238281, -0.1889648, -0.2353516, -21.5243912, -11.5243902, 2.804878, -0.0062104
0.9282227, -0.1860352, -0.2426758, -20.3048782, -12.3780489, 3.4146342, -0.0105745
0.9414062, -0.1733398, -0.2539062, -19.8780499, -12.6219511, 3.3536587, -0.0142672
0.9467773, -0.1699219, -0.2568359, -19.4512196, -12.6219511, 2.4390244, -0.0182956
0.956543, -0.171875, -0.2724609, -19.6951218, -12.3170738, 2.1341465, -0.0270237
0.9580078, -0.175293, -0.2734375, -20.3658543, -11.7682934, 2.5, -0.0327306
0.9594727, -0.1831055, -0.2700195, -20.6707325, -11.6463413, 2.6829269, -0.0337377
0.9609375, -0.1870117, -0.2670898, -20.5487804, -11.7682934, 2.7439024, -0.0391089
0.9643555, -0.1865234, -0.2626953, -20.3048782, -12.0731707, 2.5, -0.0424659
0.9633789, -0.1855469, -0.2597656, -19.5731716, -12.1341467, 2.2560976, -0.0404517
0.9560547, -0.1826172, -0.2592773, -18.5365849, -12.3780489, 2.3780489, -0.0350805
0.9589844, -0.1738281, -0.2587891, -18.4756107, -12.1341467, 2.1341465, -0.0318914
0.9589844, -0.1694336, -0.2558594, -18.2317085, -12.0121956, 2.2560976, -0.0290379
0.9624023, -0.1538086, -0.2543945, -18.1707325, -11.6463413, 2.2560976, -0.0238346
0.9609375, -0.1474609, -0.2563477, -18.1707325, -11.6463413, 2.195122, -0.0256809
0.9599609, -0.144043, -0.2563477, -18.3536587, -11.8902445, 2.3780489, -0.0196384
0.9594727, -0.1474609, -0.2602539, -18.1707325, -12.0121956, 2.2560976, -0.0223239
0.9633789, -0.1582031, -0.2661133, -18.1097565, -12.1341467, 2.195122, -0.0243381
0.9658203, -0.1606445, -0.2661133, -18.5365849, -11.8902445, 2.7439024, -0.0226596
0.9619141, -0.1743164, -0.269043, -18.8414631, -11.6463413, 2.7439024, -0.0243381
0.9555664, -0.1787109, -0.2680664, -19.3292694, -11.341464, 2.6219513, -0.0303807
0.9575195, -0.1806641, -0.2724609, -18.780489, -11.341464, 2.1341465, -0.0372625
0.9609375, -0.1855469, -0.2797852, -19.0243912, -11.5243902, 2.0731707, -0.0381018
0.9638672, -0.1782227, -0.2753906, -18.780489, -11.341464, 1.8292683, -0.0394446
0.9594727, -0.1757812, -0.2675781, -18.2926826, -10.9146347, 1.8292683, -0.0387732
0.956543, -0.1733398, -0.262207, -17.560976, -10.060976, 1.8902439, -0.0428016
0.9589844, -0.1621094, -0.2553711, -17.1951218, -9.6951218, 1.7682927, -0.0468299
0.9555664, -0.15625, -0.2583008, -17.2560978, -9.5731707, 1.2804878, -0.0505226
0.9589844, -0.1552734, -0.2573242, -17.3780499, -9.5731707, 1.2804878, -0.0535439
0.9589844, -0.1621094, -0.253418, -18.1097565, -9.8780489, 1.2804878, -0.0592508
0.956543, -0.1625977, -0.25, -18.2317085, -9.8170738, 1.7073171, -0.0607614
0.9516602, -0.1567383, -0.2470703, -18.5975609, -9.8170738, 2.0731707, -0.0565652
0.9487305, -0.1464844, -0.2514648, -18.6585369, -9.8170738, 2.4390244, -0.0525368
0.9575195, -0.1484375, -0.2539062, -18.7195129, -10.060976, 2.1341465, -0.0397803
0.9643555, -0.1547852, -0.2514648, -18.8414631, -10.7317076, 2.0731707, -0.0310521
0.9750977, -0.1743164, -0.2460938, -19.0243912, -10.6097565, 1.7073171, -0.0236667
0.9750977, -0.1831055, -0.2436523, -18.8414631, -10.1829271, 1.5243902, -0.0191348
0.9711914, -0.1889648, -0.2470703, -19.2073174, -9.9390249, 1.7682927, -0.0162814
0.9555664, -0.1889648, -0.2524414, -18.9634151, -9.8170738, 2.0731707, -0.0167849
0.9389648, -0.1743164, -0.2578125, -18.5975609, -9.9390249, 2.3780489, -0.0137636
0.934082, -0.1660156, -0.2568359, -18.0487804, -10.1829271, 2.3780489, -0.008896
0.934082, -0.1508789, -0.2597656, -17.8048782, -10.4268293, 2.0121951, -0.005539
0.9360352, -0.144043, -0.2680664, -17.9878044, -10.4268293, 1.8292683, -0.0062104
0.9506836, -0.1411133, -0.2749023, -18.9634151, -10.6097565, 2.0731707, 0.0038605
0.9638672, -0.1513672, -0.2739258, -19.8170738, -10.8536587, 2.1341465, 0.0129244
0.9736328, -0.15625, -0.2719727, -20.5487804, -11.0975609, 2.8658538, 0.0159457
0.980957, -0.1616211, -0.2685547, -20.3658543, -10.9146347, 3.1707318, 0.0209812
0.9780273, -0.1547852, -0.2709961, -20.1219521, -10.4268293, 3.0487804, 0.0213169
0.9663086, -0.1533203, -0.2773438, -19.939024, -10.6097565, 2.9268293, 0.0253452
0.9628906, -0.1518555, -0.2744141, -20.1219521, -10.7317076, 3.2317073, 0.0246738
0.9643555, -0.1586914, -0.2734375, -20.2439022, -10.7317076, 3.1707318, 0.0238346
0.9633789, -0.1586914, -0.2709961, -20.8536587, -10.4268293, 3.0487804, 0.0182956
0.9575195, -0.15625, -0.2661133, -21.5853672, -10.2439022, 3.5975611, 0.0139315
0.9619141, -0.1503906, -0.2583008, -21.4634151, -10.4878054, 3.8414636, 0.0092317
0.9589844, -0.1459961, -0.2607422, -21.5853672, -10.9756098, 3.8414636, 0.0078889
0.9667969, -0.1469727, -0.2617188, -21.6463413, -11.0975609, 3.9024391, 0.0058747
0.9726562, -0.1484375, -0.2641602, -22.2560978, -11.280488, 3.9024391, 0.0038605
0.9755859, -0.1582031, -0.2573242, -22.439024, -11.4634151, 3.9634147, 0.0011749
0.9765625, -0.1669922, -0.2514648, -23.0487804, -11.9512196, 3.8414636, -0.0015106
0.9765625, -0.1772461, -0.237793, -22.560976, -11.7682934, 3.9634147, -0.005539
0.9731445, -0.1796875, -0.2368164, -22.2560978, -11.4024391, 4.1463413, -0.0078889
0.9658203, -0.1733398, -0.2270508, -21.8902435, -11.0975609, 3.9634147, -0.0095674
0.9628906, -0.168457, -0.2299805, -20.7317085, -11.1585369, 3.6585367, -0.0162814
0.9594727, -0.1630859, -0.2304688, -20.1219521, -11.9512196, 3.2926829, -0.023331
0.9589844, -0.1665039, -0.2338867, -19.8780499, -12.1951218, 3.0487804, -0.0243381
0.9648438, -0.1816406, -0.2392578, -19.5731716, -12.8048782, 2.8658538, -0.0263523
0.9609375, -0.1914062, -0.2382812, -19.5731716, -12.560976, 2.8658538, -0.0256809
0.9570312, -0.1967773, -0.2387695, -18.7195129, -12.5, 2.9268293, -0.0260166
0.9575195, -0.2036133, -0.2392578, -18.1097565, -12.1341467, 2.6829269, -0.0318914
0.9550781, -0.2016602, -0.2416992, -17.1341476, -12.3170738, 2.804878, -0.033402
0.9594727, -0.1962891, -0.2543945, -16.4024391, -12.4390249, 2.5609756, -0.0345769
0.9560547, -0.1899414, -0.265625, -15.8536587, -12.1951218, 2.195122, -0.0330663
0.953125, -0.1713867, -0.2739258, -15.6097565, -12.6219511, 2.1341465, -0.0340734
0.9541016, -0.159668, -0.2783203, -15.3658543, -12.560976, 2.1341465, -0.0377661
0.9672852, -0.1523438, -0.2832031, -15.2439032, -12.6219511, 1.7073171, -0.0364233
0.9716797, -0.1459961, -0.2773438, -15.3048782, -12.6219511, 1.8292683, -0.0377661
0.9716797, -0.1333008, -0.2880859, -16.0365849, -12.3780489, 2.1341465, -0.0431373
0.9731445, -0.1303711, -0.2939453, -16.9512196, -12.6829271, 2.5, -0.0498512
0.9750977, -0.1337891, -0.2978516, -18.9634151, -13.2926836, 3.4146342, -0.0525368
0.9731445, -0.144043, -0.3017578, -20.060976, -13.5365858, 3.5975611, -0.0626078
0.9741211, -0.144043, -0.2973633, -20.3658543, -13.9634151, 4.4512196, -0.0703288
0.9726562, -0.140625, -0.2880859, -20.1829281, -13.9634151, 4.6951222, -0.0686503
0.9672852, -0.1386719, -0.284668, -20.060976, -13.6585369, 4.6951222, -0.0683146
0.9619141, -0.1391602, -0.277832, -19.8780499, -13.3536587, 4.5731707, -0.0753643
0.9619141, -0.144043, -0.2792969, -20.6707325, -13.2926836, 4.0853658, -0.0861067
0.9545898, -0.1660156, -0.265625, -21.5243912, -14.0243902, 4.6951222, -0.093492
0.9560547, -0.1728516, -0.2607422, -21.5853672, -14.5121956, 4.9390244, -0.1018845
0.9536133, -0.1787109, -0.2631836, -21.1585369, -14.6951227, 5.1829271, -0.1015488
0.9555664, -0.175293, -0.2753906, -20.9756107, -14.8780489, 5.5487804, -0.0988632
0.956543, -0.171875, -0.28125, -20.3658543, -15.1829271, 5.4268293, -0.0904707
0.9584961, -0.1660156, -0.2841797, -20.1219521, -15, 5.3658538, -0.0814069
0.9619141, -0.1625977, -0.2832031, -19.939024, -15.4268293, 5.1829271, -0.0800641
0.9663086, -0.1582031, -0.2719727, -20, -15.2439032, 5.5487804, -0.0741894
0.9692383, -0.1567383, -0.2700195, -20, -14.6951227, 5.4878049, -0.064622
0.9770508, -0.1650391, -0.2641602, -20, -14.5731707, 5.2439027, -0.0464942
0.9746094, -0.1708984, -0.2602539, -20.1219521, -14.7560978, 4.7560978, -0.0344091
0.9628906, -0.1811523, -0.2617188, -20.6097565, -15.4878054, 4.9390244, -0.0162814
0.9614258, -0.1870117, -0.2651367, -20.6707325, -16.3414631, 5.5487804, 0.0065461
0.9614258, -0.1879883, -0.2670898, -20.1219521, -16.8292694, 5.7926831, 0.026688
0.9604492, -0.1860352, -0.2753906, -19.5731716, -17.0731716, 5.7926831, 0.0461585
0.9594727, -0.1801758, -0.2768555, -19.0853672, -16.8902435, 5.3048782, 0.0585794
0.9541016, -0.168457, -0.2753906, -18.9634151, -16.5243912, 5.3658538, 0.0629435
0.9555664, -0.1665039, -0.2680664, -19.3902435, -16.7682934, 5.1219511, 0.0609293
0.9472656, -0.1630859, -0.2553711, -19.5121956, -16.6463413, 5, 0.0580758
0.9423828, -0.1582031, -0.2539062, -19.6951218, -16.8902435, 5.609756, 0.0518654
0.9438477, -0.1542969, -0.2587891, -19.6951218, -17.8048782, 5.8536587, 0.0441444
0.9516602, -0.1577148, -0.262207, -19.2682934, -19.5121956, 5.7926831, 0.0414588
0.9584961, -0.1679688, -0.2753906, -19.3292694, -20.4268303, 5.2439027, 0.042298
0.9697266, -0.1889648, -0.284668, -19.8170738, -20.9146347, 5.609756, 0.040116
0.9633789, -0.2016602, -0.2861328, -20.5487804, -20.9146347, 6.2195125, 0.0320592
0.9545898, -0.2099609, -0.2773438, -20.7317085, -20.8536587, 6.4634147, 0.0184634
0.9511719, -0.2124023, -0.2724609, -19.8780499, -21.3414631, 6.7073174, 0.0129244
0.9428711, -0.2041016, -0.2670898, -18.8414631, -21.4024391, 6.7073174, 0.0166171
0.9394531, -0.1943359, -0.265625, -17.8048782, -21.7682934, 6.1585369, 0.0162814
0.9453125, -0.175293, -0.2636719, -17.3780499, -22.0731716, 5.9146342, 0.0119173
0.9501953, -0.1699219, -0.2675781, -17.8048782, -22.6829281, 5.609756, 0.0052033
0.9516602, -0.1660156, -0.2900391, -18.780489, -22.9268303, 5.670732, -0.0008392
0.9482422, -0.1582031, -0.3027344, -19.8780499, -23.780489, 7.1951222, -0.0075532
0.9462891, -0.1538086, -0.3256836, -20.7926826, -24.7560978, 8.2317076, -0.0117494
0.9614258, -0.1450195, -0.3295898, -21.2195129, -25, 8.4146347, -0.0149386
0.9692383, -0.1484375, -0.3261719, -21.4024391, -25, 8.4146347, -0.0162814
0.9775391, -0.1630859, -0.3046875, -21.7073174, -24.6951218, 7.9878049, -0.0209812
0.9711914, -0.171875, -0.3041992, -22.3780499, -24.2073174, 7.2560978, -0.0293736
0.9536133, -0.1767578, -0.2973633, -22.7439022, -23.8414631, 7.5, -0.0317235
0.9453125, -0.1748047, -0.2993164, -23.6585369, -24.4512196, 8.5975609, -0.0332341
0.9331055, -0.1650391, -0.309082, -23.9024391, -25.1829281, 9.2682924, -0.0330663
0.9375, -0.1606445, -0.3193359, -23.7195129, -26.280489, 9.8170738, -0.0337377
0.9438477, -0.1494141, -0.3334961, -23.6585369, -26.7073174, 9.8780489, -0.0350805
0.949707, -0.1484375, -0.3388672, -24.2682934, -26.4024391, 9.6341467, -0.0320592
0.9619141, -0.1484375, -0.3383789, -25.060976, -25.9756107, 9.7560978, -0.033402
0.9682617, -0.1538086, -0.3256836, -25.6097565, -25.6097565, 9.9390249, -0.0365911
0.9667969, -0.1518555, -0.3203125, -26.3414631, -25.9146347, 9.9390249, -0.0411231
0.9667969, -0.1635742, -0.3066406, -27.0731716, -26.0365868, 10.060976, -0.0491798
0.9663086, -0.1699219, -0.3071289, -27.5, -26.4024391, 10.060976, -0.0528725
0.9511719, -0.1787109, -0.3232422, -28.0487804, -26.8902454, 10.2439022, -0.0555581
0.9453125, -0.1791992, -0.3310547, -28.9024391, -27.560976, 10.3658543, -0.0585794
0.9379883, -0.1894531, -0.3447266, -29.5121956, -27.9878063, 10.8536587, -0.057908
0.9394531, -0.1982422, -0.3447266, -30.060976, -28.5975609, 10.8536587, -0.0609293
0.9375, -0.2104492, -0.3378906, -30.2439022, -28.2926826, 10.9756098, -0.061265
0.9301758, -0.2163086, -0.3320312, -30.060976, -27.560976, 10.3658543, -0.0632792
0.9248047, -0.2119141, -0.3261719, -29.7560978, -27.3780499, 10, -0.0599222
0.9179688, -0.2080078, -0.3198242, -29.6951218, -27.8048782, 9.8170738, -0.0575723
0.9194336, -0.2089844, -0.3125, -28.9024391, -28.7195129, 9.6951218, -0.047837
0.9262695, -0.199707, -0.3081055, -28.1707325, -29.2073174, 9.9390249, -0.0439765
0.9345703, -0.1918945, -0.3081055, -27.3170738, -29.4512196, 10.1829271, -0.0438087
0.9414062, -0.1889648, -0.3198242, -27.3170738, -29.5121956, 10.060976, -0.0411231
0.9472656, -0.1875, -0.3295898, -27.3170738, -30.2439022, 10.4878054, -0.0411231
0.9516602, -0.1933594, -0.3544922, -27.3780499, -30.8536587, 10.4878054, -0.0377661
0.9516602, -0.2011719, -0.3603516, -27.1951218, -32.4390259, 10.7317076, -0.0310521
0.9624023, -0.2246094, -0.3681641, -26.7682934, -32.8658562, 10.7317076, -0.0276951
0.9604492, -0.2333984, -0.3637695, -25.4268303, -32.7439041, 10.3048782, -0.0243381
0.9506836, -0.2392578, -0.3579102, -23.780489, -31.7073174, 10.060976, -0.018967
0.9326172, -0.2329102, -0.3393555, -22.9268303, -31.5243912, 9.8780489, -0.0203098
0.9287109, -0.2255859, -0.3378906, -21.4024391, -31.7073174, 9.9390249, -0.0240024
0.9228516, -0.2016602, -0.3505859, -21.2195129, -32.0731697, 9.9390249, -0.0285344
0.9248047, -0.1923828, -0.3652344, -21.7682934, -33.2926826, 10.9146347, -0.030045
0.9345703, -0.1826172, -0.3891602, -22.1951218, -34.1463432, 11.0975609, -0.0283665
0.9389648, -0.1772461, -0.3945312, -23.1097565, -34.9390259, 12.1341467, -0.027863
0.9516602, -0.1738281, -0.3896484, -23.4146347, -34.7560997, 12.5, -0.0261845
0.9550781, -0.1674805, -0.3798828, -23.3536587, -34.6951218, 12.8048782, -0.0203098
0.9511719, -0.1650391, -0.3564453, -22.9878063, -34.3902435, 12.560976, -0.0162814
0.9438477, -0.1630859, -0.3500977, -23.3536587, -34.5121956, 12.7439032, -0.0102388
0.9301758, -0.1791992, -0.3461914, -25.3048782, -35.6097565, 13.4146347, -0.0045319
0.9101562, -0.2026367, -0.3476562, -26.3414631, -36.2804871, 14.1463413, -0.005539
0.9003906, -0.2070312, -0.3540039, -27.3170738, -37.7439041, 15.5487804, 0.0015106
0.8935547, -0.1958008, -0.3642578, -27.3170738, -38.4756088, 16.1585369, 0.0082246
0.8959961, -0.184082, -0.3730469, -26.3414631, -40, 16.4024391, 0.0172885
0.9248047, -0.1782227, -0.3774414, -25.6097565, -40.1219521, 16.1585369, 0.0240024
0.9355469, -0.1767578, -0.3740234, -26.1585369, -40.6097565, 15.5487804, 0.0253452
0.9526367, -0.1835938, -0.3647461, -26.4634151, -40.8536606, 15.6707325, 0.0280308
0.9604492, -0.1875, -0.3662109, -28.1707325, -41.0975609, 16.2195129, 0.023331
0.9467773, -0.1855469, -0.3901367, -28.5975609, -41.4634171, 16.7073174, 0.0213169
0.9379883, -0.1845703, -0.4072266, -29.6341476, -42.7439041, 17.8658543, 0.0146029
0.9287109, -0.1943359, -0.4248047, -30.4878063, -44.6341476, 19.3292694, 0.0083925
0.9370117, -0.1977539, -0.4155273, -30.9146347, -45.1219521, 19.4512196, 0.0011749
0.9462891, -0.2021484, -0.4047852, -30.7926846, -45.4878044, 19.3902435, -0.0090639
0.9404297, -0.1987305, -0.3842773, -30.5487804, -45.0609779, 18.8414631, -0.0149386
0.9394531, -0.1958008, -0.3720703, -30.6097565, -44.6951218, 18.3536587, -0.0159457
0.9365234, -0.1928711, -0.3676758, -31.0365868, -45.4878044, 18.4146347, -0.0132601
0.9360352, -0.2011719, -0.3735352, -31.5853672, -47.0731735, 18.7195129, -0.012253
0.9414062, -0.2197266, -0.3881836, -31.7073174, -48.1707344, 18.9634151, -0.0149386
0.9399414, -0.2285156, -0.3959961, -31.7682934, -49.5731735, 20, -0.0142672
0.9370117, -0.2358398, -0.4047852, -31.5243912, -49.8780518, 20.1829281, -0.0169528
0.9365234, -0.2426758, -0.4111328, -30.7317085, -50.5487823, 20.5487804, -0.0149386
0.940918, -0.2392578, -0.4165039, -29.6341476, -50.9756126, 19.939024, -0.0139315
0.9394531, -0.2363281, -0.4296875, -29.4512196, -51.2195129, 19.6951218, -0.0152743
0.9365234, -0.2363281, -0.4311523, -29.3902454, -51.8292694, 19.6341476, -0.0184634
0.9375, -0.2314453, -0.4306641, -29.2073174, -51.9512215, 19.6341476, -0.0229953
0.9423828, -0.2314453, -0.4301758, -29.2682934, -52.8658562, 19.8780499, -0.0250095
0.9521484, -0.2280273, -0.4291992, -29.2073174, -53.1707344, 19.8170738, -0.0310521
0.9516602, -0.2246094, -0.4301758, -29.4512196, -53.5365868, 19.8780499, -0.0330663
0.9555664, -0.2250977, -0.4296875, -29.2073174, -53.841465, 19.5731716, -0.030045
0.9526367, -0.2265625, -0.4257812, -29.3902454, -54.5731735, 19.5731716, -0.0292058
0.949707, -0.2270508, -0.4370117, -29.7560978, -54.5121956, 19.6951218, -0.024506
0.9399414, -0.2246094, -0.4487305, -30.5487804, -55.1219521, 20.2439022, -0.0243381
0.9267578, -0.2255859, -0.4702148, -31.4024391, -55.7926826, 21.4634151, -0.024506
0.9243164, -0.2207031, -0.4882812, -31.2195129, -56.2804909, 21.6463413, -0.0216526
0.925293, -0.2114258, -0.4926758, -32.0121956, -57.1951218, 22.0121956, -0.0213169
0.9345703, -0.2016602, -0.4941406, -32.3170738, -57.5, 22.0121956, -0.0149386
0.9418945, -0.2006836, -0.487793, -32.9268303, -57.7439041, 21.8902435, -0.0132601
0.9443359, -0.2075195, -0.4785156, -33.4756088, -57.5, 21.5853672, -0.0203098
0.9458008, -0.21875, -0.4711914, -34.2682953, -57.6219521, 21.5853672, -0.0250095
0.9306641, -0.2382812, -0.4692383, -34.3902435, -57.8658562, 22.1341476, -0.0327306
0.9194336, -0.2412109, -0.4711914, -34.9390259, -58.7195129, 22.9268303, -0.0439765
0.9140625, -0.2407227, -0.46875, -34.0243912, -60.1219521, 23.4146347, -0.0471656
0.9155273, -0.2368164, -0.4702148, -33.841465, -60.7926826, 23.5365868, -0.0515297
0.918457, -0.2324219, -0.4746094, -33.1097565, -61.7682953, 23.5365868, -0.0565652
0.9311523, -0.2304688, -0.4760742, -32.7439041, -62.0121956, 23.4146347, -0.0547189
0.9384766, -0.2285156, -0.4819336, -33.0487823, -63.2317085, 23.780489, -0.0518654
0.9458008, -0.2324219, -0.5048828, -33.2317085, -63.841465, 23.9024391, -0.0508583
0.9458008, -0.2421875, -0.5117188, -33.7804871, -65.0609741, 25, -0.0481727
0.9472656, -0.2495117, -0.5131836, -33.4756088, -65.5487823, 25.3048782, -0.0404517
0.9467773, -0.2426758, -0.5107422, -32.6219521, -66.0975647, 25.9756107, -0.0350805
0.9291992, -0.2314453, -0.5063477, -32.2560997, -65.9756088, 26.4634151, -0.0243381
0.925293, -0.2246094, -0.5053711, -31.7073174, -66.4024429, 26.9512196, -0.0162814
0.9145508, -0.2089844, -0.5107422, -32.8048782, -67.7439041, 27.0731716, -0.0077211
0.9130859, -0.2016602, -0.5205078, -33.5975609, -69.0853653, 27.2560978, 0.0041962
0.9243164, -0.1977539, -0.5258789, -35.1829262, -70.6097565, 27.9878063, 0.0109102
0.9433594, -0.206543, -0.5205078, -35.3048782, -70.9146347, 28.4146347, 0.0129244
0.9443359, -0.2163086, -0.5180664, -35.8536606, -71.1585388, 28.6585369, 0.0125887
0.9443359, -0.2348633, -0.5244141, -35.9756088, -71.4024429, 29.0243912, 0.0159457
0.9370117, -0.2421875, -0.5273438, -35.9146347, -72.0121994, 29.6341476, 0.0179599
0.9301758, -0.2524414, -0.534668, -35.3658562, -72.4390259, 29.8170738, 0.0171206
0.9233398, -0.2519531, -0.5327148, -34.6951218, -72.9268341, 30.2439022, 0.0139315
0.918457, -0.2475586, -0.5307617, -33.9634171, -72.9878082, 29.9390259, 0.0129244
0.9130859, -0.2485352, -0.5292969, -33.2317085, -73.3536606, 29.2682934, 0.0102388
0.9052734, -0.2607422, -0.546875, -32.9268303, -74.0243912, 29.5731716, 0.0072175
0.9003906, -0.2661133, -0.5488281, -33.2317085, -74.6341476, 29.8170738, -0.0001678
0.8974609, -0.2783203, -0.5551758, -33.1707306, -75.4878082, 30.5487804, -0.005539
0.9033203, -0.2832031, -0.5551758, -32.9268303, -75.6097565, 30.3048782, -0.0105745
0.9033203, -0.2836914, -0.5581055, -31.280489, -76.1585388, 30.1219521, -0.0162814
0.9038086, -0.2705078, -0.565918, -30.6097565, -76.5243912, 30, -0.018967
0.8955078, -0.2573242, -0.565918, -29.6341476, -77.4390259, 30.1829281, -0.0182956
0.8896484, -0.2421875, -0.5600586, -29.9390259, -77.6219559, 30.6097565, -0.0191348
0.8925781, -0.2338867, -0.5585938, -30.3658543, -78.4756088, 31.6463413, -0.0256809
0.8925781, -0.230957, -0.5649414, -30.7317085, -79.146347, 31.6463413, -0.0320592
0.8974609, -0.2333984, -0.574707, -32.4390259, -80.4268341, 32.4390259, -0.0364233
0.8916016, -0.2504883, -0.6230469, -33.4756088, -82.5, 33.2926826, -0.0313878
0.8964844, -0.2578125, -0.6464844, -34.0853653, -83.4146347, 33.6585388, -0.0303807
0.9091797, -0.2836914, -0.6489258, -34.1463432, -84.146347, 34.3902435, -0.0290379
0.9204102, -0.2875977, -0.605957, -33.5365868, -84.2073212, 34.6951218, -0.033402
0.9150391, -0.2841797, -0.5766602, -32.7439041, -82.8658524, 34.1463432, -0.0394446
0.8916016, -0.2729492, -0.5332031, -32.5609779, -82.1341476, 33.6585388, -0.0438087
0.8706055, -0.2719727, -0.527832, -33.2926826, -82.8048782, 33.5975609, -0.04448
0.8364258, -0.2685547, -0.543457, -34.0243912, -84.2682953, 34.6341476, -0.0461585
0.8291016, -0.2666016, -0.5698242, -35.0609779, -86.8292694, 36.2804871, -0.047837
0.824707, -0.2607422, -0.6293945, -35.1219521, -88.2317123, 37.4390259, -0.0528725
0.828125, -0.2509766, -0.6547852, -34.5121956, -90.3048782, 38.9634171, -0.0552224
0.8691406, -0.2460938, -0.6699219, -34.0243912, -90.7926865, 39.1463432, -0.0522011
0.894043, -0.2568359, -0.6650391, -34.2073174, -90.4878082, 38.7195129, -0.0538796
0.9106445, -0.2929688, -0.6455078, -34.6951218, -89.5731735, 37.7439041, -0.0565652
0.8911133, -0.3100586, -0.625, -35.1219521, -88.9634171, 37.8048782, -0.051194
0.8725586, -0.3110352, -0.6210938, -35.5487823, -88.9024429, 38.3536606, -0.0458228
0.8276367, -0.3178711, -0.6171875, -35.2439041, -89.5121994, 38.7195129, -0.0431373
0.815918, -0.3125, -0.6210938, -34.1463432, -91.7073212, 40.2439041, -0.04448
0.8056641, -0.3027344, -0.6484375, -33.3536606, -92.68293, 40.6707344, -0.0414588
0.8085938, -0.3022461, -0.6625977, -32.0121956, -94.146347, 41.0365868, -0.0370947
0.8344727, -0.300293, -0.699707, -31.5853672, -94.7561035, 41.341465, -0.0303807
0.8408203, -0.2998047, -0.7172852, -31.7682934, -95, 41.7682953, -0.023331
0.859375, -0.2856445, -0.7539062, -32.6829262, -95.3658524, 42.5, -0.0117494
0.8676758, -0.2783203, -0.762207, -33.0487823, -95.4878082, 42.8048782, 0.0018463
0.8818359, -0.2783203, -0.7568359, -34.4512215, -95.4268341, 42.6219521, 0.0030213
0.8808594, -0.2939453, -0.7436523, -34.8780479, -95.3048782, 42.6219521, 0.0112459
0.8740234, -0.3032227, -0.7363281, -35.5487823, -95.7317123, 43.1707344, 0.0152743
0.8549805, -0.3398438, -0.7192383, -35.6097565, -96.2195129, 43.841465, 0.0102388
0.8525391, -0.355957, -0.7138672, -35, -97.1951218, 44.1463432, 0.0115816
0.8388672, -0.390625, -0.715332, -33.9024391, -98.0487823, 44.5121956, 0.0052033
0.8295898, -0.3999023, -0.7260742, -31.4634151, -98.7804871, 44.9390259, 0.0025177
0.815918, -0.3945312, -0.7426758, -30.060976, -99.4512253, 45.3048782, -0.0045319
0.815918, -0.3852539, -0.7431641, -27.6219521, -100.7317123, 45.7317085, -0.0109102
0.8310547, -0.3476562, -0.7319336, -25.6097565, -102.0121994, 45.1829262, -0.0119173
0.8320312, -0.3261719, -0.722168, -25.4268303, -101.9512253, 44.3292694, -0.0135958
0.8334961, -0.2988281, -0.7075195, -25.6097565, -101.9512253, 44.3902435, -0.0149386
0.8261719, -0.2998047, -0.7172852, -25.9756107, -102.2561035, 44.8780479, -0.0162814
0.8271484, -0.3081055, -0.7280273, -27.0731716, -103.8414688, 45.7926826, -0.018967
0.8330078, -0.3369141, -0.7563477, -27.2560978, -104.6951218, 46.5853653, -0.0206455
0.8320312, -0.3554688, -0.7685547, -26.3414631, -106.646347, 47.3780518, -0.0250095
0.8242188, -0.3764648, -0.7939453, -25, -107.0731735, 48.0487823, -0.0297093
0.824707, -0.3808594, -0.7993164, -22.0731716, -107.4390259, 48.7195129, -0.0350805
0.831543, -0.3842773, -0.8046875, -20.9756107, -107.8658524, 49.3292694, -0.0397803
0.8413086, -0.3818359, -0.7983398, -19.1463413, -107.9878082, 48.4146347, -0.0391089
0.8466797, -0.3769531, -0.7836914, -18.9634151, -107.9878082, 48.2317085, -0.0391089
0.8408203, -0.3681641, -0.7822266, -18.9634151, -108.1097565, 48.4146347, -0.0454871
0.8300781, -0.359375, -0.7890625, -18.9024391, -108.2926865, 48.4146347, -0.0565652
0.8173828, -0.355957, -0.8066406, -19.0243912, -108.9634171, 48.5975609, -0.064622
0.8071289, -0.3549805, -0.8251953, -17.9268303, -110.9756088, 49.3902435, -0.0683146
0.7998047, -0.3583984, -0.831543, -16.7073174, -111.9512253, 50.2439041, -0.0656291
0.8071289, -0.3613281, -0.8271484, -14.1463413, -112.6219559, 51.4024391, -0.0666361
0.8232422, -0.3554688, -0.7983398, -13.1097565, -112.3780518, 51.6463432, -0.0619364
0.8266602, -0.3515625, -0.777832, -11.4634151, -110.8536606, 51.7073174, -0.0580758
0.8120117, -0.3432617, -0.7504883, -11.5243902, -110.18293, 51.2195129, -0.0515297
0.7983398, -0.3466797, -0.7363281, -12.2560978, -109.3292694, 50.9756126, -0.0468299
0.7709961, -0.3618164, -0.7285156, -12.1951218, -110.18293, 51.7682953, -0.0417945
0.737793, -0.3745117, -0.7260742, -11.9512196, -110.7926865, 52.1951218, -0.0372625
0.7260742, -0.3808594, -0.7412109, -9.7560978, -112.1951218, 52.8048782, -0.0283665
0.7236328, -0.3916016, -0.7890625, -8.4146347, -113.0487823, 53.2317085, -0.0213169
0.7255859, -0.3891602, -0.809082, -6.0365853, -114.5731735, 54.3902435, -0.012253
0.7509766, -0.3837891, -0.8310547, -4.9390244, -114.8170776, 54.6341476, -0.0035248
0.7597656, -0.3740234, -0.8237305, -3.4146342, -114.3292694, 54.3902435, 0.0065461
0.7768555, -0.3549805, -0.7880859, -2.6219513, -113.7195129, 53.9024391, 0.0078889
0.7734375, -0.3486328, -0.769043, -3.2317073, -111.2195129, 53.3536606, -0.0011749
0.7519531, -0.3388672, -0.7705078, -3.7804878, -110, 53.2317085, -0.0095674
0.7260742, -0.3510742, -0.7885742, -5.5487804, -109.146347, 53.4756126, -0.0182956
0.6943359, -0.371582, -0.8251953, -5.3658538, -110.9756088, 55.4268303, -0.0216526
0.6982422, -0.3867188, -0.84375, -4.5731707, -111.8292694, 56.341465, -0.0226596
0.7055664, -0.3881836, -0.8349609, -2.6219513, -112.7439041, 56.7073174, -0.0213169
0.7172852, -0.3779297, -0.8115234, -1.5243902, -112.0121994, 56.4024391, -0.0229953
0.71875, -0.3676758, -0.7983398, -0.7926829, -109.8170776, 55.9756126, -0.0152743
0.7094727, -0.359375, -0.7705078, -1.097561, -109.146347, 55.7926826, -0.0078889
0.7060547, -0.3549805, -0.7666016, -2.4390244, -108.2926865, 55.4268303, -0.002182
0.6611328, -0.3549805, -0.8046875, -3.5365853, -108.2317123, 55.2439041, 0.0038605
0.6425781, -0.3623047, -0.8369141, -4.7560978, -109.146347, 56.2804909, 0.008896
0.6445312, -0.3920898, -0.8662109, -5.609756, -110.4878082, 57.1341476, 0.0125887
0.65625, -0.409668, -0.8647461, -5.2439027, -112.6219559, 57.8048782, 0.0119173
0.6860352, -0.4306641, -0.8325195, -4.1463413, -112.1341476, 57.68293, 0.011078
0.6894531, -0.4306641, -0.8164062, -3.2317073, -111.4634171, 57.3170738, 0.0159457
0.6782227, -0.4326172, -0.8178711, -3.1097562, -110.2439041, 56.8292694, 0.0206455
0.6572266, -0.4360352, -0.8295898, -3.3536587, -110.1219559, 57.1341476, 0.0199741
0.652832, -0.4404297, -0.8383789, -3.1097562, -111.5243912, 56.8292694, 0.0169528
0.6435547, -0.4545898, -0.8476562, -2.9268293, -112.7439041, 56.9512215, 0.0142672
0.6381836, -0.4550781, -0.8525391, -1.402439, -114.0853653, 56.7073174, 0.012253
0.6313477, -0.4418945, -0.8637695, -0.5487805, -114.3292694, 56.7682953, 0.0078889
0.6293945, -0.4291992, -0.8666992, 0.9756098, -113.7804871, 57.1341476, 0.0025177
0.6367188, -0.3945312, -0.8740234, 0.8536586, -113.7804871, 56.8902435, -0.0018463
0.6391602, -0.3842773, -0.871582, -0.5487805, -114.3902435, 55.9756126, -0.0065461
0.637207, -0.3779297, -0.8706055, -2.9878049, -114.8780518, 56.5243912, -0.0097353
0.6391602, -0.3984375, -0.8730469, -4.2073174, -115.1219559, 57.2560997, -0.0115816
0.6289062, -0.4111328, -0.8803711, -5.1219511, -115.2439041, 59.3902435, -0.018967
0.6137695, -0.425293, -0.8984375, -4.8780489, -115.5487823, 60.2439041, -0.0313878
0.612793, -0.4277344, -0.9038086, -3.4146342, -116.7073212, 62.1951218, -0.0417945
0.6230469, -0.4384766, -0.9111328, -3.1097562, -116.5853653, 62.1341476, -0.04448
0.6264648, -0.4453125, -0.9189453, -3.3536587, -117.8048782, 62.1341476, -0.051194
0.6381836, -0.4521484, -0.9228516, -3.7195122, -117.8048782, 62.1341476, -0.0505226
0.6347656, -0.4589844, -0.9331055, -4.6951222, -118.2926865, 61.7073174, -0.0538796
0.6376953, -0.4741211, -0.9648438, -4.6951222, -118.8414688, 61.5243912, -0.0518654
0.6391602, -0.4863281, -0.9765625, -4.0243902, -119.5121994, 61.8292694, -0.0491798
0.6401367, -0.5063477, -0.9853516, -2.1341465, -120.2439041, 62.0731735, -0.0589151
0.659668, -0.5, -0.9511719, -1.2195122, -120.1219559, 61.6463432, -0.064622
0.6533203, -0.4902344, -0.9384766, 0.0609756, -118.7195129, 60.18293, -0.0713359
0.6254883, -0.453125, -0.9091797, 0.0609756, -117.4390259, 59.6341476, -0.0686503
0.6044922, -0.4350586, -0.9018555, -1.5243902, -116.7073212, 58.841465, -0.0626078
0.5732422, -0.4233398, -0.8984375, -2.195122, -117.3170776, 58.4756126, -0.0605936
0.5620117, -0.4272461, -0.9023438, -3.2317073, -119.4512253, 58.4146347, -0.0592508
0.5581055, -0.4643555, -0.9145508, -3.0487804, -120.7317123, 59.1463432, -0.0587472
0.5620117, -0.4921875, -0.921875, -2.195122, -121.646347, 59.7560997, -0.0535439
0.5708008, -0.5439453, -0.9272461, -1.097561, -121.9512253, 60.6707344, -0.0464942
0.581543, -0.5532227, -0.9238281, 2.0121951, -122.0121994, 61.9512215, -0.0377661
0.5874023, -0.5253906, -0.9257812, 5.0609756, -120.4878082, 60.6707344, -0.0297093
0.5610352, -0.4692383, -0.9267578, 5.4878049, -119.8780518, 59.5731735, -0.0219883
0.5390625, -0.4438477, -0.9316406, 4.1463413, -118.9024429, 57.5, -0.0139315
0.5073242, -0.4086914, -0.9389648, 2.7439024, -119.6341476, 56.8292694, -0.0065461
0.5029297, -0.409668, -0.9433594, -0.0609756, -122.2561035, 56.4634171, 0.0018463
0.5117188, -0.4526367, -0.9599609, -1.2804878, -123.6585388, 56.5243912, 0.0052033
0.5141602, -0.4897461, -0.9731445, -1.097561, -125.7317123, 57.5, 0.0048676
0.5273438, -0.550293, -1.0097656, 0.4268293, -125.7926865, 58.841465, 0.0018463
0.534668, -0.5620117, -1.0141602, 4.390244, -123.9634171, 59.6951218, -0.005539
0.5405273, -0.5390625, -1.0058594, 6.6463418, -122.5, 59.6341476, -0.0082246
0.5410156, -0.5058594, -0.9956055, 8.3536587, -119.8170776, 56.7073174, -0.005539
0.5185547, -0.4418945, -0.9799805, 6.2195125, -118.7804871, 53.1097565, -0.002182
0.4804688, -0.4331055, -0.9741211, 3.7195122, -119.4512253, 52.2560997, 0.0016785
0.4658203, -0.4394531, -0.9755859, 0.4268293, -121.7073212, 53.2317085, 0.0065461
0.4589844, -0.465332, -0.9887695, -0.1219512, -122.4390259, 53.7195129, 0.0082246
0.4575195, -0.4770508, -1.0043945, 0.7317073, -123.1707382, 54.5731735, 0.0045319
0.4643555, -0.5043945, -1.0302734, 1.4634147, -122.9268341, 55.0609779, -0.0025177
0.4667969, -0.5092773, -1.0327148, 3.0487804, -121.9512253, 55.4878044, -0.0085603
0.4794922, -0.5073242, -1.0229492, 3.5365853, -121.1585388, 55.4878044, -0.012253
0.4848633, -0.5068359, -1.0102539, 3.5975611, -119.3292694, 54.3292694, -0.0149386
0.4794922, -0.4824219, -1, 3.1097562, -118.8414688, 53.9024391, -0.0229953
0.46875, -0.4765625, -1.0053711, 2.0121951, -118.7804871, 53.1707344, -0.0297093
0.4487305, -0.4746094, -1.0229492, 0.6707317, -120, 53.2926826, -0.0265202
0.4506836, -0.4956055, -1.0351562, 0.4268293, -120.9756088, 53.2317085, -0.0250095
0.4633789, -0.5073242, -1.0175781, 0.6707317, -122.0731735, 53.0487823, -0.0251774
0.4741211, -0.5136719, -0.987793, 0.8536586, -121.646347, 52.8048782, -0.0209812
0.4638672, -0.5175781, -0.9770508, 1.8292683, -119.3292694, 51.6463432, -0.0231632
0.4316406, -0.5083008, -0.953125, 2.0121951, -117.9268341, 50.9756126, -0.0276951
0.4086914, -0.4970703, -0.9472656, 2.3170731, -116.646347, 50.9146347, -0.0327306
0.3588867, -0.4672852, -0.9438477, 2.7439024, -116.4634171, 50.6707344, -0.04448
0.347168, -0.456543, -0.9487305, 2.195122, -117.86586, 50.0609779, -0.0433051
0.3266602, -0.4433594, -0.956543, 1.4634147, -118.9634171, 50.1219521, -0.0424659
0.3266602, -0.4404297, -0.9609375, -0.4268293, -121.4024429, 50, -0.0424659
0.340332, -0.4379883, -0.9633789, -2.5, -123.0487823, 50.4878044, -0.0451514
0.3657227, -0.4433594, -0.9707031, -3.6585367, -123.4146347, 50.5487823, -0.0486763
0.3671875, -0.4526367, -0.9755859, -4.9390244, -122.68293, 51.0975609, -0.0471656
0.3632812, -0.4760742, -0.9780273, -5.2439027, -122.3170776, 51.7682953, -0.0461585
0.355957, -0.4794922, -0.9785156, -4.3292685, -121.2195129, 52.8658562, -0.04448
0.3427734, -0.4916992, -0.9829102, -3.5365853, -121.0365906, 52.9268303, -0.0344091
0.3364258, -0.4985352, -0.9833984, -2.2560976, -120.3048782, 52.1341476, -0.0243381
0.3212891, -0.5053711, -0.9755859, -1.9512196, -120.1219559, 51.9512215, -0.0095674
0.315918, -0.5019531, -0.9692383, -1.7073171, -120.3048782, 51.0975609, -0.0008392
0.2993164, -0.4912109, -0.9702148, -2.2560976, -120.8536606, 49.8170738, 0.0092317
0.2993164, -0.4799805, -0.9833984, -2.7439024, -121.646347, 49.2073174, 0.0206455
0.2832031, -0.4736328, -1.0073242, -2.9878049, -123.4756088, 48.7804871, 0.0213169
0.2885742, -0.4731445, -1.0126953, -2.6829269, -124.5121994, 48.9634171, 0.0186313
0.2988281, -0.4716797, -1.0014648, -1.5853659, -124.7561035, 48.5975609, 0.0146029
0.3154297, -0.4541016, -0.9741211, -1.0365853, -124.0243912, 48.2926826, 0.0132601
0.3125, -0.4570312, -0.9667969, -1.5243902, -121.4024429, 47.3170738, 0.0058747
0.2871094, -0.472168, -0.9555664, -2.0121951, -120.8536606, 47.4390259, -0.0005035
0.2744141, -0.4829102, -0.9609375, -2.0731707, -121.7073212, 48.3536606, -0.0068818
0.25, -0.4912109, -0.9785156, -1.6463414, -122.6219559, 49.0243912, -0.0129244
0.2416992, -0.4838867, -0.9785156, 0.0609756, -124.0243912, 49.3292694, -0.0186313
0.234375, -0.449707, -0.9741211, 1.3414634, -124.5731735, 48.0487823, -0.024506
0.2358398, -0.4287109, -0.9692383, 1.2195122, -124.4512253, 46.8902435, -0.023331
0.2197266, -0.4125977, -0.9697266, -0.9146342, -124.8780518, 46.4634171, -0.0258488
0.2119141, -0.4389648, -0.9648438, -2.195122, -125.4878082, 47.6219521, -0.0303807
0.2128906, -0.453125, -0.9628906, -2.7439024, -126.4024429, 50.9756126, -0.033402
0.2177734, -0.4633789, -0.9619141, -2.195122, -126.2195129, 51.8902435, -0.0409552
0.2231445, -0.4570312, -0.9594727, -0.3658537, -125.4878082, 51.5853653, -0.0485084
0.2070312, -0.4443359, -0.9692383, 0.1829268, -125.2439041, 51.0365868, -0.0552224
0.1992188, -0.4423828, -0.9726562, -0.4268293, -125.6097565, 51.2195129, -0.0619364
0.2016602, -0.46875, -0.9755859, -0.7317073, -126.0975647, 51.8902435, -0.061265
0.1987305, -0.487793, -0.9765625, 0.1219512, -126.646347, 53.6585388, -0.057908
0.2006836, -0.5136719, -0.9775391, 2.5609756, -126.0975647, 55.3048782, -0.0558938
0.1923828, -0.5126953, -0.9868164, 3.7195122, -125.3048782, 55.9146347, -0.0538796
0.1689453, -0.4580078, -1.0180664, 4.8170733, -123.7195129, 56.0975609, -0.0548867
0.1582031, -0.3867188, -1.0405273, 4.5121951, -123.4756088, 55.8536606, -0.0532082
0.1669922, -0.3642578, -1.0415039, 0.9756098, -125.0609818, 54.5121956, -0.0480049
0.1933594, -0.3701172, -1.015625, -1.3414634, -125.8536606, 53.7804909, -0.0384375
0.2060547, -0.3945312, -1.0014648, -5.9146342, -126.5853653, 53.7195129, -0.0332341
0.2138672, -0.4560547, -0.9711914, -6.8292685, -126.0975647, 55.2439041, -0.0280308
0.2158203, -0.4873047, -0.9589844, -6.2195125, -123.6585388, 57.8658562, -0.0297093
0.1860352, -0.5092773, -0.9589844, -5.1219511, -121.8902435, 58.7804909, -0.0310521
0.1582031, -0.5024414, -0.96875, -2.9268293, -118.8414688, 58.4146347, -0.0276951
0.0908203, -0.4614258, -1.0205078, -3.3536587, -118.7195129, 58.2317085, -0.0280308
0.0693359, -0.4326172, -1.0439453, -4.390244, -120.0609818, 58.4146347, -0.0253452
0.0830078, -0.4008789, -1.0639648, -7.6219516, -123.6585388, 57.8658562, -0.0290379
0.1391602, -0.4003906, -1.0322266, -8.9634151, -124.8780518, 57.5, -0.0283665
0.1640625, -0.3979492, -1.0048828, -12.6219511, -123.7195129, 56.2195129, -0.0236667
0.1762695, -0.3984375, -0.9667969, -14.6951227, -121.7682953, 55.7926826, -0.0196384
0.1557617, -0.402832, -0.9560547, -19.3292694, -118.1097565, 55.9146347, -0.0199741
0.0932617, -0.4345703, -0.9584961, -21.5243912, -117.0731735, 56.7682953, -0.014435
0.0639648, -0.4506836, -0.9663086, -23.0487804, -117.8048782, 58.841465, -0.0146029
0.0141602, -0.4794922, -1.0029297, -23.1097565, -119.0243912, 59.3292694, -0.012253
0.0087891, -0.4912109, -1.0170898, -20.7926826, -122.68293, 60.0609779, -0.0114137
0.0493164, -0.5234375, -1.0112305, -18.2926826, -125.4878082, 60.1219521, -0.0146029
0.0805664, -0.5375977, -1.0009766, -16.7682934, -125.9146347, 59.2682953, -0.0082246
0.1186523, -0.5419922, -0.9750977, -15, -123.6585388, 57.5609779, -0.0036927
0.1230469, -0.5385742, -0.9506836, -14.3902445, -122.4390259, 57.3170738, 0.0025177
0.1118164, -0.5219727, -0.9399414, -13.9024391, -120.2439041, 55.7317085, 0.0045319
0.0610352, -0.4819336, -0.9277344, -13.7195129, -119.3902435, 54.5731735, 0.002182
0.0268555, -0.4643555, -0.9418945, -14.3292685, -119.6951218, 52.7439041, -0.0008392
-0.0336914, -0.4584961, -1.0009766, -14.3902445, -120.7926865, 52.6829262, -0.0058747
-0.0410156, -0.472168, -1.0288086, -14.6951227, -125.36586, 54.5731735, -0.005539
0.0092773, -0.5107422, -1.0336914, -13.9634151, -127.4390259, 55.8536606, -0.0085603
0.0488281, -0.5083008, -1.019043, -11.0365858, -128.4146423, 55.4268303, -0.0068818
0.1025391, -0.4892578, -0.9750977, -9.8170738, -125.36586, 52.6219521, -0.0112459
0.1030273, -0.4770508, -0.9428711, -10.2439022, -123.4756088, 51.4634171, -0.018967
0.0703125, -0.4555664, -0.887207, -12.5, -120.2439041, 51.0975609, -0.0246738
-0.0170898, -0.4321289, -0.8935547, -13.5975609, -119.4512253, 50.9756126, -0.0179599
-0.0644531, -0.4291992, -0.9135742, -15.060976, -120.3048782, 51.6463432, -0.012253
-0.112793, -0.4555664, -0.9477539, -15.7317076, -122.3170776, 52.3170738, -0.0068818
-0.1088867, -0.4780273, -0.953125, -14.6951227, -127.9268341, 53.841465, 0.0065461
-0.0512695, -0.5058594, -0.9541016, -13.1707315, -129.5121918, 54.4512215, 0.0112459
-0.0209961, -0.5131836, -0.9536133, -10.6097565, -129.5121918, 53.9634171, 0.0186313
0.0131836, -0.5112305, -0.949707, -9.6951218, -128.3536682, 53.9024391, 0.0218204
0.012207, -0.4980469, -0.9384766, -8.1097565, -125, 53.5975609, 0.0243381
-0.0058594, -0.449707, -0.8979492, -8.1707315, -121.8292694, 52.1341476, 0.023331
-0.0283203, -0.4169922, -0.8798828, -8.719512, -120.7317123, 51.2195129, 0.0125887
-0.1049805, -0.3642578, -0.8720703, -12.1341467, -119.5121994, 49.7560997, 0.0011749
-0.1918945, -0.3491211, -0.9355469, -14.1463413, -120.4268341, 50.1829262, -0.0041962
-0.215332, -0.3647461, -0.9755859, -17.6829281, -124.5121994, 53.9024391, -0.0070497
-0.1689453, -0.4179688, -1.0151367, -18.2926826, -127.3780518, 56.0365868, -0.0109102
-0.1176758, -0.4443359, -1.0019531, -16.4024391, -130.9756165, 57.8658562, -0.012253
-0.0229492, -0.4614258, -0.9453125, -15.3048782, -130.2439117, 57.2560997, -0.0203098
-0.0009766, -0.4614258, -0.918457, -15.6707325, -124.6341476, 55.2439041, -0.0320592
-0.0229492, -0.453125, -0.8803711, -16.4024391, -121.3414688, 54.8170738, -0.0364233
-0.0585938, -0.4550781, -0.8657227, -17.9268303, -116.8902435, 55.4878044, -0.0407874
-0.1416016, -0.4628906, -0.8349609, -16.5853653, -115.5487823, 55.4268303, -0.0421302
-0.2285156, -0.4716797, -0.8520508, -15.3048782, -115.8536606, 55.2439041, -0.0384375
-0.2661133, -0.472168, -0.8881836, -12.9268293, -117.5609818, 55.7926826, -0.0320592
-0.2705078, -0.4775391, -0.9628906, -11.7682934, -119.146347, 56.8902435, -0.0276951
-0.2446289, -0.4838867, -0.9829102, -9.5731707, -122.7439041, 57.9268303, -0.0243381
-0.1479492, -0.4628906, -0.9931641, -8.2317076, -124.0243912, 57.2560997, -0.0276951
-0.0981445, -0.4487305, -0.9838867, -8.2926826, -124.146347, 54.0853653, -0.0344091
-0.0341797, -0.4433594, -0.9521484, -9.5731707, -122.68293, 52.8048782, -0.040116
-0.0361328, -0.4379883, -0.9404297, -12.9268293, -117.9268341, 52.6829262, -0.0419623
-0.0883789, -0.4355469, -0.9448242, -14.0853662, -115.4268341, 53.1707344, -0.0424659
-0.1201172, -0.4350586, -0.9550781, -16.1585369, -111.646347, 55.1219521, -0.0438087
-0.1782227, -0.4365234, -0.972168, -17.1341476, -110.9756088, 55.1219521, -0.0406195
-0.1972656, -0.4389648, -0.9604492, -17.6829281, -111.5853653, 54.1463432, -0.0370947
-0.1884766, -0.4462891, -0.9472656, -19.0243912, -114.5121994, 52.6219521, -0.0347448
-0.1542969, -0.4414062, -0.9042969, -19.8780499, -115.36586, 52.6219521, -0.0391089
-0.1489258, -0.4331055, -0.8901367, -22.1341476, -114.146347, 52.1951218, -0.0323949
-0.175293, -0.40625, -0.8925781, -23.2926826, -112.5609818, 51.7682953, -0.0310521
-0.1972656, -0.4003906, -0.8911133, -26.7073174, -110.0609818, 51.0975609, -0.0231632
-0.2216797, -0.3925781, -0.8764648, -28.2926826, -110.3048782, 50.6707344, -0.0135958
-0.2299805, -0.3920898, -0.8720703, -31.7073174, -111.8902435, 49.4512215, -0.0008392
-0.2387695, -0.434082, -0.8833008, -32.9268303, -113.1707306, 49.2073174, 0.0052033
-0.2270508, -0.4702148, -0.8774414, -33.4146347, -115.2439041, 50.6097565, 0.008896
-0.1899414, -0.5185547, -0.8364258, -30.9146347, -115.2439041, 50.6707344, 0.0001678
-0.2016602, -0.5053711, -0.8442383, -29.6951218, -113.8414688, 49.5731735, -0.0058747
-0.2324219, -0.496582, -0.8710938, -28.3536587, -111.3414688, 48.1097565, -0.0041962
-0.2758789, -0.5039062, -0.9042969, -28.1097565, -111.0975647, 48.4146347, 0.0005035
-0.2763672, -0.5019531, -0.9003906, -26.280489, -113.1707306, 49.0243912, 0.0005035
-0.2509766, -0.4619141, -0.8710938, -24.7560978, -114.2073212, 48.0487823, 0.0008392
-0.2392578, -0.4482422, -0.8642578, -23.2317085, -115.2439041, 44.6341476, 0.0005035
-0.2290039, -0.4335938, -0.8598633, -23.7195129, -115.0609818, 43.4756126, 0.0025177
-0.2158203, -0.4438477, -0.8569336, -26.0365868, -114.8170776, 43.2317085, 0.0078889
-0.2119141, -0.4663086, -0.84375, -26.4634151, -114.0243912, 43.4146347, 0.008896
-0.2250977, -0.4638672, -0.8398438, -25.6707325, -112.2561035, 43.5365868, 0.0057069
-0.2763672, -0.4399414, -0.8500977, -24.5731716, -109.5731735, 42.6829262, -0.0028534
-0.3217773, -0.4165039, -0.8481445, -24.1463413, -109.2073212, 42.2560997, -0.0092317
-0.3305664, -0.4072266, -0.8359375, -24.3292694, -110.1219559, 42.5, -0.0130922
-0.3291016, -0.3818359, -0.824707, -24.3902435, -110.7317123, 42.0121956, -0.0169528
-0.3320312, -0.3652344, -0.8237305, -25.3048782, -111.0975647, 41.7073174, -0.018967
-0.3320312, -0.3500977, -0.8256836, -26.4024391, -110.9756088, 41.4634171, -0.0236667
-0.3261719, -0.3530273, -0.8154297, -28.2926826, -110.4878082, 41.5853653, -0.0263523
-0.3222656, -0.3686523, -0.809082, -29.4512196, -110.2439041, 41.7682953, -0.0297093
-0.3227539, -0.3808594, -0.8256836, -31.1585369, -109.3902435, 42.3170738, -0.0287022
-0.3310547, -0.4091797, -0.8740234, -31.7073174, -109.2073212, 43.1097565, -0.0250095
-0.3286133, -0.4267578, -0.8867188, -31.4024391, -108.6585388, 45.6097565, -0.0162814
-0.3046875, -0.4213867, -0.8769531, -29.3902454, -107.4390259, 46.0365868, -0.0139315
-0.3017578, -0.3530273, -0.8554688, -29.0243912, -106.0975647, 45.1829262, -0.0082246
-0.3183594, -0.3125, -0.8666992, -31.7682934, -102.0731735, 42.3780479, -0.0041962
-0.3510742, -0.2744141, -0.8901367, -34.6341476, -101.1585388, 41.9512215, -0.0023499
-0.3500977, -0.293457, -0.8901367, -40.4268303, -102.1341476, 42.1951218, -0.0112459
-0.3076172, -0.3842773, -0.8242188, -41.7682953, -103.6585388, 42.3780479, -0.0270237
-0.2890625, -0.4370117, -0.7744141, -40.1219521, -104.4512253, 42.6219521, -0.0290379
-0.2973633, -0.4956055, -0.7368164, -37.7439041, -102.8048782, 42.6829262, -0.0347448
-0.3320312, -0.5029297, -0.7485352, -32.5, -97.3780518, 43.7804871, -0.0417945
-0.4165039, -0.4868164, -0.7978516, -30.1219521, -95.3048782, 44.6341476, -0.0446479
-0.4443359, -0.4545898, -0.8134766, -26.0365868, -95.3658524, 45, -0.0535439
-0.4458008, -0.3959961, -0.8168945, -24.2682934, -99.2682953, 41.5853653, -0.0585794
-0.4111328, -0.3681641, -0.769043, -24.3902435, -101.2804871, 39.3292694, -0.0575723
-0.3828125, -0.3662109, -0.7407227, -25.8536587, -103.2317123, 36.9512215, -0.0552224
-0.3652344, -0.3642578, -0.7299805, -27.0121956, -102.3170776, 36.7073174, -0.051194
-0.3754883, -0.3613281, -0.7470703, -29.2073174, -98.7804871, 37.8658562, -0.0481727
-0.4135742, -0.3574219, -0.7709961, -29.7560978, -97.3170776, 38.9024391, -0.0404517
-0.4213867, -0.3505859, -0.7646484, -29.8780499, -97.3170776, 39.7560997, -0.033402
-0.4272461, -0.3339844, -0.7470703, -29.9390259, -98.3536606, 39.6951218, -0.0283665
-0.4287109, -0.3183594, -0.7504883, -31.4024391, -99.5731735, 38.841465, -0.0223239
-0.4414062, -0.3261719, -0.7827148, -32.8658562, -100.5487823, 38.9024391, -0.0182956
-0.4414062, -0.3359375, -0.7875977, -35.4268303, -100.7317123, 41.7073174, -0.0182956
-0.421875, -0.3417969, -0.7700195, -35.2439041, -99.6951218, 42.5, -0.0142672
-0.4077148, -0.3310547, -0.7602539, -35.6097565, -98.5975647, 42.0121956, -0.0078889
-0.4189453, -0.3222656, -0.7592773, -37.7439041, -96.5853653, 40.1829262, -0.0090639
-0.4418945, -0.3110352, -0.753418, -39.2073174, -96.1585388, 40.2439041, -0.0082246
-0.4492188, -0.3081055, -0.7426758, -42.4390259, -96.5853653, 41.0975609, -0.0125887
-0.4521484, -0.3110352, -0.7216797, -43.6585388, -96.9512253, 41.0975609, -0.012253
-0.4555664, -0.3139648, -0.7226562, -45.0609779, -97.1951218, 39.6341476, -0.0149386
-0.4838867, -0.3325195, -0.7807617, -45.6097565, -97.0731735, 39.2073174, -0.0218204
-0.4916992, -0.3510742, -0.8041992, -46.0975609, -97.9268341, 40.0609779, -0.0354162
-0.4682617, -0.3818359, -0.8110352, -45.8536606, -98.7195129, 41.0365868, -0.0439765
-0.4433594, -0.3813477, -0.7880859, -43.841465, -98.3536606, 40.7317085, -0.0433051
-0.4121094, -0.359375, -0.762207, -42.7439041, -95.2439041, 37.3170738, -0.0451514
-0.4321289, -0.3525391, -0.7509766, -43.7804871, -93.4146347, 36.2804871, -0.0485084
-0.4423828, -0.3618164, -0.7304688, -45.7317085, -92.5, 35.7317085, -0.0498512
-0.4619141, -0.3896484, -0.6875, -45.5487823, -92.9268341, 35.6097565, -0.0488441
-0.4765625, -0.40625, -0.6870117, -42.0121956, -94.0243912, 35.2439041, -0.0421302
-0.5009766, -0.4433594, -0.7021484, -39.3292694, -93.6585388, 35.2439041, -0.0357519
-0.5126953, -0.4448242, -0.6962891, -33.4756088, -93.0487823, 36.4024391, -0.0310521
-0.5180664, -0.4052734, -0.6738281, -30.3658543, -92.0121994, 35.9756088, -0.0250095
-0.5292969, -0.3666992, -0.6831055, -27.3170738, -89.6341476, 32.4390259, -0.0219883
-0.5595703, -0.3017578, -0.7285156, -28.2926826, -88.8414688, 30.6707325, -0.0112459
-0.559082, -0.2905273, -0.7446289, -31.5853672, -89.5731735, 29.9390259, -0.002182
-0.5273438, -0.2832031, -0.7592773, -33.841465, -91.0365906, 30.5487804, 0.0031891
-0.4609375, -0.3007812, -0.7460938, -34.3292694, -90.9756088, 30.1219521, 0.0068818
-0.4384766, -0.3125, -0.7426758, -34.6951218, -89.8780518, 30.060976, 0.0052033
-0.4228516, -0.3359375, -0.7407227, -35.4878044, -89.0243912, 30, 0.0068818
-0.4335938, -0.3388672, -0.7280273, -37.9268303, -86.646347, 30.3048782, 0.0045319
-0.4707031, -0.3369141, -0.6933594, -38.6585388, -84.2073212, 30.7926846, 0.0052033
-0.4936523, -0.3276367, -0.6748047, -39.2073174, -79.2073212, 29.8170738, 0.0018463
-0.5576172, -0.2871094, -0.6577148, -39.4512215, -78.0487823, 28.841465, 0.002182
-0.5830078, -0.2695312, -0.6503906, -41.0365868, -77.8658524, 27.3780499, 0.0025177
-0.5996094, -0.2543945, -0.628418, -42.5609779, -79.6341476, 26.9512196, -0.005539
-0.5913086, -0.2583008, -0.6220703, -44.9390259, -82.6219559, 27.1951218, -0.011078
-0.5786133, -0.277832, -0.6103516, -47.0121956, -83.1097565, 28.780489, -0.0157778
-0.5683594, -0.2885742, -0.6191406, -47.8048782, -82.6219559, 29.6341476, -0.0240024
-0.5712891, -0.2983398, -0.6274414, -48.7804871, -80.3048782, 30.3658543, -0.0323949
-0.5732422, -0.3232422, -0.628418, -48.3536606, -79.5731735, 30.3048782, -0.0370947
-0.5673828, -0.3339844, -0.6113281, -46.8292694, -79.9390259, 30.060976, -0.0404517
-0.550293, -0.3432617, -0.559082, -45.4268303, -79.7560959, 29.5121956, -0.0448157
-0.5546875, -0.3393555, -0.5493164, -42.6829262, -77.9878082, 28.4146347, -0.0451514
-0.5766602, -0.3398438, -0.5678711, -42.0121956, -76.646347, 27.8048782, -0.0466621
-0.5942383, -0.347168, -0.5952148, -40.9146347, -74.6341476, 26.8902454, -0.0431373
-0.6108398, -0.3525391, -0.6513672, -39.6951218, -74.8780518, 26.6463413, -0.0424659
-0.6040039, -0.3544922, -0.6787109, -38.6585388, -75.0609741, 25.9146347, -0.0431373
-0.5649414, -0.3652344, -0.7075195, -36.8902435, -75.4268341, 23.6585369, -0.0525368
-0.5029297, -0.3725586, -0.6894531, -35.9756088, -75.3658524, 22.3170738, -0.0552224
-0.4746094, -0.3647461, -0.6674805, -34.7560997, -72.8048782, 20.060976, -0.0525368
-0.4702148, -0.3359375, -0.6308594, -34.5731697, -70.5487823, 18.9634151, -0.0520333
-0.4912109, -0.3120117, -0.6269531, -34.8780479, -65.1219559, 17.7439022, -0.047837
-0.5410156, -0.2719727, -0.6240234, -35.2439041, -62.8658562, 17.3170738, -0.0421302
-0.5678711, -0.2583008, -0.6201172, -36.6463432, -60.8536606, 17.0731716, -0.0391089
-0.5986328, -0.2553711, -0.5981445, -37.1951218, -60.7926826, 16.2195129, -0.0364233
-0.6049805, -0.2626953, -0.5913086, -37.8658562, -61.4634171, 15.6707325, -0.0323949
-0.6040039, -0.2817383, -0.6005859, -38.9634171, -61.341465, 16.3414631, -0.0330663
-0.6020508, -0.2836914, -0.6015625, -39.2682953, -60.6707344, 16.5853653, -0.0303807
-0.5932617, -0.2792969, -0.6000977, -39.8780479, -59.0853691, 16.2195129, -0.0310521
-0.5854492, -0.2607422, -0.5791016, -40.1219521, -58.2317085, 15.7926836, -0.0280308
-0.5839844, -0.2529297, -0.5703125, -41.4024391, -57.2560997, 14.8170738, -0.0218204
-0.5854492, -0.2407227, -0.5742188, -42.5609779, -56.7682953, 14.5121956, -0.0216526
-0.5917969, -0.2460938, -0.5898438, -44.9390259, -55.3048782, 14.7560978, -0.0206455
-0.5952148, -0.2543945, -0.6049805, -46.0365868, -54.5731735, 15.1219511, -0.0243381
-0.5893555, -0.2529297, -0.6000977, -46.8292694, -52.9268303, 15.1829271, -0.0273594
-0.5732422, -0.2451172, -0.5625, -46.4024391, -52.1951218, 14.1463413, -0.0263523
-0.5722656, -0.2456055, -0.5395508, -46.2195129, -50.4878044, 11.7073174, -0.0287022
-0.5786133, -0.2666016, -0.4995117, -46.4634171, -48.6585388, 10.2439022, -0.0318914
-0.5913086, -0.2807617, -0.4887695, -46.8292694, -48.0487823, 10.5487804, -0.0313878
-0.6196289, -0.3095703, -0.5161133, -46.6463432, -46.9512215, 11.219512, -0.0344091
-0.6533203, -0.3076172, -0.5732422, -45.4878044, -46.1585388, 11.7682934, -0.0285344
-0.6533203, -0.3012695, -0.5864258, -43.2926826, -44.5731735, 10.7317076, -0.0216526
-0.6225586, -0.2900391, -0.5634766, -41.5853653, -43.9024391, 9.0853662, -0.0162814
-0.6054688, -0.2944336, -0.5288086, -39.6341476, -43.2317085, 5.670732, -0.017792
-0.5844727, -0.3154297, -0.4736328, -38.3536606, -43.0487823, 4.2073174, -0.0179599
-0.5932617, -0.3217773, -0.4697266, -36.5243912, -42.0121956, 3.4146342, -0.0182956
-0.6259766, -0.309082, -0.5039062, -35.8536606, -41.0365868, 3.8414636, -0.0209812
-0.6386719, -0.3051758, -0.5097656, -33.4756088, -39.7560997, 4.7560978, -0.0260166
-0.6552734, -0.2807617, -0.5180664, -29.4512196, -39.5731735, 3.0487804, -0.0357519
-0.659668, -0.2758789, -0.5229492, -27.9878063, -39.8170738, 1.8902439, -0.0344091
-0.6552734, -0.2763672, -0.5361328, -26.7682934, -40.7926826, 1.2195122, -0.0357519
-0.6323242, -0.2851562, -0.5478516, -26.1585369, -40.7926826, 1.9512196, -0.0344091
-0.6191406, -0.2822266, -0.5458984, -24.8170738, -38.6585388, 2.2560976, -0.0317235
-0.6030273, -0.2446289, -0.5498047, -24.2073174, -36.5853653, 1.8902439, -0.0287022
-0.6054688, -0.2246094, -0.5581055, -24.0243912, -32.6829262, 0, -0.0270237
-0.6337891, -0.190918, -0.5698242, -25, -31.7682934, -1.0365853, -0.0293736
-0.6386719, -0.1860352, -0.5688477, -27.8658543, -31.7073174, -1.3414634, -0.0263523
-0.6303711, -0.1884766, -0.5302734, -29.2682934, -32.3170738, -1.3414634, -0.0209812
-0.6259766, -0.1850586, -0.5224609, -31.4634151, -32.3170738, -1.3414634, -0.0206455
-0.6401367, -0.1811523, -0.534668, -33.9634171, -31.2195129, -0.7317073, -0.0191348
-0.6474609, -0.190918, -0.5556641, -35.4268303, -30.3048782, -0.1219512, -0.0256809
-0.6435547, -0.2124023, -0.5727539, -37.6829262, -29.6951218, 1.7682927, -0.0317235
-0.6210938, -0.2299805, -0.5634766, -37.6829262, -29.3292694, 1.7682927, -0.0354162
-0.6079102, -0.2402344, -0.546875, -36.8292694, -26.4634151, 0.3048781, -0.0458228
-0.6035156, -0.2504883, -0.503418, -36.1585388, -24.8780499, -0.9146342, -0.0548867
-0.6147461, -0.2539062, -0.4711914, -35.4878044, -22.1341476, -2.2560976, -0.0592508
-0.6420898, -0.2578125, -0.4145508, -34.6341476, -20.8536587, -2.6829269, -0.0605936
-0.6591797, -0.2568359, -0.3925781, -32.8658562, -19.4512196, -3.1707318, -0.057908
-0.7055664, -0.2651367, -0.3681641, -31.7682934, -18.6585369, -3.1707318, -0.0565652
-0.7270508, -0.2695312, -0.3666992, -29.5731716, -18.780489, -3.7195122, -0.0498512
-0.7382812, -0.2915039, -0.3867188, -26.280489, -18.9634151, -3.9024391, -0.0471656
-0.7338867, -0.3017578, -0.4038086, -23.8414631, -19.1463413, -4.5731707, -0.0417945
-0.7050781, -0.3222656, -0.4272461, -20.3048782, -17.9878044, -5.7926831, -0.0330663
-0.6621094, -0.315918, -0.4423828, -18.780489, -16.7682934, -6.8292685, -0.0213169
-0.6586914, -0.3007812, -0.4575195, -16.8902435, -12.9878054, -9.3292685, -0.0159457
-0.6772461, -0.2631836, -0.4926758, -16.5243912, -11.4024391, -10, -0.0112459
-0.6884766, -0.234375, -0.5097656, -16.5243912, -10.4268293, -10.6707315, -0.005539
-0.690918, -0.2050781, -0.5253906, -15.9146347, -10.8536587, -10.1829271, -0.0015106
-0.6860352, -0.1977539, -0.5151367, -13.5975609, -12.5, -7.8658538, -0.002182
-0.6547852, -0.1757812, -0.4677734, -11.7682934, -12.1951218, -6.7682929, -0.0048676
-0.6494141, -0.1547852, -0.4526367, -9.0243902, -7.9878049, -5.3048782, -0.0068818
-0.6679688, -0.1337891, -0.4790039, -10, -2.6829269, -5.3658538, -0.0085603
-0.7001953, -0.1420898, -0.5439453, -12.1951218, -2.0121951, -4.6341462, -0.0028534
-0.7021484, -0.1542969, -0.559082, -17.0731716, -2.9878049, -3.1097562, 0.0065461
-0.6582031, -0.1821289, -0.5283203, -18.5975609, -4.0853658, -3.0487804, 0.0078889
-0.6323242, -0.1982422, -0.4946289, -18.8414631, -3.1707318, -4.0853658, 0.0105745
-0.6074219, -0.2016602, -0.4604492, -18.3536587, -1.097561, -4.9390244, 0.0146029
-0.6220703, -0.2080078, -0.4580078, -17.9878044, 3.4146342, -5.1219511, 0.0203098
-0.6469727, -0.2041016, -0.4555664, -18.4146347, 4.6341462, -4.9390244, 0.0172885
-0.6630859, -0.2011719, -0.4550781, -19.1463413, 5.2439027, -4.5731707, 0.0159457
-0.6743164, -0.2109375, -0.4355469, -19.2682934, 5.7317076, -4.9390244, 0.0099031
-0.6782227, -0.2192383, -0.4228516, -19.3292694, 6.890244, -6.0365853, 0.0045319
-0.6855469, -0.2421875, -0.4042969, -18.4756107, 8.3536587, -7.1951222, -0.0045319
-0.6821289, -0.2460938, -0.3920898, -17.8048782, 9.5731707, -7.7439027, -0.0068818
-0.6835938, -0.2504883, -0.3857422, -15.7317076, 11.280488, -9.0243902, -0.0082246
-0.6767578, -0.2612305, -0.3764648, -14.6341467, 11.8902445, -9.6951218, -0.0058747
-0.6708984, -0.2700195, -0.3710938, -12.6219511, 12.6829271, -11.5853662, -0.0072175
-0.6669922, -0.2827148, -0.390625, -11.5243902, 13.3536587, -12.2560978, -0.0085603
-0.6689453, -0.2783203, -0.4145508, -9.8780489, 15.3048782, -12.1341467, -0.0169528
-0.6694336, -0.265625, -0.4677734, -9.1463413, 15.9146347, -12.5, -0.0229953
-0.6635742, -0.2543945, -0.480957, -7.7439027, 17.3780499, -13.5365858, -0.018967
-0.6342773, -0.2402344, -0.4946289, -6.4634147, 17.8658543, -14.6951227, -0.0198062
-0.6201172, -0.2407227, -0.5039062, -4.5121951, 18.8414631, -16.9512196, -0.0229953
-0.5981445, -0.2299805, -0.5375977, -4.6951222, 20.9756107, -17.0121956, -0.0229953
-0.5849609, -0.2202148, -0.5644531, -5.1219511, 22.6219521, -16.5853653, -0.0243381
-0.5795898, -0.21875, -0.5625, -6.1585369, 25.6097565, -16.4024391, -0.0236667
-0.559082, -0.2216797, -0.5649414, -6.280488, 27.3780499, -17.0731716, -0.0219883
-0.5571289, -0.2255859, -0.574707, -6.2195125, 29.6951218, -18.4146347, -0.0216526
-0.5717773, -0.234375, -0.5957031, -6.7073174, 30.8536587, -18.3536587, -0.0196384
-0.5727539, -0.2392578, -0.590332, -7.0731707, 32.8048782, -16.8902435, -0.0125887
-0.5654297, -0.2333984, -0.5751953, -6.7682929, 34.3292694, -16.3414631, -0.0119173
-0.5556641, -0.2216797, -0.5678711, -6.5853658, 37.8048782, -16.5243912, -0.0104067
-0.559082, -0.2133789, -0.5722656, -6.7682929, 39.8780479, -17.439024, -0.017792
-0.5668945, -0.2207031, -0.5717773, -8.1707315, 42.3170738, -18.780489, -0.0352483
-0.5654297, -0.2475586, -0.5585938, -9.4512196, 42.8658562, -19.0853672, -0.0419623
-0.5615234, -0.2641602, -0.5400391, -9.0853662, 43.2926826, -19.3902435, -0.0485084
-0.5688477, -0.2700195, -0.5390625, -7.6219516, 45.0609779, -19.6951218, -0.057908
-0.5791016, -0.2651367, -0.5375977, -7.1341467, 46.6463432, -19.8780499, -0.0639506
-0.5791016, -0.2709961, -0.5419922, -5, 48.9024391, -19.7560978, -0.0647898
-0.5820312, -0.2856445, -0.5302734, -4.1463413, 49.8780518, -20.1219521, -0.0599222
-0.5805664, -0.2998047, -0.5185547, -3.2926829, 51.4634171, -20.7926826, -0.0569009
-0.5805664, -0.3056641, -0.5151367, -2.7439024, 52.0731735, -21.9512196, -0.0480049
-0.5864258, -0.2949219, -0.5297852, -2.0731707, 53.9024391, -23.1097565, -0.0377661
-0.6044922, -0.2661133, -0.5581055, -2.5, 54.7560997, -23.2926826, -0.0323949
-0.6010742, -0.2568359, -0.5581055, -2.195122, 55.0609779, -24.0853672, -0.0171206
-0.578125, -0.2470703, -0.5263672, -1.2804878, 54.8780518, -26.0365868, -0.0045319
-0.5693359, -0.2504883, -0.550293, -0.7926829, 54.8780518, -27.1341476, 0.0062104
-0.5791016, -0.2543945, -0.5800781, -1.8292683, 55.18293, -25.9756107, 0.0182956
-0.5849609, -0.2631836, -0.6074219, -2.804878, 55.18293, -24.0243912, 0.0226596
-0.5654297, -0.2573242, -0.5976562, -2.5, 55.5487823, -21.5243912, 0.0298772
-0.543457, -0.2299805, -0.5712891, -0.9146342, 57.0121956, -21.7682934, 0.030045
-0.5449219, -0.2192383, -0.5673828, 1.1585366, 60.18293, -23.4756107, 0.0337377
-0.5688477, -0.222168, -0.5761719, 0.9756098, 61.4634171, -24.1463413, 0.0347448
-0.5761719, -0.2231445, -0.5874023, -0.6707317, 61.8292694, -22.8658543, 0.0327306
-0.5649414, -0.2294922, -0.5991211, -1.5853659, 61.5853691, -21.8292694, 0.0307164
-0.5595703, -0.2246094, -0.6079102, -2.7439024, 62.0121956, -21.280489, 0.0302129
-0.5493164, -0.2358398, -0.6196289, -2.2560976, 63.3536606, -21.8902435, 0.0260166
-0.5395508, -0.2285156, -0.6137695, -2.0121951, 64.1463394, -22.8658543, 0.0169528
-0.534668, -0.234375, -0.6132812, -1.5853659, 65.3658524, -23.2317085, 0.0099031
-0.5141602, -0.246582, -0.6118164, -1.4634147, 65.7317123, -22.9878063, 0.0045319
-0.5058594, -0.2543945, -0.6225586, -1.097561, 66.8292694, -21.8292694, -0.0048676
-0.4980469, -0.2675781, -0.6616211, -1.1585366, 68.0487823, -21.2195129, -0.0135958
-0.5, -0.2646484, -0.6708984, -1.0365853, 71.0365906, -20.8536587, -0.01561
-0.5009766, -0.2583008, -0.6582031, -0.5487805, 72.5609741, -21.3414631, -0.0203098
-0.5058594, -0.2514648, -0.6308594, 0.0609756, 75.2439041, -24.3902435, -0.0203098
-0.5131836, -0.2446289, -0.5766602, 0.1829268, 76.0975647, -25.6707325, -0.0203098
-0.5258789, -0.2441406, -0.5595703, -1.2804878, 77.0731735, -27.7439022, -0.0236667
-0.5712891, -0.2373047, -0.5585938, -3.8414636, 76.8902435, -27.2560978, -0.0236667
-0.6103516, -0.2143555, -0.5727539, -5.4878049, 76.5853653, -26.5853672, -0.0236667
-0.6088867, -0.2163086, -0.5732422, -7.5609756, 74.4512177, -25.3658543, -0.0303807
-0.5888672, -0.2495117, -0.5581055, -7.8048782, 72.9268341, -24.9390259, -0.0340734
-0.5732422, -0.262207, -0.5532227, -6.5243902, 70.6097565, -23.9024391, -0.0488441
-0.5498047, -0.2548828, -0.5307617, -5.4878049, 70.9146347, -23.5365868, -0.0740215
-0.5444336, -0.2446289, -0.5166016, -2.9878049, 73.3536606, -23.2926826, -0.0985275
-0.5449219, -0.2104492, -0.515625, -2.195122, 74.8170776, -23.8414631, -0.1022202
-0.5517578, -0.2021484, -0.5424805, -3.9634147, 76.3414688, -24.5121956, -0.1042344
-0.5717773, -0.2041016, -0.6206055, -6.5853658, 75.8536606, -24.8780499, -0.0988632
-0.5698242, -0.2236328, -0.6508789, -13.0487804, 72.4390259, -23.2317085, -0.0891279
-0.527832, -0.2607422, -0.6733398, -16.5243912, 68.2317123, -22.6219521, -0.0840925
-0.4570312, -0.2905273, -0.7026367, -16.2195129, 67.5, -22.8048782, -0.0753643
-0.4296875, -0.3085938, -0.7250977, -13.780488, 67.0731735, -22.6219521, -0.0626078
-0.3886719, -0.3374023, -0.7685547, -12.2560978, 67.9268341, -21.7073174, -0.0464942
-0.3696289, -0.3398438, -0.7607422, -8.719512, 71.1585388, -18.6585369, -0.0340734
-0.3325195, -0.328125, -0.6972656, -6.280488, 74.0853653, -18.3536587, -0.0229953
-0.328125, -0.3144531, -0.6538086, -0.4268293, 80.9146347, -20.3658543, -0.0102388
-0.375, -0.28125, -0.5834961, 1.5853659, 84.146347, -22.1341476, 0.0075532
-0.4204102, -0.2709961, -0.5854492, 2.804878, 88.3536606, -24.6951218, 0.0179599
-0.5043945, -0.2587891, -0.6474609, 1.8292683, 88.4146347, -24.3902435, 0.026688
-0.5288086, -0.2612305, -0.690918, -1.2195122, 84.5731735, -22.3780499, 0.0293736
-0.5078125, -0.2890625, -0.7636719, -2.5, 77.9268341, -21.8902435, 0.0273594
-0.4086914, -0.3432617, -0.7768555, -1.7073171, 75.2439041, -22.560976, 0.0243381
-0.3505859, -0.3623047, -0.7548828, 2.4390244, 73.2926865, -26.4024391, 0.0219883
-0.2612305, -0.3964844, -0.6914062, 4.0853658, 75.1219559, -28.1707325, 0.0182956
-0.2456055, -0.3984375, -0.6694336, 6.9512196, 82.3170776, -30.1829281, 0.0139315
-0.2856445, -0.3847656, -0.6674805, 7.8048782, 86.646347, -30.060976, 0.0052033
-0.3212891, -0.3613281, -0.6738281, 9.1463413, 92.6219559, -29.3292694, -0.0008392
-0.3916016, -0.3212891, -0.6796875, 9.7560978, 94.2682953, -29.1463413, -0.0095674
-0.4165039, -0.3120117, -0.6904297, 12.0121956, 92.7439041, -30.3048782, -0.0182956
-0.4404297, -0.3183594, -0.7324219, 12.3780489, 90.7317123, -30.7317085, -0.030045
-0.4262695, -0.3320312, -0.7617188, 12.2560978, 87.7439041, -29.9390259, -0.0364233
-0.3598633, -0.3520508, -0.7983398, 10.7926836, 87.1341476, -29.7560978, -0.0370947
-0.2763672, -0.3671875, -0.7680664, 10.2439022, 87.3780518, -31.1585369, -0.0323949
-0.2382812, -0.3745117, -0.7338867, 10.3658543, 89.5121994, -34.6951218, -0.0265202
-0.2250977, -0.3818359, -0.7036133, 10.6707315, 90.8536606, -36.5243912, -0.0203098
-0.2495117, -0.3818359, -0.7182617, 9.8780489, 94.4512253, -36.8292694, -0.0176242
-0.3149414, -0.3706055, -0.7753906, 9.5731707, 96.0365906, -35.3048782, -0.0166171
-0.3427734, -0.3608398, -0.7944336, 9.3292685, 98.6585388, -32.7439041, -0.0149386
-0.3549805, -0.3530273, -0.8081055, 10, 99.146347, -32.4390259, -0.0149386
-0.3447266, -0.359375, -0.7939453, 10.8536587, 97.9878082, -34.5121956, -0.0142672
-0.3046875, -0.390625, -0.7451172, 10.8536587, 96.5243912, -36.7073174, -0.01561
-0.2929688, -0.3916016, -0.7250977, 10.6707315, 96.8902435, -37.0731697, -0.0176242
-0.3168945, -0.3657227, -0.7255859, 8.841464, 100.2439041, -36.7682953, -0.0162814
-0.3691406, -0.3134766, -0.7729492, 7.5, 102.1951218, -35.5487823, -0.0085603
-0.3886719, -0.2841797, -0.8007812, 4.0243902, 103.9634171, -34.2073174, -0.0028534
-0.3808594, -0.2744141, -0.8759766, 2.1341465, 102.8658524, -33.5975609, 0.0038605
-0.3632812, -0.2988281, -0.9116211, -1.6463414, 98.1097565, -32.7439041, 0.0028534
-0.2749023, -0.3842773, -0.9418945, -2.804878, 95.3658524, -31.4634151, -0.0048676
-0.2099609, -0.4262695, -0.9345703, -1.7073171, 93.2317123, -29.0243912, -0.0068818
-0.1044922, -0.4780273, -0.9169922, 0.1219512, 95.18293, -28.9634151, -0.0068818
-0.0844727, -0.4770508, -0.9111328, 4.5121951, 104.3902435, -30.4268303, -0.012253
-0.1196289, -0.4375, -0.9145508, 6.0975609, 115.7926865, -31.7682934, -0.012253
-0.1606445, -0.4101562, -0.9233398, 5.670732, 120.0609818, -32.3780479, -0.0169528
-0.2294922, -0.387207, -0.9189453, 3.1097562, 122.5, -33.9634171, -0.0209812
-0.2402344, -0.421875, -0.8588867, 1.4634147, 120.6707382, -34.6951218, -0.0209812
-0.2451172, -0.4526367, -0.8339844, 0.9756098, 116.8902435, -36.9512215, -0.0258488
-0.2490234, -0.5131836, -0.8134766, 1.9512196, 115.5487823, -37.5, -0.0297093
-0.2514648, -0.5361328, -0.8017578, 5.609756, 115.6097565, -36.7073174, -0.0364233
-0.2529297, -0.5351562, -0.7851562, 8.5975609, 116.7682953, -36.4634171, -0.0417945
-0.2646484, -0.5009766, -0.7924805, 14.2073174, 120.1219559, -37.5, -0.0448157
-0.2866211, -0.4086914, -0.8232422, 15.6707325, 122.1951218, -38.9634171, -0.0451514
-0.2944336, -0.3691406, -0.8339844, 14.0243902, 122.8048782, -42.9268303, -0.04448
-0.2792969, -0.3574219, -0.8369141, 8.9634151, 119.7561035, -46.4634171, -0.0421302
-0.2641602, -0.3735352, -0.8369141, 5.609756, 118.2926865, -47.3780518, -0.0421302
-0.215332, -0.4335938, -0.8203125, 1.9512196, 115.7926865, -46.4024391, -0.0350805
-0.1645508, -0.4628906, -0.7958984, 1.7682927, 115.6707306, -45.8536606, -0.0330663
-0.1474609, -0.4599609, -0.7905273, 3.8414636, 118.1707382, -47.3780518, -0.0287022
-0.1660156, -0.4370117, -0.7944336, 4.6951222, 119.7561035, -48.5365868, -0.0240024
-0.1894531, -0.4194336, -0.8134766, 5.670732, 122.1951218, -50.1829262, -0.018967
-0.2333984, -0.4042969, -0.875, 5.4268293, 121.5243912, -50.3048782, -0.0142672
-0.2475586, -0.4086914, -0.9125977, 3.4146342, 118.4146347, -49.7560997, -0.0092317
-0.2250977, -0.4296875, -0.9458008, 2.2560976, 116.3414688, -49.1463432, -0.0090639
-0.2021484, -0.4375, -0.9394531, 0.7317073, 113.4756088, -49.2073174, -0.0105745
-0.1484375, -0.4296875, -0.9335938, 0.1829268, 114.2073212, -51.2804909, -0.0149386
-0.1376953, -0.4174805, -0.9453125, -0.6707317, 115.8536606, -52.0731735, -0.0204776
-0.1489258, -0.3974609, -0.9604492, -2.3170731, 119.0243912, -51.8902435, -0.0276951
-0.1494141, -0.4008789, -0.9282227, -3.1097562, 120.0609818, -51.2195129, -0.0305486
-0.137207, -0.4082031, -0.9008789, -3.4146342, 121.1585388, -50.3048782, -0.0391089
-0.1313477, -0.4331055, -0.8823242, -2.804878, 121.7073212, -50.9146347, -0.0506905
-0.1411133, -0.4511719, -0.8935547, -2.1341465, 122.9268341, -50.6707344, -0.0605936
-0.1611328, -0.4682617, -0.9443359, -1.9512196, 123.7195129, -49.7560997, -0.0693217
-0.1552734, -0.4648438, -0.9682617, -1.2195122, 123.9634171, -47.3780518, -0.0780499
-0.1240234, -0.434082, -0.9936523, -0.7926829, 124.3902435, -48.1097565, -0.0767071
-0.1020508, -0.4194336, -0.9990234, -0.2439024, 123.9634171, -51.4024391, -0.0720073
-0.0620117, -0.4082031, -0.9936523, -3.5975611, 122.9268341, -54.0853653, -0.0652934
-0.0371094, -0.4125977, -0.9838867, -6.2195125, 123.5365906, -54.2073174, -0.0565652
-0.0043945, -0.4213867, -0.9604492, -10.1219511, 126.0365906, -53.4146347, -0.0454871
-0.0097656, -0.4199219, -0.9355469, -10.9756098, 128.2926788, -53.1097565, -0.030045
-0.0146484, -0.4179688, -0.9130859, -10.9756098, 131.9512177, -53.4756126, -0.0097353
-0.0297852, -0.4140625, -0.8491211, -10.3048782, 133.0487823, -54.5731735, 0.0062104
-0.0424805, -0.4150391, -0.8188477, -10.1829271, 134.7561035, -57.1951218, 0.0191348
-0.0869141, -0.4301758, -0.7783203, -10.9756098, 134.9390259, -57.8048782, 0.0260166
-0.1049805, -0.4375, -0.7719727, -13.1097565, 134.6341553, -58.1707344, 0.0327306
-0.1313477, -0.4516602, -0.7841797, -14.2073174, 133.4756165, -58.0487823, 0.0359197
-0.1342773, -0.4599609, -0.7939453, -15.3048782, 129.7561035, -58.7804909, 0.0377661
-0.125, -0.4648438, -0.8608398, -15.9756098, 124.3292694, -60.3048782, 0.0377661
-0.1235352, -0.4643555, -0.9311523, -16.0365849, 121.8902435, -60.4268303, 0.0394446
-0.1015625, -0.4580078, -1.0166016, -15.5487804, 117.7439041, -57.3170738, 0.0340734
-0.0341797, -0.4331055, -0.9956055, -13.9634151, 116.7682953, -55.6097565, 0.0253452
0.0019531, -0.4003906, -0.9985352, -8.4756098, 119.9390259, -55.7317085, 0.0159457
-0.0004883, -0.3525391, -1.0693359, -5.9146342, 122.8048782, -57.0121956, 0.0062104
-0.0126953, -0.3569336, -1.1108398, -3.4756098, 125.7926865, -55.5487823, 0.0001678
0.0209961, -0.4086914, -1.15625, -4.2073174, 125.5487823, -52.3170738, -0.0082246
0.0610352, -0.4472656, -1.1572266, -4.2073174, 123.8414688, -46.6463432, -0.0109102
0.1557617, -0.4921875, -1.1376953, -3.4756098, 124.0243912, -45, -0.0135958
0.1938477, -0.5058594, -1.1323242, -1.2804878, 126.8902435, -45, -0.0169528
0.2290039, -0.5043945, -1.1411133, -0.4268293, 132.6829224, -46.9512215, -0.0216526
0.2202148, -0.4824219, -1.1508789, -1.5243902, 135.6097565, -48.1097565, -0.0280308
0.2045898, -0.4472656, -1.1362305, -6.3414636, 138.7195129, -50.7317085, -0.0513619
0.2016602, -0.4160156, -1.0488281, -9.3292685, 139.2073212, -52.3170738, -0.0809033
0.1899414, -0.4057617, -0.996582, -15.9146347, 139.0243988, -57.1951218, -0.0965133
0.1601562, -0.4130859, -0.8959961, -18.9024391, 138.9024353, -59.3292694, -0.1055772
0.1259766, -0.4267578, -0.8583984, -23.0487804, 139.2682953, -62.7439041, -0.1038987
0.0644531, -0.4584961, -0.796875, -24.2073174, 139.0243988, -63.2317085, -0.1038987
0.0351562, -0.4711914, -0.7763672, -24.3292694, 137.0731812, -62.4390259, -0.1012131
-0.0131836, -0.4731445, -0.7944336, -24.0243912, 135.6707306, -62.3170738, -0.0928206
-0.0332031, -0.4736328, -0.8359375, -21.8902435, 130.9756165, -62.0731735, -0.0798962
-0.027832, -0.4897461, -0.9443359, -20, 123.2317123, -61.4634171, -0.0713359
0.0551758, -0.5332031, -1.0239258, -18.9024391, 118.5975647, -61.341465, -0.0572366
0.109375, -0.5463867, -1.0722656, -15.3048782, 110.9146347, -60.5487823, -0.0397803
0.1821289, -0.5175781, -1.2119141, -13.5975609, 108.6585388, -60, -0.018967
0.203125, -0.4853516, -1.2734375, -9.9390249, 108.7195129, -56.7073174, -0.0075532
0.2802734, -0.4018555, -1.2958984, -8.1707315, 110.36586, -54.4512215, 0.0052033
0.3237305, -0.3496094, -1.2578125, -6.7682929, 116.7073212, -55, 0.0169528
0.359375, -0.2714844, -1.1806641, -6.9512196, 121.3414688, -57.1341476, 0.026688
0.3466797, -0.2666016, -1.1601562, -11.5853662, 128.1707306, -59.3902435, 0.0374304
0.2963867, -0.3457031, -1.144043, -15.3658543, 129.2682953, -58.0487823, 0.040116
0.2861328, -0.4038086, -1.1186523, -19.8780499, 126.3414688, -50.9146347, 0.0451514
0.3066406, -0.5097656, -1.0327148, -16.6463413, 124.0243912, -46.4024391, 0.0468299
0.3115234, -0.5424805, -0.9389648, -13.1707315, 124.8170776, -46.7682953, 0.0424659
0.2929688, -0.5317383, -0.9101562, -5.9146342, 130.1829224, -50.3658562, 0.0374304
0.2070312, -0.4902344, -0.918457, -4.2682929, 132.7439117, -52.1341476, 0.0354162
0.1591797, -0.4633789, -0.9365234, -5, 134.3902435, -52.5609779, 0.0307164
0.1044922, -0.4208984, -0.9692383, -5.8536587, 132.3170776, -52.1951218, 0.0226596
0.1088867, -0.394043, -0.9697266, -7.4390244, 126.5853653, -51.8292694, 0.0166171
0.1743164, -0.3808594, -0.9462891, -8.1707315, 123.4146347, -52.4390259, 0.0102388
0.2138672, -0.3945312, -0.9267578, -8.3536587, 118.6585388, -53.2926826, 0.0038605
0.3041992, -0.4213867, -0.8964844, -8.841464, 118.0487823, -52.8658562, -0.0048676
0.3232422, -0.4121094, -0.9052734, -10.5487804, 121.7073212, -51.2195129, -0.0105745
0.3291016, -0.3588867, -0.9658203, -14.5731707, 127.68293, -49.4512215, -0.0135958
0.300293, -0.2963867, -0.9995117, -17.1341476, 129.7561035, -49.3902435, -0.0203098
0.2958984, -0.2788086, -0.9887695, -24.2682934, 130.0609741, -50.7926826, -0.0250095
0.2875977, -0.2709961, -0.9506836, -28.2926826, 128.9634247, -52.1951218, -0.033402
0.2758789, -0.2875977, -0.9672852, -36.2195129, 125.7926865, -53.4146347, -0.0414588
0.2412109, -0.3432617, -1.0673828, -39.7560997, 123.1097565, -52.0731735, -0.04448
0.237793, -0.3803711, -1.1245117, -44.0243912, 116.9512253, -45.9756126, -0.0498512
0.3051758, -0.4394531, -1.1748047, -44.3292694, 114.2682953, -43.3536606, -0.0522011
0.3540039, -0.4492188, -1.1582031, -41.0365868, 111.4634171, -42.9878044, -0.0532082
0.4448242, -0.4536133, -1.0615234, -38.4146347, 112.5, -45.3658562, -0.0518654
0.4658203, -0.4545898, -1.0029297, -36.0975609, 117.2561035, -50.9146347, -0.0532082
0.4384766, -0.4580078, -0.9228516, -37.6219521, 123.1097565, -52.8048782, -0.0552224
0.3251953, -0.4570312, -0.9614258, -38.7195129, 124.6341476, -51.8902435, -0.051194
0.2724609, -0.4609375, -0.9990234, -38.5975609, 122.9268341, -47.7439041, -0.0471656
0.2353516, -0.4916992, -1.0473633, -36.8292694, 119.5121994, -45.5487823, -0.0454871
0.2631836, -0.5019531, -1.0395508, -30.5487804, 114.0853653, -43.7195129, -0.0458228
0.3383789, -0.5107422, -1.0004883, -26.5853672, 113.1707306, -44.8780479, -0.0438087
0.3779297, -0.5180664, -0.9770508, -20.3048782, 115.6097565, -47.0731735, -0.0431373
0.449707, -0.5302734, -0.9414062, -18.4146347, 117.6219559, -47.2560997, -0.0391089
0.4736328, -0.5361328, -0.9506836, -17.0731716, 120.36586, -45.4878044, -0.0377661
0.4794922, -0.527832, -1.0493164, -16.5853653, 120.5487823, -44.5121956, -0.0327306
0.4726562, -0.5107422, -1.1157227, -15.4878054, 120.2439041, -42.1951218, -0.0256809
0.4726562, -0.4467773, -1.2182617, -15.4268293, 119.6951218, -42.1341476, -0.0179599
0.5332031, -0.3706055, -1.1870117, -15.9756098, 119.6951218, -43.1097565, -0.0169528
0.5737305, -0.3364258, -1.1210938, -19.5121956, 121.2195129, -48.1707344, -0.0166171
0.6186523, -0.3134766, -0.9443359, -22.3170738, 123.2317123, -50.8536606, -0.0162814
0.6064453, -0.3168945, -0.8657227, -29.9390259, 127.86586, -53.5975609, -0.014435
0.5136719, -0.3447266, -0.7426758, -33.2926826, 129.8170776, -52.8658562, -0.01561
0.4492188, -0.3579102, -0.7070312, -37.6219521, 131.3414612, -49.2073174, -0.0157778
0.3320312, -0.4077148, -0.684082, -38.2317085, 130.7317047, -47.6829262, -0.0216526
0.284668, -0.4311523, -0.7036133, -37.0121956, 126.2195129, -45.4878044, -0.0283665
0.2353516, -0.4682617, -0.8369141, -36.2195129, 123.1707382, -45.0609779, -0.0364233
0.2421875, -0.4833984, -0.9311523, -34.8170738, 114.8780518, -42.8048782, -0.0347448
0.3447266, -0.5112305, -1.0751953, -34.3292694, 105.6707306, -40.0609779, -0.0360876
0.5419922, -0.5048828, -1.090332, -33.5365868, 103.3536606, -40.0609779, -0.0407874
0.6323242, -0.4770508, -1.0800781, -31.7073174, 103.6585388, -44.3292694, -0.0404517
0.7172852, -0.40625, -1.0961914, -31.341465, 106.646347, -46.8902435, -0.0394446
0.7148438, -0.3798828, -1.1137695, -34.0243912, 113.2926865, -48.1097565, -0.0387732
0.6831055, -0.3476562, -1.1425781, -36.4634171, 115.0609818, -47.1951218, -0.0370947
0.6655273, -0.3481445, -1.1352539, -40.6097565, 116.646347, -44.4512215, -0.0370947
0.6269531, -0.3925781, -1.0849609, -41.0975609, 117.3170776, -43.6585388, -0.0381018
0.6137695, -0.4267578, -1.0498047, -38.4756088, 118.2317123, -43.5365868, -0.0364233
0.5922852, -0.4985352, -0.965332, -36.2195129, 119.7561035, -43.3536606, -0.0323949
0.5810547, -0.5263672, -0.9311523, -30.4268303, 122.8048782, -43.841465, -0.03122
0.5517578, -0.5610352, -0.9086914, -26.3414631, 124.2073212, -45.2439041, -0.0270237
0.5380859, -0.5834961, -0.9082031, -24.5121956, 123.5975647, -46.2804871, -0.0290379
0.5292969, -0.5820312, -0.9106445, -22.0121956, 120.9756088, -48.1707344, -0.0251774
0.5410156, -0.550293, -0.9140625, -20.6097565, 119.7561035, -49.0243912, -0.0270237
0.5507812, -0.5239258, -0.9238281, -17.1951218, 119.2682953, -50.7926826, -0.0283665
0.5703125, -0.4584961, -0.9746094, -15.9756098, 119.8780518, -51.341465, -0.0297093
0.5805664, -0.4360352, -1.0092773, -15.6097565, 121.0365906, -51.4634171, -0.0287022
0.6225586, -0.4033203, -1.0566406, -16.2195129, 121.5243912, -50.3658562, -0.0203098
0.6538086, -0.3876953, -1.0595703, -19.0243912, 120.3048782, -48.841465, -0.0169528
0.7236328, -0.3544922, -1.0297852, -20.7317085, 120.2439041, -48.7804871, -0.0095674
0.7470703, -0.3378906, -0.9970703, -23.9024391, 120.18293, -49.7560997, -0.0062104
0.7451172, -0.300293, -0.9267578, -28.4756107, 122.9268341, -51.0365868, -0.005539
0.7055664, -0.2832031, -0.8535156, -31.0975609, 124.6951218, -51.4634171, -0.0045319
0.6704102, -0.2890625, -0.8261719, -35.7926826, 126.5243912, -50.9756126, -0.0048676
0.5922852, -0.3056641, -0.8085938, -37.6829262, 126.0365906, -50.1219521, -0.0063783
0.5561523, -0.3203125, -0.8198242, -40.6097565, 122.1341476, -47.5, -0.0115816
0.5327148, -0.3652344, -0.8608398, -42.0121956, 119.4512253, -46.2804871, -0.0209812
0.5439453, -0.394043, -0.8725586, -42.9878044, 112.3170776, -43.5975609, -0.0270237
0.6083984, -0.4404297, -0.8583984, -42.1951218, 109.5121994, -43.1097565, -0.0354162
0.6450195, -0.4418945, -0.8393555, -38.5975609, 105.6707306, -44.1463432, -0.0345769
0.7021484, -0.4287109, -0.8261719, -35.9146347, 105.18293, -44.8170738, -0.0384375
0.7119141, -0.4189453, -0.8300781, -31.0365868, 106.3414688, -45.6707344, -0.0491798
0.7055664, -0.3876953, -0.8793945, -29.3292694, 107.5609818, -45.2439041, -0.0498512
0.6850586, -0.371582, -0.9545898, -29.1463413, 107.4390259, -44.5731735, -0.0532082
0.6806641, -0.3725586, -0.9775391, -29.4512196, 105.5487823, -42.4390259, -0.051194
0.7133789, -0.3950195, -0.9741211, -29.1463413, 103.9634171, -42.2560997, -0.0411231
0.734375, -0.3999023, -0.9487305, -26.6463413, 102.4390259, -42.8048782, -0.0370947
0.7709961, -0.3945312, -0.871582, -24.5731716, 103.0487823, -43.6585388, -0.0394446
0.7744141, -0.394043, -0.8398438, -20.7926826, 106.5853653, -44.8170738, -0.0381018
0.7495117, -0.3745117, -0.7827148, -19.4512196, 108.8414688, -45.3048782, -0.0374304
0.7236328, -0.359375, -0.7578125, -17.8048782, 111.8902435, -45.4878044, -0.0374304
0.6704102, -0.3242188, -0.7329102, -17.3780499, 112.3780518, -44.8780479, -0.0283665
0.640625, -0.3100586, -0.7333984, -17.3170738, 111.4634171, -44.3292694, -0.0236667
0.6147461, -0.2954102, -0.7568359, -17.0731716, 108.5975647, -43.3536606, -0.0162814
0.6254883, -0.3071289, -0.8007812, -17.2560978, 107.0121994, -42.7439041, -0.012253
0.6469727, -0.3178711, -0.8178711, -16.7073174, 104.5121994, -41.0365868, -0.0057069
0.7211914, -0.3461914, -0.8168945, -16.1585369, 103.4756088, -40.3658562, 0.0045319
0.7631836, -0.3486328, -0.8056641, -14.2073174, 105, -40, 0.0092317
0.8164062, -0.3305664, -0.7988281, -13.3536587, 106.646347, -40.3658562, 0.0199741
0.8217773, -0.3144531, -0.8110352, -13.1707315, 111.4634171, -41.7073174, 0.023331
0.7915039, -0.2675781, -0.8662109, -14.3292685, 113.7804871, -42.0731735, 0.0293736
0.7749023, -0.2451172, -0.9003906, -18.8414631, 115.7317123, -40.7926826, 0.0320592
0.7548828, -0.2246094, -0.9545898, -24.1463413, 115.6097565, -40.4878044, 0.0340734
0.7597656, -0.2285156, -0.9765625, -26.2195129, 114.8780518, -40.6097565, 0.0365911
0.7836914, -0.2578125, -1.0102539, -29.0243912, 113.8414688, -41.2195129, 0.033402
0.8188477, -0.3139648, -0.9829102, -29.8780499, 113.5365906, -41.2195129, 0.0280308
0.8393555, -0.3378906, -0.9418945, -30.3658543, 113.3536606, -40.2439041, 0.0196384
0.8803711, -0.3632812, -0.8330078, -29.5121956, 114.4512253, -40.1829262, 0.0072175
0.8764648, -0.3632812, -0.7832031, -27.0121956, 117.68293, -41.5243912, -0.0068818
0.8203125, -0.3642578, -0.7353516, -26.3414631, 119.2073212, -42.3780479, -0.0179599
0.78125, -0.3652344, -0.7338867, -26.0975609, 120.3048782, -42.0121956, -0.0223239
0.7133789, -0.3623047, -0.7460938, -26.3414631, 118.7195129, -41.4024391, -0.0216526
0.690918, -0.3588867, -0.7558594, -25.6707325, 114.3292694, -39.6341476, -0.0176242
0.6962891, -0.3540039, -0.7797852, -22.6829281, 109.3292694, -38.6585388, -0.0196384
0.7172852, -0.3491211, -0.7944336, -20.9756107, 106.8902435, -38.5975609, -0.0182956
0.7954102, -0.3525391, -0.8149414, -17.6219521, 103.9634171, -38.1707344, -0.017792
0.8774414, -0.3554688, -0.8154297, -16.0975609, 103.0487823, -37.8048782, -0.018967
0.9130859, -0.355957, -0.8032227, -14.2682934, 102.4390259, -36.9512215, -0.0206455
0.9511719, -0.3417969, -0.7636719, -13.5975609, 102.8658524, -36.5853653, -0.0209812
0.9462891, -0.3276367, -0.7490234, -13.4146347, 105.6707306, -36.5853653, -0.0216526
0.9047852, -0.3100586, -0.7397461, -14.2073174, 106.8292694, -36.8292694, -0.0219883
0.8764648, -0.309082, -0.7338867, -15.9756098, 107.1951218, -36.4024391, -0.0229953
0.8217773, -0.3037109, -0.7182617, -16.9512196, 106.3414688, -35.8536606, -0.026688
0.8061523, -0.3037109, -0.7060547, -17.2560978, 104.3292694, -34.9390259, -0.0310521
0.8115234, -0.2988281, -0.7016602, -16.1585369, 102.1341476, -34.3902435, -0.0352483
0.815918, -0.2983398, -0.7114258, -15.4878054, 101.2804871, -33.7804871, -0.0387732
0.8393555, -0.3012695, -0.7358398, -14.7560978, 100.3658524, -32.6219521, -0.0404517
0.8818359, -0.2954102, -0.7299805, -14.8780489, 99.2682953, -32.3170738, -0.0411231
0.9038086, -0.2910156, -0.7207031, -14.5731707, 98.8414688, -32.2560997, -0.0391089
0.9257812, -0.2749023, -0.7104492, -15.1219511, 98.9024429, -32.0731697, -0.0417945
0.9243164, -0.2749023, -0.7104492, -16.0365849, 100.0609818, -31.7682934, -0.0391089
0.9135742, -0.2749023, -0.7114258, -17.3780499, 100.5487823, -31.8292694, -0.0370947
0.9052734, -0.2758789, -0.715332, -19.5121956, 101.4024429, -31.6463413, -0.0328985
0.8930664, -0.2788086, -0.7285156, -20.4878044, 101.1585388, -31.7073174, -0.0290379
0.8842773, -0.2788086, -0.7451172, -20.6707325, 100.7317123, -31.7682934, -0.0283665
0.8842773, -0.2910156, -0.7817383, -20.4268303, 99.9390259, -31.6463413, -0.0270237
0.8852539, -0.2944336, -0.7988281, -19.8170738, 99.5731735, -31.7682934, -0.0298772
0.8886719, -0.2915039, -0.8041992, -18.0487804, 99.8780518, -31.7073174, -0.0203098
0.9008789, -0.2773438, -0.7915039, -17.0731716, 99.8780518, -31.8292694, -0.018967
0.9038086, -0.265625, -0.7875977, -15.4268293, 101.0975647, -32.9878044, -0.0293736
0.9008789, -0.2680664, -0.7773438, -15, 101.4634171, -33.3536606, -0.0407874
0.8950195, -0.2744141, -0.7758789, -15.8536587, 102.1341476, -33.4146347, -0.0560616
0.890625, -0.3007812, -0.7646484, -16.8292694, 102.3780518, -32.8658562, -0.0659648
0.8901367, -0.3149414, -0.7597656, -17.8048782, 101.7682953, -31.7073174, -0.0686503
0.890625, -0.3256836, -0.7338867, -17.2560978, 101.7682953, -31.5243912, -0.0694896
0.8901367, -0.3164062, -0.7080078, -15, 101.5243912, -32.1951218, -0.0699931
0.8930664, -0.2836914, -0.6552734, -12.7439032, 102.2561035, -34.2682953, -0.0666361
0.8891602, -0.262207, -0.6313477, -12.3780489, 102.5, -35.3658562, -0.0614328
0.8779297, -0.2392578, -0.6074219, -13.4146347, 102.5, -36.6463432, -0.0538796
0.8505859, -0.2387695, -0.6118164, -14.9390249, 102.2561035, -36.2804871, -0.04448
0.8393555, -0.2358398, -0.6166992, -17.1341476, 100.6097565, -34.3292694, -0.0340734
0.8383789, -0.237793, -0.6245117, -17.9878044, 99.0243912, -33.4146347, -0.0238346
0.8476562, -0.2470703, -0.628418, -17.560976, 95.6707306, -32.4390259, -0.0256809
0.8789062, -0.2617188, -0.6162109, -16.8292694, 93.9634171, -32.6829262, -0.0199741
0.8911133, -0.2724609, -0.6035156, -15.3048782, 91.5243912, -33.2317085, -0.0146029
0.9106445, -0.2695312, -0.5932617, -14.8170738, 90.8536606, -33.0487823, -0.0129244
0.9121094, -0.2602539, -0.5957031, -14.6951227, 89.6951218, -32.7439041, -0.0115816
0.9208984, -0.2475586, -0.597168, -15.7317076, 87.5, -32.0121956, -0.0132601
0.9248047, -0.2543945, -0.6025391, -16.5853653, 86.0365906, -31.7073174, -0.0169528
0.9296875, -0.2631836, -0.6079102, -16.9512196, 83.7804871, -30.6707325, -0.0231632
0.9243164, -0.253418, -0.5996094, -16.5243912, 82.9878082, -30.1219521, -0.0236667
0.9272461, -0.246582, -0.5849609, -14.5731707, 81.3414688, -28.841465, -0.0270237
0.934082, -0.2333984, -0.5556641, -13.780488, 80.5487823, -28.9634151, -0.0320592
0.9316406, -0.2270508, -0.550293, -12.6219511, 79.0243912, -29.0243912, -0.0271916
0.9228516, -0.2197266, -0.5576172, -12.5, 78.5975647, -28.9634151, -0.0236667
0.9121094, -0.2124023, -0.5625, -13.5975609, 75.7926865, -27.1951218, -0.0216526
0.9116211, -0.2041016, -0.5668945, -14.3902445, 74.3902435, -26.5853672, -0.0229953
0.9194336, -0.2021484, -0.5668945, -14.8170738, 70.9146347, -24.8170738, -0.0199741
0.9414062, -0.2089844, -0.5644531, -13.6585369, 68.2317123, -23.5365868, -0.0164492
0.9487305, -0.215332, -0.574707, -13.1097565, 67.6219559, -23.0487804, -0.0135958
0.9570312, -0.21875, -0.5966797, -12.9268293, 66.9512177, -22.2560978, -0.0109102
0.9667969, -0.2138672, -0.6040039, -12.560976, 66.5243912, -21.7682934, -0.0169528
0.9736328, -0.2207031, -0.5981445, -12.0121956, 65.7317123, -21.5853672, -0.0216526
0.9819336, -0.2211914, -0.5761719, -11.7682934, 65.18293, -21.7682934, -0.0209812
0.9814453, -0.2207031, -0.5722656, -10.8536587, 65.4268341, -22.3170738, -0.0216526
0.9658203, -0.2143555, -0.5688477, -10.5487804, 65.9146347, -22.3170738, -0.0238346
0.9584961, -0.2084961, -0.5732422, -11.1585369, 65.9146347, -22.5, -0.0209812
0.9443359, -0.1879883, -0.5893555, -11.5853662, 65.18293, -22.0121956, -0.0182956
0.940918, -0.1879883, -0.5957031, -12.560976, 63.5975609, -22.3780499, -0.0171206
0.9418945, -0.2084961, -0.5898438, -12.9268293, 62.68293, -22.6219521, -0.0146029
0.9418945, -0.2348633, -0.5786133, -12.6219511, 62.3780518, -22.7439022, -0.0062104
0.9384766, -0.2392578, -0.5722656, -11.219512, 61.4634171, -22.5, 0.0031891
0.9272461, -0.25, -0.5664062, -10.7926836, 61.0365868, -22.6829281, 0.0058747
0.9262695, -0.2504883, -0.5678711, -10, 58.9024391, -23.9024391, 0.0018463
0.9189453, -0.2514648, -0.5727539, -9.6951218, 57.68293, -24.3292694, -0.0036927
0.9233398, -0.253418, -0.581543, -9.6341467, 55.7317085, -24.8170738, -0.0041962
0.9370117, -0.269043, -0.5996094, -9.1463413, 54.9390259, -24.7560978, -0.005539
0.9345703, -0.2666016, -0.6040039, -7.8658538, 53.9024391, -23.8414631, -0.0082246
0.9355469, -0.2485352, -0.6064453, -7.1341467, 52.9268303, -23.4756107, -0.0139315
0.9331055, -0.2363281, -0.5991211, -5.0609756, 52.0121956, -23.7195129, -0.0132601
0.9516602, -0.2133789, -0.5786133, -4.2682929, 51.0365868, -25.3658543, -0.0119173
0.949707, -0.2080078, -0.5561523, -4.6341462, 50.1219521, -25.8536587, -0.0129244
0.9467773, -0.2143555, -0.5444336, -6.1585369, 48.2317085, -25.1829281, -0.0102388
0.9365234, -0.2202148, -0.5185547, -7.1951222, 46.8292694, -24.6341476, -0.0095674
0.9321289, -0.2236328, -0.5073242, -7.8658538, 44.2073174, -22.9268303, -0.0137636
0.9267578, -0.2172852, -0.4848633, -7.6219516, 42.8658562, -22.1951218, -0.0139315
0.9267578, -0.2138672, -0.4741211, -6.7682929, 39.9390259, -21.6463413, -0.0196384
0.9267578, -0.203125, -0.4614258, -6.5243902, 38.5975609, -21.7073174, -0.0223239
0.9257812, -0.2026367, -0.4682617, -6.9512196, 36.4634171, -20.7317085, -0.023331
0.9194336, -0.2260742, -0.4741211, -7.6219516, 35.6097565, -19.7560978, -0.0243381
0.9101562, -0.2338867, -0.4824219, -8.5975609, 33.4756088, -17.0121956, -0.0253452
0.9042969, -0.2270508, -0.5014648, -7.8048782, 31.0365868, -15.7926836, -0.0193027
0.9194336, -0.2265625, -0.5244141, -7.1341467, 30.060976, -15.7317076, -0.01561
0.9238281, -0.2280273, -0.5332031, -5.9146342, 27.8658543, -16.280489, -0.0109102
0.934082, -0.2358398, -0.5615234, -6.0975609, 27.3780499, -16.280489, -0.0114137
0.9379883, -0.2373047, -0.5712891, -6.1585369, 26.5853672, -15.1829271, -0.0102388
0.9472656, -0.2148438, -0.5732422, -6.0975609, 26.1585369, -14.5121956, -0.0031891
0.949707, -0.1967773, -0.5678711, -5.7926831, 25.5487804, -14.5731707, -0.0001678
0.9584961, -0.1733398, -0.5649414, -5.7926831, 25.1219521, -14.6951227, 0.0008392
0.9633789, -0.1728516, -0.5649414, -7.2560978, 24.5121956, -15.060976, 0.0058747
0.9589844, -0.1860352, -0.5732422, -8.4146347, 24.0243912, -14.4512196, 0.0045319
0.9511719, -0.1923828, -0.5771484, -10.4878054, 23.3536587, -12.3170738, 0.0045319
0.9418945, -0.2001953, -0.565918, -11.280488, 22.3170738, -10.5487804, 0.0070497
0.9492188, -0.2055664, -0.5444336, -10.9756098, 21.7682934, -10.5487804, 0.0065461
0.9477539, -0.2109375, -0.534668, -10.4878054, 20.6097565, -11.1585369, 0.002182
0.9433594, -0.237793, -0.5283203, -10.1829271, 20.1829281, -10.8536587, -0.0031891
0.9321289, -0.2431641, -0.527832, -10.7926836, 19.5121956, -10.1219511, -0.0099031
0.9165039, -0.230957, -0.5258789, -11.0975609, 19.2073174, -9.6341467, -0.0139315
0.9130859, -0.2216797, -0.5239258, -11.4634151, 18.2317085, -9.6341467, -0.0162814
0.9165039, -0.2128906, -0.5205078, -11.341464, 17.1341476, -9.5121956, -0.0236667
0.9169922, -0.215332, -0.5224609, -11.6463413, 15.2439032, -10.060976, -0.0313878
0.9189453, -0.2368164, -0.527832, -11.7682934, 14.6951227, -9.8780489, -0.0525368
0.9189453, -0.2416992, -0.5327148, -11.280488, 14.0853662, -8.3536587, -0.0767071
0.9106445, -0.2397461, -0.5317383, -9.6951218, 13.4756098, -7.5609756, -0.0874495
0.9057617, -0.2333984, -0.5375977, -8.719512, 13.1097565, -7.3170733, -0.0944991
0.9067383, -0.2226562, -0.543457, -7.8658538, 11.9512196, -7.9878049, -0.1015488
0.9018555, -0.2119141, -0.5595703, -7.8048782, 11.4024391, -8.1097565, -0.110277
0.9082031, -0.2114258, -0.5595703, -8.9634151, 10.2439022, -8.1707315, -0.1075914
0.925293, -0.2128906, -0.5361328, -9.3292685, 9.8170738, -7.9268293, -0.1003738
0.9296875, -0.2109375, -0.5292969, -9.5121956, 8.9634151, -6.890244, -0.0924849
0.9165039, -0.203125, -0.5302734, -9.4512196, 8.9024391, -6.5853658, -0.0767071
0.9072266, -0.1987305, -0.534668, -10, 8.4756098, -5.670732, -0.0585794
0.8984375, -0.2006836, -0.5371094, -10.4878054, 7.9268293, -4.9390244, -0.0391089
0.8959961, -0.2050781, -0.5336914, -10.6707315, 6.4634147, -3.8414636, -0.0218204
0.8959961, -0.2094727, -0.5219727, -9.8170738, 4.9390244, -3.4146342, -0.0001678
0.9033203, -0.222168, -0.5200195, -9.5121956, 4.1463413, -3.4756098, 0.0193027
0.9057617, -0.2290039, -0.5224609, -8.9634151, 3.1097562, -3.2926829, 0.0359197
0.90625, -0.2421875, -0.5268555, -9.4512196, 2.6829269, -3.3536587, 0.0515297
0.9008789, -0.2412109, -0.5317383, -10.3658543, 1.5853659, -2.6829269, 0.0730144
0.8959961, -0.234375, -0.5327148, -10.9146347, 1.402439, -2.5609756, 0.0830854
0.8945312, -0.2299805, -0.5351562, -10.8536587, -0.3048781, -2.5, 0.0889601
0.9052734, -0.2363281, -0.534668, -10.7317076, -1.0365853, -2.0731707, 0.0897993
0.9155273, -0.2460938, -0.534668, -10.4268293, -2.0731707, -2.2560976, 0.0854353
0.9135742, -0.2524414, -0.550293, -10.3658543, -2.5609756, -2.0731707, 0.082414
0.9155273, -0.2480469, -0.5595703, -10, -2.6219513, -0.9146342, 0.0736858
0.9111328, -0.237793, -0.5625, -9.6341467, -3.4756098, -0.6097561, 0.0642863
0.9106445, -0.2294922, -0.5541992, -9.3902445, -4.2073174, -0.7317073, 0.0498512
0.909668, -0.2216797, -0.5517578, -9.0243902, -5, -0.3658537, 0.0345769
0.9052734, -0.1992188, -0.5400391, -9.3902445, -4.9390244, -0.3658537, 0.0193027
0.9082031, -0.1938477, -0.5327148, -10.6707315, -6.1585369, -0.2439024, 0.0065461
0.9174805, -0.2026367, -0.5268555, -11.341464, -6.8292685, -0.0609756, -0.0025177
0.918457, -0.2114258, -0.5273438, -12.9878054, -8.5975609, 0.7317073, -0.012253
0.9116211, -0.2324219, -0.5351562, -13.7195129, -8.841464, 1.402439, -0.018967
0.909668, -0.2431641, -0.5429688, -14.2682934, -10.3048782, 2.8658538, -0.0256809
0.9008789, -0.2553711, -0.5385742, -13.841464, -10.7926836, 3.1097562, -0.0317235
0.8950195, -0.2602539, -0.5258789, -12.3170738, -12.5, 2.9268293, -0.0350805
0.8964844, -0.2646484, -0.5053711, -10.8536587, -13.7195129, 1.5853659, -0.0344091
0.8867188, -0.2709961, -0.4990234, -10.1219511, -14.2073174, 1.3414634, -0.0377661
0.8764648, -0.2714844, -0.5112305, -10.060976, -15.2439032, 2.5609756, -0.0411231
0.8701172, -0.2563477, -0.5405273, -10.5487804, -16.1585369, 3.2317073, -0.0424659
0.8671875, -0.2441406, -0.5566406, -10.7317076, -18.5975609, 4.2682929, -0.0384375
0.8842773, -0.2226562, -0.5688477, -10.4268293, -20.060976, 4.6341462, -0.0384375
0.8945312, -0.2109375, -0.5634766, -10, -22.1951218, 3.9024391, -0.0344091
0.9311523, -0.2075195, -0.5336914, -9.7560978, -22.8048782, 3.5975611, -0.0327306
0.9350586, -0.2148438, -0.5249023, -10.3658543, -23.1097565, 3.4146342, -0.0381018
0.925293, -0.2192383, -0.5263672, -11.341464, -22.7439022, 4.390244, -0.0360876
0.9111328, -0.2236328, -0.5380859, -13.2317076, -23.9634151, 5.9756098, -0.0394446
0.8911133, -0.230957, -0.5639648, -14.4512196, -26.7073174, 7.3170733, -0.0466621
0.887207, -0.2280273, -0.5698242, -14.5121956, -27.8658543, 7.9878049, -0.0505226
0.8935547, -0.2255859, -0.5629883, -12.560976, -29.6341476, 8.4146347, -0.0542153
0.9067383, -0.2124023, -0.5488281, -11.5243902, -30, 8.3536587, -0.0558938
0.9111328, -0.2021484, -0.5429688, -10.6097565, -30.2439022, 8.4756098, -0.0592508
0.9277344, -0.1850586, -0.5458984, -10.8536587, -30.3658543, 8.9634151, -0.0605936
0.9282227, -0.1889648, -0.5473633, -12.7439032, -31.5243912, 9.6951218, -0.066804
0.9179688, -0.1982422, -0.5556641, -13.9024391, -32.1951218, 10.4268293, -0.0715038
0.9155273, -0.1953125, -0.5527344, -15.5487804, -33.9024391, 12.0731707, -0.0659648
0.9145508, -0.2021484, -0.5380859, -15.9146347, -34.7560997, 12.3170738, -0.0624399
0.918457, -0.2099609, -0.5297852, -16.1585369, -36.341465, 12.1951218, -0.056733
0.918457, -0.2319336, -0.5205078, -16.4634151, -37.2560997, 12.3170738, -0.0525368
0.9082031, -0.2485352, -0.5263672, -16.5243912, -37.8048782, 12.6219511, -0.0498512
0.9008789, -0.2480469, -0.5327148, -16.4024391, -38.9024391, 13.2926836, -0.0458228
0.8964844, -0.2548828, -0.5405273, -16.1585369, -39.5121956, 13.780488, -0.0411231
0.8950195, -0.2529297, -0.5493164, -14.8780489, -41.4024391, 13.5975609, -0.0407874
0.8974609, -0.2543945, -0.5576172, -14.5731707, -42.3780479, 13.4146347, -0.0337377
0.9033203, -0.25, -0.5541992, -13.4756098, -43.3536606, 13.2926836, -0.0330663
0.9174805, -0.2456055, -0.5449219, -13.3536587, -44.2073174, 13.1707315, -0.0381018
0.9228516, -0.2387695, -0.5385742, -13.1707315, -45.4878044, 12.5, -0.047837
0.9208984, -0.2294922, -0.5375977, -13.4146347, -46.4024391, 12.3170738, -0.0461585
0.9160156, -0.2290039, -0.5385742, -14.2682934, -47.1341476, 12.8658543, -0.0433051
0.90625, -0.2124023, -0.5537109, -15.9756098, -49.2073174, 13.9634151, -0.0466621
