Application:, Trigno Discover (1.6.5)
Date/Time:, 05/02/2025 10:15:17
Collection Length (seconds):, 38.5155
wrist (81457), , , , , , bicep (81139)
sensor mode: 609, , , , , , sensor mode: 40
ACC X (G), ACC Y (G), ACC Z (G), GYRO X (deg/s), GYRO Y (deg/s), GYRO Z (deg/s), EMG 1 (mV)
370.3704 Hz, 370.3704 Hz, 370.3704 Hz, 370.3704 Hz, 370.3704 Hz, 370.3704 Hz, 2148.1481 Hz
0.9174805, -0.3012695, -0.2587891, 0.3048781, -6.3414636, 2.0731707, 0.0404517
0.9257812, -0.3027344, -0.2573242, 0.9756098, -6.7073174, 1.7682927, 0.0406195
0.9350586, -0.2973633, -0.2573242, 1.7073171, -7.1951222, 1.0365853, 0.0458228
0.9375, -0.2827148, -0.2543945, 2.0731707, -7.1341467, 0.6707317, 0.0525368
0.9399414, -0.269043, -0.253418, 2.7439024, -7.5609756, 0.1219512, 0.0438087
0.9360352, -0.2475586, -0.2568359, 2.1341465, -7.5609756, 0.7926829, 0.0340734
0.9375, -0.2426758, -0.2695312, 1.2804878, -7.5609756, 1.2195122, 0.023331
0.9394531, -0.2456055, -0.2890625, -1.0365853, -7.9268293, 2.3780489, 0.0139315
0.9414062, -0.2480469, -0.2944336, -2.4390244, -8.0487804, 2.9268293, 0.0078889
0.9516602, -0.2485352, -0.2949219, -3.7804878, -8.2317076, 2.9268293, 0.002182
0.9589844, -0.2392578, -0.2910156, -3.9634147, -8.0487804, 3.2317073, -0.0068818
0.9589844, -0.2402344, -0.2915039, -4.2682929, -7.1951222, 3.7804878, -0.0135958
0.9575195, -0.2397461, -0.2905273, -5.0609756, -6.890244, 4.2682929, -0.0213169
0.9614258, -0.2456055, -0.2929688, -6.6463418, -6.7073174, 4.9390244, -0.0303807
0.9628906, -0.2548828, -0.3007812, -7.8658538, -6.890244, 5.0609756, -0.0451514
0.9550781, -0.2573242, -0.3022461, -9.6341467, -6.280488, 5.609756, -0.0626078
0.9467773, -0.2612305, -0.2963867, -10.3658543, -5.9146342, 6.1585369, -0.0760357
0.9467773, -0.2592773, -0.2905273, -9.8780489, -6.0365853, 6.280488, -0.0793927
0.9414062, -0.2524414, -0.2792969, -9.5731707, -5.4268293, 5.9146342, -0.0659648
0.9379883, -0.2509766, -0.2685547, -10.1219511, -5.1219511, 5.609756, -0.0585794
0.9316406, -0.2602539, -0.2636719, -11.5853662, -4.9390244, 5.3048782, -0.0532082
0.9194336, -0.2709961, -0.2749023, -12.0731707, -4.9390244, 5.8536587, -0.0475013
0.9125977, -0.2729492, -0.2792969, -12.4390249, -5.0609756, 6.5243902, -0.04448
0.9228516, -0.2802734, -0.2797852, -12.6219511, -5.3658538, 6.7682929, -0.0488441
0.9257812, -0.284668, -0.28125, -12.0731707, -5.9756098, 7.2560978, -0.0562295
0.9418945, -0.2905273, -0.2739258, -12.0121956, -6.1585369, 7.3780489, -0.0555581
0.9506836, -0.2983398, -0.2626953, -11.5853662, -5.2439027, 7.1951222, -0.0626078
0.9536133, -0.2954102, -0.2578125, -11.280488, -4.2682929, 6.5243902, -0.064622
0.9443359, -0.2929688, -0.2617188, -11.0975609, -4.0853658, 6.0975609, -0.0693217
0.9331055, -0.2827148, -0.277832, -10.4878054, -4.2073174, 5.9146342, -0.0760357
0.9316406, -0.2783203, -0.2861328, -10, -4.5731707, 6.280488, -0.0928206
0.940918, -0.2753906, -0.2890625, -10.4878054, -4.5731707, 7.0731707, -0.0978561
0.9462891, -0.2792969, -0.2773438, -10.9756098, -4.4512196, 7.2560978, -0.0908064
0.9541016, -0.2797852, -0.2641602, -11.4634151, -4.0243902, 6.6463418, -0.0847639
0.9541016, -0.2832031, -0.2490234, -11.9512196, -3.6585367, 6.3414636, -0.0787213
0.9467773, -0.28125, -0.2431641, -11.8292685, -3.1707318, 5.670732, -0.0686503
0.9243164, -0.2763672, -0.2470703, -11.8292685, -3.3536587, 5.609756, -0.0558938
0.9169922, -0.2709961, -0.2519531, -11.7073174, -3.8414636, 5.8536587, -0.0525368
0.9052734, -0.2661133, -0.2587891, -11.5243902, -4.2073174, 6.3414636, -0.051194
0.9106445, -0.2695312, -0.2592773, -11.9512196, -4.6341462, 6.3414636, -0.0417945
0.9213867, -0.2817383, -0.2602539, -12.8048782, -5.4268293, 6.0365853, -0.0135958
0.9306641, -0.2875977, -0.2558594, -13.2317076, -5.670732, 5.5487804, 0.0246738
0.9331055, -0.2944336, -0.2563477, -13.4146347, -6.0365853, 5.1219511, 0.0627756
0.9365234, -0.2915039, -0.2695312, -13.3536587, -6.2195125, 5.1829271, 0.0861067
0.934082, -0.2856445, -0.2773438, -12.8658543, -6.3414636, 5.4878049, 0.0783856
0.9399414, -0.2670898, -0.2841797, -12.8658543, -6.2195125, 5.9756098, 0.0569009
0.9458008, -0.2583008, -0.2890625, -13.1097565, -5.4268293, 6.5243902, 0.033402
0.953125, -0.246582, -0.2851562, -13.4146347, -5.2439027, 6.5243902, 0.01561
0.9570312, -0.246582, -0.28125, -14.6341467, -4.4512196, 6.5243902, -0.0018463
0.9609375, -0.2514648, -0.2719727, -16.3414631, -4.5121951, 6.5853658, -0.0095674
0.9609375, -0.2583008, -0.269043, -17.1341476, -4.5731707, 6.8292685, -0.0135958
0.9472656, -0.2646484, -0.2568359, -18.4756107, -4.8170733, 6.7073174, -0.0236667
0.9418945, -0.2709961, -0.2587891, -18.780489, -4.9390244, 6.890244, -0.0350805
0.9272461, -0.2861328, -0.262207, -18.8414631, -5.1219511, 7.2560978, -0.0458228
0.9311523, -0.2973633, -0.2700195, -18.5365849, -5.609756, 7.6219516, -0.0538796
0.9350586, -0.2963867, -0.2705078, -17.8048782, -5.2439027, 7.3780489, -0.0538796
0.9423828, -0.2939453, -0.2709961, -17.439024, -5.3048782, 6.7682929, -0.0464942
0.9428711, -0.296875, -0.2675781, -16.280489, -4.5731707, 6.2195125, -0.0407874
0.9482422, -0.2919922, -0.2646484, -15.7317076, -3.4756098, 5.609756, -0.0548867
0.9511719, -0.2866211, -0.262207, -15.5487804, -3.1707318, 5.609756, -0.0803998
0.9482422, -0.2744141, -0.2446289, -15, -3.2317073, 5.2439027, -0.0854353
0.9443359, -0.2705078, -0.230957, -14.6951227, -3.4146342, 4.8780489, -0.0834211
0.9404297, -0.2680664, -0.2138672, -15, -4.1463413, 3.9024391, -0.082414
0.9169922, -0.2773438, -0.2290039, -15.3048782, -4.4512196, 3.8414636, -0.0803998
0.9003906, -0.2866211, -0.2392578, -16.8292694, -5, 4.0853658, -0.073518
0.8847656, -0.3061523, -0.2431641, -17.0731716, -5.0609756, 4.5731707, -0.0602579
0.8828125, -0.3046875, -0.2358398, -15.9146347, -6.4634147, 4.390244, -0.0404517
0.8950195, -0.296875, -0.2133789, -15.3048782, -6.8292685, 4.1463413, -0.0176242
0.9101562, -0.2929688, -0.2045898, -13.2926836, -7.8048782, 3.0487804, 0.0028534
0.9326172, -0.2949219, -0.2075195, -12.6219511, -7.9268293, 1.8292683, 0.0263523
0.9345703, -0.3022461, -0.215332, -12.7439032, -7.9878049, 1.6463414, 0.0508583
0.9306641, -0.2924805, -0.2416992, -12.9268293, -8.2317076, 1.6463414, 0.0688182
0.9370117, -0.2802734, -0.2558594, -12.8658543, -8.2317076, 2.0731707, 0.0777142
0.9487305, -0.2426758, -0.2861328, -11.5243902, -8.1097565, 2.6219513, 0.0854353
0.9667969, -0.222168, -0.3041992, -11.6463413, -8.1097565, 2.9268293, 0.0881209
0.9731445, -0.2163086, -0.3022461, -13.2926836, -7.1341467, 3.2926829, 0.079057
0.9887695, -0.2182617, -0.2822266, -15, -6.6463418, 3.6585367, 0.0694896
0.9868164, -0.230957, -0.2773438, -18.1707325, -5.0609756, 3.6585367, 0.0464942
0.9663086, -0.2495117, -0.2753906, -19.0243912, -4.8170733, 3.5365853, 0.0256809
0.9526367, -0.2548828, -0.2827148, -20.3048782, -4.6341462, 4.3292685, 0.0011749
0.934082, -0.262207, -0.2783203, -20.4268303, -5.1829271, 6.0975609, -0.0117494
0.9345703, -0.2626953, -0.2714844, -20.6707325, -5.8536587, 6.2195125, -0.0109102
0.9453125, -0.2680664, -0.2612305, -20.1829281, -6.4024391, 6.5243902, -0.0206455
0.9521484, -0.2729492, -0.2558594, -20.2439022, -6.1585369, 6.4024391, -0.0391089
0.9570312, -0.2744141, -0.2543945, -19.8780499, -5.3658538, 6.0975609, -0.04448
0.9575195, -0.2729492, -0.2485352, -19.8780499, -5.4268293, 5.9756098, -0.0572366
0.956543, -0.2744141, -0.2456055, -19.2073174, -5.1829271, 5.609756, -0.0666361
0.9599609, -0.2714844, -0.25, -18.4146347, -5.2439027, 5.7926831, -0.0622721
0.9609375, -0.2714844, -0.2558594, -18.1707325, -5.7317076, 5.7317076, -0.0639506
0.9560547, -0.2734375, -0.2548828, -18.2317085, -5.670732, 5.609756, -0.0837568
0.9526367, -0.2827148, -0.2509766, -18.7195129, -5.1829271, 5.3658538, -0.0894636
0.9433594, -0.3061523, -0.2285156, -18.4756107, -5.2439027, 4.5731707, -0.0867781
0.9404297, -0.3095703, -0.2231445, -17.8048782, -5.1829271, 4.3292685, -0.0840925
0.9248047, -0.3076172, -0.2109375, -15.6097565, -5.3658538, 3.7195122, -0.0856031
0.9213867, -0.3041992, -0.2124023, -14.7560978, -5.609756, 3.1097562, -0.0800641
0.9243164, -0.3061523, -0.2216797, -13.5365858, -6.5243902, 2.0731707, -0.0632792
0.9277344, -0.3066406, -0.2290039, -13.4756098, -7.1951222, 1.402439, -0.06009
0.934082, -0.3081055, -0.2373047, -13.9024391, -8.2317076, 0.9146342, -0.0636149
0.9282227, -0.2983398, -0.2368164, -13.4146347, -8.2317076, 0.3658537, -0.0475013
0.9228516, -0.2919922, -0.2373047, -12.3780489, -7.5609756, 0.7317073, -0.0364233
0.9248047, -0.2714844, -0.2426758, -11.6463413, -7.3780489, 0.8536586, -0.0270237
0.9238281, -0.2666016, -0.2485352, -10.8536587, -7.5, 0.6097561, -0.0159457
0.9321289, -0.2661133, -0.253418, -11.7682934, -8.5365858, 0.4268293, -0.0001678
0.9326172, -0.269043, -0.2573242, -12.5, -8.5975609, 0.4268293, 0.0223239
0.9414062, -0.2724609, -0.2617188, -13.7195129, -8.5365858, 0.5487805, 0.0364233
0.9404297, -0.2636719, -0.2675781, -13.780488, -8.6585369, 0.6097561, 0.0501869
0.9414062, -0.25, -0.2714844, -13.5975609, -8.1097565, 1.3414634, 0.0518654
0.9545898, -0.2387695, -0.2661133, -13.2926836, -8.5365858, 1.6463414, 0.0562295
0.9570312, -0.2338867, -0.2607422, -13.6585369, -8.2317076, 2.0121951, 0.0555581
0.9677734, -0.2333984, -0.2641602, -13.9634151, -8.4146347, 2.195122, 0.0441444
0.9614258, -0.2373047, -0.2680664, -15.6707325, -7.7439027, 1.9512196, 0.0246738
0.9501953, -0.2587891, -0.2749023, -16.4024391, -7.5, 1.8292683, 0.0092317
0.9443359, -0.2714844, -0.2768555, -17.1341476, -7.6219516, 2.6829269, -0.0008392
0.9365234, -0.2807617, -0.2714844, -16.4024391, -7.5609756, 2.8658538, -0.0102388
0.9370117, -0.2832031, -0.2666016, -16.2195129, -7.9268293, 2.9878049, -0.0135958
0.9360352, -0.2758789, -0.2592773, -15.3048782, -7.4390244, 2.3170731, -0.0129244
0.9355469, -0.2758789, -0.2573242, -15.6097565, -7.5, 1.8902439, -0.0124208
0.9399414, -0.2709961, -0.2431641, -16.4024391, -8.1707315, 1.7073171, -0.0082246
0.9428711, -0.2700195, -0.2324219, -16.7073174, -8.2317076, 1.5243902, -0.005539
0.9404297, -0.2749023, -0.2329102, -17.2560978, -8.9634151, 1.1585366, 0.0038605
0.9458008, -0.2885742, -0.2348633, -17.0121956, -9.2682924, 0.8536586, 0.0142672
0.940918, -0.2954102, -0.237793, -16.8292694, -9.3902445, 1.097561, 0.0140993
0.9433594, -0.3037109, -0.2333984, -16.4024391, -9.6341467, 0.8536586, 0.0186313
0.9394531, -0.3095703, -0.2329102, -15.5487804, -9.7560978, 0.4878049, 0.0179599
0.934082, -0.3144531, -0.2333984, -14.4512196, -10.1219511, 0, 0.0063783
0.9321289, -0.3081055, -0.230957, -13.5365858, -10.1829271, -0.4268293, -0.0072175
0.925293, -0.2832031, -0.2353516, -12.560976, -10.7926836, -1.402439, -0.0152743
0.9248047, -0.2783203, -0.2387695, -12.4390249, -11.0975609, -1.8902439, -0.0236667
0.925293, -0.2817383, -0.2539062, -13.0487804, -11.5853662, -2.0731707, -0.0270237
0.9257812, -0.2773438, -0.269043, -13.2317076, -11.4634151, -1.8292683, -0.0238346
0.9306641, -0.269043, -0.2773438, -13.5975609, -10.7926836, -1.5243902, -0.024506
0.9350586, -0.2529297, -0.2924805, -13.1707315, -10.4878054, -1.5243902, -0.0216526
0.9384766, -0.2446289, -0.2988281, -13.4146347, -9.6951218, -1.4634147, -0.0216526
0.9550781, -0.2324219, -0.2910156, -13.3536587, -9.0853662, -1.2804878, -0.0176242
0.9643555, -0.2402344, -0.2788086, -14.2073174, -8.1707315, -1.2804878, -0.0129244
0.9780273, -0.25, -0.2407227, -14.8170738, -6.9512196, -1.5853659, -0.0213169
0.9780273, -0.2543945, -0.2207031, -14.8780489, -6.0975609, -1.5243902, -0.0283665
0.9643555, -0.2587891, -0.1879883, -13.5975609, -5.3658538, -1.6463414, -0.0305486
0.956543, -0.2568359, -0.1826172, -12.4390249, -5.3048782, -1.4634147, -0.0287022
0.9262695, -0.2333984, -0.184082, -10.060976, -5.670732, -1.0365853, -0.0276951
0.9145508, -0.2138672, -0.199707, -9.6951218, -6.0975609, -0.6097561, -0.0270237
0.9077148, -0.2167969, -0.2177734, -10.6707315, -6.7682929, 0.3658537, -0.0198062
0.902832, -0.230957, -0.2460938, -11.8292685, -7.2560978, 0.7926829, -0.0142672
0.9086914, -0.2412109, -0.2514648, -14.5731707, -7.6219516, 1.4634147, -0.018967
0.9257812, -0.2597656, -0.2548828, -15.5487804, -7.6829271, 1.1585366, -0.0142672
0.9301758, -0.2705078, -0.246582, -15.060976, -7.8048782, 0.5487805, -0.018967
0.9477539, -0.2753906, -0.2280273, -13.1097565, -7.2560978, -0.0609756, -0.0297093
0.9560547, -0.2797852, -0.222168, -12.2560978, -7.2560978, -0.1219512, -0.0297093
0.9638672, -0.2885742, -0.2255859, -12.1341467, -6.5853658, -0.4268293, -0.0397803
0.9580078, -0.2861328, -0.2246094, -12.3170738, -6.0975609, -0.4878049, -0.0552224
0.9335938, -0.2636719, -0.2226562, -12.0121956, -5.670732, -0.3658537, -0.0639506
0.909668, -0.2226562, -0.2021484, -11.7682934, -5.9146342, 0.1829268, -0.0683146
0.9038086, -0.2089844, -0.1992188, -11.341464, -6.7073174, 0.8536586, -0.0757
0.9018555, -0.2026367, -0.2041016, -11.4024391, -7.5, 0.9146342, -0.082414
0.9091797, -0.2124023, -0.215332, -13.2926836, -8.9024391, 0.6097561, -0.111284
0.9072266, -0.2607422, -0.2211914, -15, -9.5731707, 0.5487805, -0.1619745
0.9116211, -0.2763672, -0.2211914, -16.3414631, -10.4878054, 0.0609756, -0.1868162
0.9111328, -0.2910156, -0.2021484, -14.7560978, -10.4268293, 0.4878049, -0.1895018
0.9082031, -0.2856445, -0.1967773, -13.3536587, -10.3658543, 0.5487805, -0.1817807
0.9130859, -0.2612305, -0.2045898, -10.3048782, -10.5487804, 0.4878049, -0.1619745
0.9121094, -0.25, -0.2192383, -9.9390249, -10.4268293, 0.3658537, -0.1366293
0.9125977, -0.2412109, -0.2719727, -11.4634151, -11.4024391, 0.3048781, -0.1119554
0.9233398, -0.2285156, -0.2919922, -13.0487804, -11.7682934, 0.3658537, -0.0787213
0.9277344, -0.230957, -0.2841797, -15.3048782, -11.8902445, 0.7926829, -0.0243381
0.9516602, -0.2387695, -0.2597656, -15.6707325, -11.280488, 0.6707317, 0.0370947
0.9589844, -0.2421875, -0.2504883, -14.9390249, -10.1219511, 0.8536586, 0.0837568
0.9658203, -0.2485352, -0.2353516, -14.5121956, -9.5121956, 0.9756098, 0.0978561
0.9604492, -0.2446289, -0.2338867, -13.7195129, -8.3536587, 1.097561, 0.1005417
0.949707, -0.2475586, -0.2299805, -14.0243902, -7.9268293, 1.0365853, 0.0971847
0.9438477, -0.2460938, -0.2333984, -14.3292685, -8.1097565, 1.2804878, 0.0941634
0.9331055, -0.2543945, -0.2485352, -14.8170738, -8.4146347, 0.8536586, 0.0955062
0.9301758, -0.2573242, -0.2563477, -15.1829271, -8.5975609, 0.9756098, 0.0924849
0.9345703, -0.2597656, -0.2612305, -16.0365849, -8.719512, 0.8536586, 0.0867781
0.9458008, -0.2597656, -0.2446289, -15.9756098, -8.5975609, 1.1585366, 0.0762036
0.9506836, -0.2583008, -0.2407227, -14.6341467, -8.4146347, 0.6707317, 0.0642863
0.9633789, -0.2700195, -0.2456055, -13.5975609, -8.0487804, 0.1829268, 0.0461585
0.9658203, -0.2797852, -0.2504883, -13.2317076, -7.8658538, -0.3048781, 0.0407874
0.9677734, -0.3051758, -0.2553711, -13.3536587, -7.8048782, -0.6097561, 0.0397803
0.9643555, -0.3081055, -0.2504883, -13.0487804, -7.0121951, -0.8536586, 0.0307164
0.9482422, -0.293457, -0.2446289, -11.4024391, -5.3658538, -1.1585366, 0.023331
0.9453125, -0.2807617, -0.2426758, -10.060976, -4.8170733, -1.097561, 0.0172885
0.9350586, -0.2602539, -0.25, -8.4146347, -4.8780489, -1.3414634, 0.0065461
0.9345703, -0.2524414, -0.2587891, -8.3536587, -5.3048782, -1.6463414, -0.0001678
0.9443359, -0.2583008, -0.2680664, -10.1219511, -5.670732, -1.8902439, 0.0001678
0.9453125, -0.2631836, -0.2485352, -11.4634151, -5.9756098, -1.8292683, 0.002182
0.9418945, -0.2612305, -0.2363281, -12.2560978, -5.2439027, -1.8292683, -0.0095674
0.9277344, -0.2436523, -0.2075195, -11.7682934, -4.5121951, -1.6463414, -0.0260166
0.9213867, -0.2387695, -0.2119141, -10.060976, -3.9024391, -1.8292683, -0.0404517
0.918457, -0.2373047, -0.2329102, -9.6951218, -4.3292685, -1.5243902, -0.0558938
0.9165039, -0.2416992, -0.2480469, -10.6097565, -5.3658538, -1.8292683, -0.0746929
0.921875, -0.2602539, -0.2719727, -12.6829271, -5.9146342, -2.0731707, -0.0847639
0.9243164, -0.2661133, -0.269043, -13.4146347, -5.4878049, -1.7682927, -0.0941634
0.9277344, -0.2573242, -0.25, -13.2926836, -4.4512196, -1.5853659, -0.1025559
0.9311523, -0.2460938, -0.2387695, -12.3170738, -3.7195122, -1.4634147, -0.1250477
0.9418945, -0.2265625, -0.237793, -10.7317076, -3.1707318, -1.8292683, -0.1373007
0.9511719, -0.2373047, -0.2509766, -10.9756098, -3.3536587, -1.7682927, -0.1337758
0.9506836, -0.2470703, -0.2612305, -13.2317076, -3.2317073, -1.5853659, -0.1169909
0.9482422, -0.2631836, -0.2636719, -14.3292685, -3.2926829, -1.402439, -0.0995346
0.9492188, -0.2666016, -0.2578125, -14.6951227, -2.9878049, -0.7926829, -0.0837568
0.9477539, -0.2695312, -0.2495117, -13.780488, -2.804878, -0.7317073, -0.0770428
0.953125, -0.2646484, -0.246582, -12.4390249, -2.2560976, -0.8536586, -0.0558938
0.9545898, -0.2602539, -0.2587891, -12.2560978, -2.2560976, -0.9146342, -0.0287022
0.9511719, -0.2573242, -0.2641602, -12.7439032, -2.195122, -0.7926829, -0.0035248
0.9526367, -0.2583008, -0.2802734, -14.5121956, -2.3780489, -0.7926829, 0.0219883
0.9516602, -0.2597656, -0.2739258, -15.2439032, -2.2560976, -0.8536586, 0.043473
0.956543, -0.2568359, -0.2602539, -15.9146347, -1.8902439, -0.1829268, 0.0585794
0.9594727, -0.2490234, -0.2495117, -15.4878054, -1.8902439, -0.0609756, 0.068986
0.9619141, -0.2480469, -0.2509766, -15.2439032, -1.2804878, 0, 0.0758679
0.9584961, -0.25, -0.2578125, -15.1829271, -0.8536586, -0.1829268, 0.0746929
0.9545898, -0.2543945, -0.2597656, -15.9756098, -1.3414634, -0.0609756, 0.0676432
0.9526367, -0.2636719, -0.2700195, -16.6463413, -1.097561, 0.2439024, 0.0582437
0.953125, -0.2680664, -0.2670898, -17.0121956, -1.0365853, 0.1219512, 0.0466621
0.9541016, -0.2783203, -0.2558594, -16.7682934, -0.6097561, 0.4268293, 0.0354162
0.9501953, -0.2836914, -0.2509766, -15.9146347, -0.1829268, -0.1219512, 0.0318914
0.9438477, -0.2890625, -0.2456055, -15.4878054, 0.3658537, -0.3658537, 0.0273594
0.9384766, -0.2900391, -0.2475586, -15.4878054, 0.7317073, -0.6097561, 0.0159457
0.925293, -0.2714844, -0.2460938, -15.1829271, 1.4634147, -0.4268293, 0.0045319
0.9243164, -0.2294922, -0.2436523, -14.8780489, 1.8292683, -0.5487805, -0.0025177
0.9291992, -0.2167969, -0.2460938, -14.0243902, 1.8902439, -0.6097561, -0.0099031
0.9453125, -0.2124023, -0.2558594, -13.9024391, 1.5243902, -0.5487805, -0.0196384
0.9555664, -0.2285156, -0.2636719, -15.3048782, 0.8536586, -0.7317073, -0.0325628
0.9707031, -0.2773438, -0.2548828, -16.6463413, 1.1585366, -0.3658537, -0.0370947
0.972168, -0.2954102, -0.2426758, -18.2317085, 2.1341465, -0.0609756, -0.040116
0.9619141, -0.3027344, -0.2163086, -16.1585369, 3.5365853, -0.4268293, -0.0565652
0.9487305, -0.2919922, -0.2075195, -14.1463413, 3.9024391, -0.7317073, -0.0936599
0.9262695, -0.2626953, -0.2236328, -10.3048782, 3.2926829, -0.6707317, -0.1334401
0.9272461, -0.2485352, -0.2402344, -9.8780489, 2.6829269, -0.7926829, -0.1505608
0.9365234, -0.2475586, -0.2729492, -12.1341467, 1.2804878, -0.3048781, -0.1512322
0.9487305, -0.2597656, -0.262207, -13.7195129, 0.6707317, -0.3658537, -0.1295796
0.9619141, -0.262207, -0.2426758, -16.0365849, 1.4634147, 0.2439024, -0.0995346
0.9589844, -0.2514648, -0.215332, -16.1585369, 1.8292683, 0.3048781, -0.0636149
0.9570312, -0.2456055, -0.2124023, -14.3902445, 2.5609756, 0.1219512, -0.0206455
0.9584961, -0.2294922, -0.2280273, -13.2926836, 1.7073171, 0.4268293, 0.0186313
0.9619141, -0.2319336, -0.2407227, -14.0853662, 0.8536586, 0.4268293, 0.0555581
0.9638672, -0.2412109, -0.2573242, -16.7682934, 0, 0.9756098, 0.0800641
0.9677734, -0.2470703, -0.2592773, -18.1097565, 0.4268293, 1.5853659, 0.0810712
0.9584961, -0.2456055, -0.2509766, -18.7195129, 1.0365853, 2.2560976, 0.0428016
0.9584961, -0.2402344, -0.2421875, -18.3536587, 1.3414634, 2.2560976, -0.0075532
0.9633789, -0.2324219, -0.2314453, -16.5853653, 1.5243902, 2.3780489, -0.047837
0.9711914, -0.2495117, -0.2358398, -16.4024391, 1.4634147, 2.3170731, -0.0849317
0.9755859, -0.2587891, -0.2407227, -17.6219521, 0.9756098, 2.4390244, -0.1008774
0.9741211, -0.2675781, -0.2373047, -18.5365849, 1.0365853, 2.3780489, -0.096849
0.9702148, -0.2646484, -0.2348633, -19.4512196, 1.8902439, 2.804878, -0.0785534
0.9545898, -0.2446289, -0.2348633, -18.7195129, 2.3780489, 3.2317073, -0.04448
0.9526367, -0.2363281, -0.2426758, -18.5365849, 2.2560976, 3.3536587, 0.0001678
0.9580078, -0.2231445, -0.2504883, -17.9878044, 2.2560976, 3.5365853, 0.0433051
0.9599609, -0.2231445, -0.2543945, -18.4146347, 1.9512196, 3.4756098, 0.0807355
0.9750977, -0.2338867, -0.2719727, -19.6341476, 2.7439024, 3.7195122, 0.103563
0.9750977, -0.2446289, -0.2817383, -19.8780499, 3.2926829, 4.2073174, 0.1045701
0.9711914, -0.2407227, -0.2714844, -19.5731716, 4.390244, 5.3048782, 0.0881209
0.9760742, -0.2363281, -0.2436523, -18.2926826, 5, 5.9146342, 0.051194
0.980957, -0.2304688, -0.2333984, -16.6463413, 6.4634147, 6.4024391, 0.0109102
0.9726562, -0.2285156, -0.2246094, -16.4024391, 6.7073174, 6.1585369, -0.0135958
0.9628906, -0.2329102, -0.2285156, -16.8292694, 7.6829271, 5.7926831, -0.008896
0.9482422, -0.2480469, -0.2426758, -17.8048782, 6.9512196, 6.280488, 0.0206455
0.9394531, -0.2553711, -0.2504883, -17.9878044, 6.280488, 6.5243902, 0.0558938
0.9394531, -0.2792969, -0.2578125, -17.1341476, 5.2439027, 7.2560978, 0.0621042
0.9443359, -0.2856445, -0.2548828, -16.5243912, 5.0609756, 7.5, 0.0562295
0.9570312, -0.2910156, -0.2392578, -15, 6.1585369, 7.1951222, 0.0347448
0.9663086, -0.2905273, -0.2241211, -14.1463413, 6.3414636, 6.9512196, 0.0129244
0.9628906, -0.2885742, -0.2148438, -12.9268293, 6.4634147, 6.280488, 0.0005035
0.9609375, -0.2714844, -0.2207031, -12.4390249, 6.4634147, 5.9146342, -0.008896
0.9541016, -0.2646484, -0.2412109, -12.6219511, 5.670732, 5.9146342, -0.0223239
0.9331055, -0.2514648, -0.2905273, -13.2926836, 5.5487804, 6.4634147, -0.040116
0.9228516, -0.2475586, -0.3100586, -14.3292685, 5.1219511, 8.0487804, -0.06009
0.9257812, -0.2285156, -0.2978516, -14.8170738, 5.4878049, 9.6951218, -0.0686503
0.9326172, -0.21875, -0.2822266, -14.6341467, 5.9146342, 10.4878054, -0.0696574
0.9594727, -0.2011719, -0.246582, -14.4512196, 7.0731707, 11.341464, -0.0710002
0.965332, -0.1953125, -0.2324219, -14.8780489, 7.6219516, 11.0365858, -0.0710002
0.9667969, -0.2094727, -0.2211914, -16.5243912, 8.5975609, 10.6097565, -0.0639506
0.9663086, -0.2470703, -0.2075195, -17.9268303, 8.2926826, 10.6707315, -0.0622721
0.9624023, -0.2651367, -0.1987305, -19.6341476, 7.3780489, 10.9756098, -0.0553902
0.9560547, -0.2895508, -0.1850586, -19.8170738, 6.8292685, 11.0975609, -0.0558938
0.9545898, -0.2973633, -0.1757812, -18.7195129, 6.6463418, 11.1585369, -0.0582437
0.9443359, -0.2949219, -0.1533203, -17.439024, 6.8292685, 11.1585369, -0.0599222
0.9394531, -0.2924805, -0.1420898, -15.3048782, 7.1341467, 10.3048782, -0.0616007
0.9335938, -0.2773438, -0.1323242, -14.8170738, 7.0731707, 9.2073174, -0.0683146
0.9213867, -0.2729492, -0.1430664, -15.2439032, 6.4634147, 8.3536587, -0.0908064
0.8984375, -0.2866211, -0.1782227, -16.8902435, 4.7560978, 7.4390244, -0.1055772
0.8916016, -0.2993164, -0.1962891, -18.1707325, 3.8414636, 7.3780489, -0.1263905
0.8920898, -0.3286133, -0.2089844, -18.5365849, 1.3414634, 7.2560978, -0.1440146
0.9228516, -0.3491211, -0.1992188, -18.1097565, 0.3658537, 7.4390244, -0.1656672
0.9355469, -0.3544922, -0.1894531, -15.7317076, 0.3048781, 6.4634147, -0.1821164
0.9599609, -0.3491211, -0.1801758, -14.3902445, 0.7926829, 5.609756, -0.1754025
0.9624023, -0.3408203, -0.1845703, -12.9268293, 2.0731707, 3.8414636, -0.1683528
0.9550781, -0.3183594, -0.2104492, -12.8048782, 2.5, 3.2926829, -0.1639887
0.9541016, -0.2958984, -0.2211914, -12.7439032, 2.1341465, 2.5609756, -0.1586175
0.9541016, -0.2558594, -0.2260742, -13.2926836, 1.7073171, 3.3536587, -0.1218585
0.9589844, -0.2392578, -0.2216797, -13.1707315, 1.7073171, 3.7804878, -0.0817426
0.9775391, -0.2246094, -0.2163086, -14.0853662, 1.9512196, 4.3292685, -0.0391089
0.9799805, -0.2294922, -0.2148438, -15.1219511, 2.0731707, 4.2682929, 0.0119173
0.9741211, -0.2241211, -0.2041016, -17.560976, 2.9878049, 4.0853658, 0.0562295
0.9472656, -0.21875, -0.1875, -18.7195129, 3.2317073, 4.2682929, 0.1015488
0.9335938, -0.2192383, -0.1791992, -20.3048782, 2.9878049, 5, 0.1292439
0.9116211, -0.234375, -0.1777344, -20.8536587, 2.5609756, 5.7317076, 0.1290761
0.9072266, -0.2519531, -0.1870117, -22.1951218, 1.402439, 6.6463418, 0.1270619
0.9052734, -0.2880859, -0.1982422, -22.8048782, 0.4268293, 6.890244, 0.1139696
0.9082031, -0.2973633, -0.1987305, -23.2317085, -0.7926829, 6.6463418, 0.0965133
0.9243164, -0.3071289, -0.1713867, -21.7682934, -1.1585366, 6.280488, 0.079057
0.9311523, -0.3041992, -0.1635742, -20.4878044, -0.9146342, 5.609756, 0.0569009
0.9467773, -0.296875, -0.1713867, -18.2926826, 0.1219512, 4.6951222, 0.0508583
0.9453125, -0.293457, -0.1884766, -18.5365849, -0.0609756, 4.1463413, 0.0558938
0.9360352, -0.2910156, -0.2182617, -18.6585369, 0.0609756, 4.0853658, 0.0562295
0.9433594, -0.2788086, -0.2060547, -18.780489, -0.4268293, 4.6341462, 0.0580758
0.9482422, -0.2612305, -0.1860352, -18.2317085, -0.4878049, 5.0609756, 0.0639506
0.9472656, -0.2324219, -0.1582031, -17.3780499, -0.5487805, 5.1829271, 0.0582437
0.9418945, -0.2250977, -0.1601562, -16.8292694, 0.0609756, 5.1829271, 0.0441444
0.9418945, -0.2475586, -0.1879883, -17.560976, -0.1219512, 5.5487804, 0.030045
0.9365234, -0.2666016, -0.1992188, -20.3658543, -1.9512196, 5.4878049, 0.0172885
0.9355469, -0.3046875, -0.2070312, -22.8658543, -3.4756098, 6.0975609, 0.0085603
0.940918, -0.315918, -0.1972656, -22.8048782, -3.5975611, 5.9756098, -0.0015106
0.9414062, -0.315918, -0.1738281, -20, -3.2317073, 6.0975609, -0.024506
0.9433594, -0.3027344, -0.1650391, -18.0487804, -2.7439024, 5.9756098, -0.0364233
0.9536133, -0.2749023, -0.1669922, -15.6707325, -2.195122, 5.4878049, -0.0431373
0.9633789, -0.2563477, -0.184082, -15.5487804, -2.3780489, 5.3658538, -0.0448157
0.9609375, -0.2587891, -0.1875, -18.1097565, -3.2317073, 4.4512196, -0.0397803
0.953125, -0.2836914, -0.1791992, -19.7560978, -3.6585367, 4.2073174, -0.0404517
0.9536133, -0.2944336, -0.1655273, -21.1585369, -5, 4.2073174, -0.0397803
0.953125, -0.3139648, -0.152832, -20.5487804, -5.2439027, 4.1463413, -0.0438087
0.9448242, -0.3217773, -0.1635742, -18.5365849, -5.670732, 3.9024391, -0.0438087
0.9331055, -0.3115234, -0.1899414, -16.7682934, -5.9756098, 3.8414636, -0.0417945
0.9301758, -0.3012695, -0.2080078, -16.6463413, -5.9756098, 3.9024391, -0.0411231
0.9262695, -0.2919922, -0.2197266, -17.560976, -6.1585369, 3.9024391, -0.0391089
0.9262695, -0.2758789, -0.2104492, -18.1097565, -6.0975609, 4.0853658, -0.04448
0.9375, -0.2441406, -0.1728516, -18.9634151, -5.9756098, 3.7804878, -0.057908
0.940918, -0.237793, -0.1572266, -19.2682934, -6.280488, 3.6585367, -0.068986
0.9462891, -0.2509766, -0.1645508, -20.1829281, -7.0121951, 3.2926829, -0.0676432
0.9492188, -0.2768555, -0.184082, -21.4634151, -7.6829271, 3.3536587, -0.0669718
0.9521484, -0.2895508, -0.1904297, -23.0487804, -8.841464, 3.5975611, -0.061265
0.9575195, -0.2998047, -0.1884766, -23.2317085, -9.2073174, 3.9024391, -0.0515297
0.9609375, -0.2988281, -0.1870117, -21.280489, -9.2682924, 4.390244, -0.0391089
0.9667969, -0.2890625, -0.1743164, -18.7195129, -8.2926826, 4.0853658, -0.0337377
0.96875, -0.2871094, -0.1787109, -18.3536587, -7.8658538, 3.8414636, -0.0229953
0.96875, -0.2841797, -0.1938477, -18.5975609, -7.5609756, 3.2926829, -0.0213169
0.9609375, -0.2773438, -0.2080078, -19.3902435, -7.3780489, 2.9878049, -0.0213169
0.9423828, -0.2675781, -0.2353516, -20.3658543, -8.1707315, 3.4756098, -0.0256809
0.9389648, -0.2583008, -0.237793, -20.5487804, -8.0487804, 4.0243902, -0.0298772
0.9458008, -0.2543945, -0.2314453, -19.7560978, -7.7439027, 5.7317076, -0.0297093
0.965332, -0.2460938, -0.2006836, -19.3292694, -7.0731707, 5.9756098, -0.0387732
0.972168, -0.2456055, -0.1865234, -19.3902435, -5.5487804, 5.609756, -0.0491798
0.9692383, -0.253418, -0.1791992, -20.1829281, -5.2439027, 5.609756, -0.0491798
0.9628906, -0.2631836, -0.1879883, -21.1585369, -5.3658538, 5.4268293, -0.0518654
0.9462891, -0.2783203, -0.2143555, -21.8292694, -6.3414636, 5.9756098, -0.0506905
0.940918, -0.2822266, -0.2211914, -22.0121956, -7.0121951, 6.5243902, -0.0417945
0.9521484, -0.2939453, -0.2226562, -21.1585369, -7.1341467, 7.0731707, -0.0374304
0.9599609, -0.3007812, -0.2148438, -20.6097565, -6.6463418, 6.9512196, -0.0297093
0.9667969, -0.3081055, -0.1879883, -20, -6.1585369, 5.7926831, -0.0287022
0.9619141, -0.3134766, -0.1665039, -19.8780499, -6.280488, 5.1219511, -0.0216526
0.9506836, -0.3120117, -0.1577148, -20.3658543, -7.2560978, 4.6341462, -0.018967
0.9311523, -0.3115234, -0.1586914, -20.3658543, -7.9878049, 4.4512196, -0.0229953
0.9208984, -0.3100586, -0.1557617, -20.6097565, -9.8170738, 4.3292685, -0.0203098
0.9223633, -0.3012695, -0.1533203, -20.4878044, -11.0975609, 4.0853658, -0.0176242
0.9291992, -0.2983398, -0.1552734, -20.4878044, -13.3536587, 4.6341462, -0.0130922
0.9506836, -0.2998047, -0.1572266, -20.5487804, -14.1463413, 3.9634147, -0.008896
0.9584961, -0.2998047, -0.1577148, -20.7926826, -14.6951227, 3.2926829, -0.0095674
0.980957, -0.3120117, -0.1601562, -20.5487804, -15.4878054, 2.1341465, -0.0075532
0.9824219, -0.3208008, -0.1645508, -20.060976, -15.9756098, 1.6463414, 0.0005035
0.9853516, -0.3300781, -0.1713867, -19.2682934, -16.1585369, 1.097561, -0.0001678
0.9765625, -0.3295898, -0.1943359, -18.8414631, -16.4634151, 0.7926829, 0.0031891
0.9619141, -0.3227539, -0.215332, -18.7195129, -16.280489, 0.3048781, -0.0011749
0.9516602, -0.3041992, -0.2368164, -18.4146347, -16.280489, 0.1219512, -0.0072175
0.9526367, -0.2983398, -0.2397461, -18.6585369, -16.6463413, 0.0609756, -0.011078
0.9560547, -0.2866211, -0.234375, -18.2926826, -16.8292694, -0.3048781, -0.0172885
0.9692383, -0.2915039, -0.2299805, -18.5365849, -17.0731716, -0.6097561, -0.0169528
0.9780273, -0.3100586, -0.2319336, -19.0243912, -16.2195129, -1.097561, -0.0236667
0.9780273, -0.3139648, -0.2485352, -19.3292694, -15.6707325, -1.4634147, -0.0260166
0.9580078, -0.3125, -0.2836914, -19.6341476, -15.060976, -1.3414634, -0.0263523
0.9492188, -0.3037109, -0.2939453, -19.3292694, -14.4512196, -0.6097561, -0.021149
0.9536133, -0.2744141, -0.2910156, -17.8658543, -14.0243902, 1.4634147, -0.0179599
0.9736328, -0.2441406, -0.2661133, -17.560976, -13.2317076, 2.1341465, -0.0176242
0.9794922, -0.2329102, -0.2543945, -18.1097565, -11.6463413, 2.1341465, -0.01561
0.9838867, -0.2133789, -0.2578125, -19.0853672, -11.0365858, 1.7682927, -0.014435
0.9829102, -0.2167969, -0.2705078, -22.6829281, -11.0975609, 1.9512196, -0.0176242
0.9775391, -0.2480469, -0.2749023, -24.6951218, -12.2560978, 2.5, -0.0149386
0.9794922, -0.2631836, -0.2670898, -27.3780499, -13.9024391, 4.3292685, -0.018967
0.9765625, -0.2905273, -0.2167969, -28.2926826, -14.1463413, 5.609756, -0.0209812
0.9775391, -0.2939453, -0.1889648, -27.8658543, -13.780488, 5.5487804, -0.0250095
0.9506836, -0.2919922, -0.1547852, -27.0121956, -13.7195129, 5.609756, -0.0246738
0.9306641, -0.2827148, -0.1503906, -26.8292694, -14.6951227, 5.4268293, -0.0303807
0.8984375, -0.2768555, -0.1635742, -27.2560978, -18.2926826, 5.670732, -0.0276951
0.8925781, -0.2792969, -0.1879883, -27.8048782, -20.5487804, 6.1585369, -0.0283665
0.8979492, -0.2802734, -0.1972656, -28.841465, -24.3292694, 6.890244, -0.0243381
0.9296875, -0.2817383, -0.1977539, -29.0853672, -25.7926826, 7.1341467, -0.0290379
0.9458008, -0.2871094, -0.1918945, -29.3902454, -27.1951218, 6.8292685, -0.0391089
0.9624023, -0.3007812, -0.1831055, -29.2073174, -27.3170738, 6.280488, -0.0592508
0.9628906, -0.3027344, -0.1777344, -28.3536587, -27.9878063, 6.0365853, -0.0770428
0.9545898, -0.3168945, -0.1762695, -27.8048782, -29.1463413, 5.7926831, -0.0827497
0.9506836, -0.3222656, -0.1860352, -27.3170738, -30, 5.9146342, -0.0669718
0.940918, -0.3286133, -0.2133789, -26.280489, -31.4634151, 5, -0.0297093
0.9331055, -0.3320312, -0.234375, -25.8536587, -32.0731697, 4.5731707, 0.0132601
0.9272461, -0.340332, -0.2788086, -25.1219521, -33.1097565, 4.1463413, 0.0327306
0.9453125, -0.3339844, -0.3076172, -25.2439022, -33.2317085, 4.2073174, 0.023331
0.9555664, -0.3276367, -0.3178711, -23.6585369, -32.7439041, 4.2682929, 0.0045319
0.9765625, -0.3046875, -0.331543, -23.4756107, -32.1951218, 3.8414636, -0.0203098
0.9794922, -0.2900391, -0.3378906, -23.1707325, -30.4878063, 3.9024391, -0.0365911
0.9794922, -0.2695312, -0.3447266, -23.780489, -29.6341476, 3.9024391, -0.0565652
0.9799805, -0.2651367, -0.3481445, -26.1585369, -28.6585369, 5.2439027, -0.0956741
0.9741211, -0.253418, -0.3369141, -28.0487804, -28.1097565, 6.7682929, -0.1223621
0.96875, -0.2548828, -0.3271484, -28.5975609, -28.1097565, 7.7439027, -0.13579
0.9663086, -0.2548828, -0.3183594, -29.3292694, -27.0731716, 8.6585369, -0.1542535
0.9643555, -0.2563477, -0.3164062, -29.3902454, -26.7073174, 9.0853662, -0.1465324
0.9560547, -0.2680664, -0.3286133, -29.6951218, -26.4024391, 9.5731707, -0.1216907
0.9633789, -0.2783203, -0.3427734, -30.060976, -26.1585369, 10.060976, -0.0909743
0.9663086, -0.2817383, -0.3515625, -31.0975609, -25.9756107, 11.0365858, -0.0500191
0.9750977, -0.2856445, -0.3486328, -31.9512196, -25.3658543, 11.280488, -0.0129244
0.984375, -0.2851562, -0.3330078, -32.7439041, -23.9634151, 12.0731707, 0.0179599
0.9829102, -0.2734375, -0.2958984, -33.1707306, -23.6585369, 11.7682934, 0.0505226
0.9760742, -0.2607422, -0.2714844, -34.2073174, -23.4146347, 11.6463413, 0.0757
0.9555664, -0.2578125, -0.2451172, -35.3048782, -24.5731716, 11.7073174, 0.0882887
0.9414062, -0.2651367, -0.2490234, -36.1585388, -26.0365868, 12.0731707, 0.0971847
0.9135742, -0.2978516, -0.2709961, -38.7804871, -29.4512196, 13.1707315, 0.0911421
0.9033203, -0.3178711, -0.2841797, -39.5731735, -30.9756107, 13.4146347, 0.0501869
0.9018555, -0.3623047, -0.2890625, -39.5121956, -33.4756088, 13.7195129, 0.0011749
0.9169922, -0.3842773, -0.2768555, -38.6585388, -34.2073174, 13.5975609, -0.0246738
0.9194336, -0.3828125, -0.269043, -35.9146347, -35, 12.3780489, -0.04448
0.9140625, -0.3735352, -0.2646484, -34.6341476, -35.3048782, 11.7682934, -0.0659648
0.909668, -0.3569336, -0.2680664, -33.5365868, -37.1951218, 11.1585369, -0.0632792
0.9023438, -0.3232422, -0.2905273, -33.9024391, -39.5121956, 11.4024391, -0.0451514
0.9023438, -0.3095703, -0.3139648, -34.5121956, -41.1585388, 11.8292685, -0.0125887
0.9121094, -0.2944336, -0.3798828, -36.5853653, -43.9024391, 12.8658543, 0.036759
0.9238281, -0.300293, -0.4052734, -38.1707344, -44.7560997, 13.780488, 0.0750286
0.9536133, -0.3095703, -0.4121094, -40.1219521, -44.9390259, 15.060976, 0.1038987
0.9824219, -0.3129883, -0.3686523, -40.4268303, -44.1463432, 15.8536587, 0.1206836
0.987793, -0.3061523, -0.3505859, -40.3658562, -42.6829262, 16.5243912, 0.1190051
0.9785156, -0.2871094, -0.3232422, -39.9390259, -42.1341476, 16.2195129, 0.111284
0.9643555, -0.2797852, -0.3232422, -40.0609779, -42.9268303, 16.0365849, 0.0944991
0.9306641, -0.2910156, -0.3549805, -40.7926826, -44.2073174, 15.9146347, 0.0829175
0.9204102, -0.3007812, -0.3725586, -42.8048782, -47.0121956, 16.7073174, 0.0696574
0.9125977, -0.3339844, -0.3808594, -44.4512215, -49.2682953, 17.1951218, 0.0488441
0.9199219, -0.3510742, -0.3754883, -44.0853653, -49.6951218, 17.0731716, 0.0256809
0.934082, -0.371582, -0.347168, -42.7439041, -49.6341476, 16.6463413, 0.0102388
0.9414062, -0.3769531, -0.3354492, -41.8902435, -49.3902435, 16.0975609, -0.0001678
0.9399414, -0.3740234, -0.3295898, -40.2439041, -50.0609779, 15, -0.0035248
0.9365234, -0.3598633, -0.3276367, -39.6341476, -50.6707344, 14.3292685, -0.0062104
0.9326172, -0.3549805, -0.3310547, -39.2682953, -51.7682953, 13.5975609, -0.0045319
0.9301758, -0.3374023, -0.3481445, -39.3292694, -52.9878044, 13.2317076, -0.0062104
0.9233398, -0.3334961, -0.3608398, -40.1829262, -54.3902435, 12.6219511, -0.0152743
0.9296875, -0.3349609, -0.3935547, -40.4878044, -54.6951218, 12.3170738, -0.0288701
0.9379883, -0.3422852, -0.4033203, -41.0975609, -55.9756126, 11.9512196, -0.0394446
0.9560547, -0.3608398, -0.3925781, -41.4024391, -56.6463432, 11.5853662, -0.04448
0.9619141, -0.3701172, -0.378418, -41.2195129, -56.5243912, 10.8536587, -0.047837
0.9750977, -0.3764648, -0.3510742, -40.4878044, -56.4024391, 8.9634151, -0.0542153
0.9677734, -0.3837891, -0.3413086, -40.0609779, -56.8292694, 7.9268293, -0.0619364
0.9511719, -0.3955078, -0.3442383, -38.7195129, -58.2926826, 6.9512196, -0.0639506
0.9291992, -0.3920898, -0.3549805, -37.3170738, -59.4512215, 6.4024391, -0.0575723
0.921875, -0.3823242, -0.362793, -34.9390259, -61.2195129, 6.5853658, -0.0485084
0.9189453, -0.3657227, -0.3754883, -33.841465, -61.7073174, 6.1585369, -0.0464942
0.9262695, -0.359375, -0.378418, -32.0121956, -62.4390259, 5.609756, -0.0693217
0.9404297, -0.3618164, -0.3881836, -31.4634151, -62.8658562, 5.3658538, -0.0908064
0.9458008, -0.3613281, -0.4086914, -31.5853672, -64.0243912, 4.390244, -0.10692
0.9311523, -0.3530273, -0.4838867, -33.3536606, -64.3292694, 4.5121951, -0.1169909
0.921875, -0.3457031, -0.5224609, -33.7195129, -63.9024391, 5.609756, -0.1272297
0.9331055, -0.3041992, -0.5458984, -33.841465, -63.1097565, 9.1463413, -0.1285725
0.9526367, -0.2817383, -0.5361328, -33.4146347, -62.0121956, 10.9146347, -0.1243763
0.9907227, -0.2558594, -0.5039062, -33.841465, -59.5731735, 12.1341467, -0.103563
0.9926758, -0.2714844, -0.5078125, -35.6097565, -58.4756126, 11.6463413, -0.0647898
0.9697266, -0.2871094, -0.519043, -40.3048782, -57.1951218, 11.6463413, -0.0236667
0.9179688, -0.293457, -0.5302734, -41.7073174, -57.5609779, 12.3780489, -0.0001678
0.9023438, -0.2924805, -0.5195312, -41.0975609, -57.0731735, 15.8536587, -0.0036927
0.8994141, -0.2768555, -0.4785156, -39.8780479, -56.4024391, 17.6829281, -0.0246738
0.9101562, -0.2646484, -0.4658203, -37.1951218, -54.3292694, 19.939024, -0.030045
0.9238281, -0.2705078, -0.4614258, -38.7804871, -53.1097565, 19.8170738, -0.0223239
0.925293, -0.2797852, -0.4716797, -40.6707344, -54.0243912, 19.6951218, -0.0209812
0.9160156, -0.2949219, -0.4814453, -44.2073174, -56.5853653, 19.7560978, -0.0162814
0.918457, -0.3081055, -0.4819336, -45.0609779, -57.6219521, 19.939024, -0.0166171
0.9331055, -0.3085938, -0.4833984, -45.0609779, -58.2317085, 21.1585369, -0.0119173
0.9521484, -0.3115234, -0.4799805, -44.6951218, -58.4146347, 21.7682934, 0.0052033
0.9584961, -0.3173828, -0.4780273, -44.6341476, -58.5365868, 22.3780499, 0.0226596
0.9604492, -0.340332, -0.4628906, -44.8170738, -58.5975609, 22.3780499, 0.040116
0.9555664, -0.3618164, -0.4492188, -46.6463432, -59.6951218, 22.1341476, 0.0585794
0.9326172, -0.3857422, -0.4145508, -47.0731735, -60.3658562, 21.7073174, 0.0710002
0.9160156, -0.3955078, -0.3911133, -46.4024391, -62.4390259, 20.4878044, 0.079057
0.8813477, -0.4082031, -0.3740234, -43.9634171, -65.0609741, 19.5121956, 0.0726787
0.8662109, -0.4160156, -0.3847656, -43.0487823, -66.7073212, 18.9024391, 0.0616007
0.8427734, -0.4140625, -0.4130859, -41.0365868, -70, 18.1707325, 0.0488441
0.8417969, -0.4116211, -0.4238281, -40.6097565, -71.7073212, 18.1097565, 0.0357519
0.8657227, -0.3979492, -0.4155273, -38.841465, -75.1219559, 17.0731716, 0.0112459
0.9013672, -0.3901367, -0.3999023, -38.1097565, -76.3414688, 16.3414631, -0.0102388
0.9155273, -0.3901367, -0.394043, -35.9146347, -78.4756088, 14.1463413, -0.0256809
0.9272461, -0.4018555, -0.3964844, -34.9390259, -79.9390259, 13.1097565, -0.0332341
0.9321289, -0.4101562, -0.3916016, -33.2926826, -83.2317123, 10.7926836, -0.0412909
0.918457, -0.4262695, -0.3857422, -32.5, -85.2439041, 9.8780489, -0.0508583
0.9067383, -0.4350586, -0.394043, -30.5487804, -88.5975647, 7.6829271, -0.0525368
0.8710938, -0.4248047, -0.4536133, -27.4390259, -90.4268341, 6.4634147, -0.0558938
0.8520508, -0.409668, -0.5039062, -25.7926826, -90.9146347, 6.3414636, -0.0619364
0.8261719, -0.3540039, -0.6132812, -23.8414631, -91.7073212, 8.780488, -0.0706645
0.8320312, -0.3193359, -0.6679688, -24.0853672, -91.4634171, 10.5487804, -0.0780499
0.8725586, -0.2480469, -0.753418, -27.1951218, -89.0853653, 14.6341467, -0.0733501
0.9394531, -0.1884766, -0.7597656, -29.3902454, -87.4390259, 16.5243912, -0.0726787
0.9711914, -0.171875, -0.7290039, -33.841465, -83.7195129, 19.6341476, -0.0721752
1.0371094, -0.1552734, -0.6367188, -35.9146347, -81.9512177, 20.060976, -0.0767071
1.0449219, -0.1733398, -0.5922852, -39.7560997, -79.8780518, 20.1219521, -0.0914778
1.0141602, -0.2353516, -0.5449219, -41.9512215, -79.8170776, 19.5121956, -0.1022202
0.9838867, -0.2734375, -0.5498047, -45.4268303, -81.4634171, 19.7560978, -0.0847639
0.9160156, -0.3427734, -0.5888672, -47.2560997, -84.5731735, 22.0121956, -0.0404517
0.8852539, -0.3701172, -0.609375, -47.0731735, -85.8536606, 23.3536587, 0.0182956
0.8574219, -0.3881836, -0.6289062, -45, -86.2804871, 26.6463413, 0.0639506
0.8588867, -0.3764648, -0.6166992, -43.7195129, -85.6707306, 28.1097565, 0.0840925
0.8847656, -0.3017578, -0.5913086, -41.8292694, -82.6219559, 30.060976, 0.0830854
0.909668, -0.2197266, -0.5742188, -41.8902435, -81.4634171, 30.5487804, 0.066804
0.9208984, -0.1943359, -0.5703125, -43.5365868, -81.8292694, 30.6097565, 0.0475013
0.940918, -0.190918, -0.5664062, -45.5487823, -82.8048782, 30.4268303, 0.0320592
0.9477539, -0.2089844, -0.5737305, -51.4024391, -86.2195129, 31.341465, 0.0213169
0.9404297, -0.2675781, -0.6005859, -53.9634171, -87.68293, 31.341465, 0.0060426
0.9282227, -0.3066406, -0.6157227, -57.3170738, -89.3292694, 31.6463413, 0.0011749
0.9067383, -0.3710938, -0.6293945, -57.4390259, -90.7317123, 31.0365868, -0.0062104
0.902832, -0.3989258, -0.621582, -56.4634171, -90.9756088, 30.5487804, -0.0142672
0.8920898, -0.4272461, -0.5766602, -53.7195129, -90.18293, 29.9390259, -0.0194705
0.8862305, -0.4296875, -0.5532227, -52.3170738, -89.6951218, 29.8780499, -0.0203098
0.8652344, -0.421875, -0.5439453, -50.2439041, -89.8170776, 28.841465, -0.0236667
0.8427734, -0.4145508, -0.5820312, -49.3292694, -90.6097565, 28.3536587, -0.0246738
0.8374023, -0.4042969, -0.6054688, -47.2560997, -93.6585388, 28.1097565, -0.0313878
0.8457031, -0.3852539, -0.6279297, -46.0975609, -95, 28.4146347, -0.0323949
0.8618164, -0.3793945, -0.6323242, -45.0609779, -95.9756088, 28.780489, -0.0354162
0.8950195, -0.3652344, -0.6181641, -44.7560997, -96.0975647, 28.841465, -0.0384375
0.9042969, -0.3608398, -0.6147461, -44.6341476, -95.0609741, 28.780489, -0.0399481
0.9042969, -0.3623047, -0.6298828, -44.2073174, -95.3048782, 28.4756107, -0.0448157
0.9018555, -0.3603516, -0.6386719, -44.1463432, -96.2195129, 28.6585369, -0.0458228
0.8984375, -0.3535156, -0.6494141, -43.3536606, -97.2561035, 28.2926826, -0.0417945
0.8955078, -0.3476562, -0.6474609, -43.2926826, -97.5, 28.1707325, -0.0565652
0.8916016, -0.3378906, -0.6542969, -43.2317085, -96.9512253, 27.7439022, -0.082414
0.871582, -0.3354492, -0.684082, -43.4146347, -96.5853653, 27.3780499, -0.0948348
0.8583984, -0.3413086, -0.7089844, -44.0853653, -96.4634171, 28.1097565, -0.0951705
0.840332, -0.3369141, -0.7514648, -44.0243912, -96.5853653, 28.9024391, -0.0944991
0.8417969, -0.3354492, -0.7583008, -43.4756126, -96.4634171, 31.341465, -0.0904707
0.862793, -0.3222656, -0.7207031, -43.7195129, -96.0365906, 32.7439041, -0.0881209
0.8779297, -0.3212891, -0.6904297, -43.9024391, -94.6341476, 34.2073174, -0.0834211
0.8969727, -0.3242188, -0.6386719, -45.3658562, -93.5975647, 34.2682953, -0.0683146
0.8891602, -0.3291016, -0.6289062, -46.4634171, -94.6341476, 33.6585388, -0.0558938
0.8564453, -0.3286133, -0.6347656, -47.0121956, -97.2561035, 33.3536606, -0.0428016
0.8393555, -0.3217773, -0.6391602, -46.8902435, -99.3902435, 33.3536606, -0.0369268
0.8291016, -0.2978516, -0.6538086, -45.8536606, -102.3780518, 34.6951218, -0.0246738
0.8359375, -0.2783203, -0.6713867, -45.7926826, -103.3536606, 35.3658562, -0.0095674
0.840332, -0.2841797, -0.6777344, -47.1951218, -104.146347, 36.0975609, 0.0008392
0.8476562, -0.3164062, -0.6958008, -48.5975609, -104.8780518, 36.341465, -0.0015106
0.8515625, -0.3349609, -0.7026367, -51.5243912, -106.4634171, 36.341465, -0.0045319
0.8603516, -0.3691406, -0.6933594, -52.6219521, -107.6219559, 36.0975609, 0.0048676
0.8623047, -0.3862305, -0.6816406, -53.3536606, -109.3902435, 35.1829262, 0.0099031
0.8461914, -0.409668, -0.6586914, -52.8048782, -110.7317123, 34.4512215, 0.0105745
0.8295898, -0.4165039, -0.6513672, -51.7682953, -111.0365906, 34.0853653, 0.0099031
0.7875977, -0.4106445, -0.6767578, -48.9634171, -111.9512253, 34.3292694, 0.0132601
0.7695312, -0.3964844, -0.7070312, -47.1951218, -112.86586, 34.5121956, 0.01561
0.7568359, -0.3652344, -0.7646484, -44.5121956, -114.2682953, 35.4268303, 0.0219883
0.7919922, -0.3525391, -0.7924805, -44.2073174, -115.2439041, 35.6707344, 0.0216526
0.8203125, -0.3579102, -0.7822266, -45.3658562, -115.5487823, 36.2804871, 0.0078889
0.8583984, -0.3759766, -0.7548828, -46.7073174, -114.8780518, 36.0975609, -0.0219883
0.8657227, -0.3779297, -0.7446289, -47.8048782, -113.9634171, 35.4268303, -0.0505226
0.8564453, -0.3798828, -0.7436523, -47.3170738, -113.9024429, 34.9390259, -0.0663005
0.8432617, -0.3813477, -0.7524414, -45.3048782, -115.18293, 34.1463432, -0.0767071
0.824707, -0.3774414, -0.7607422, -43.7804871, -117.2561035, 34.1463432, -0.0817426
0.8134766, -0.3798828, -0.7636719, -43.5975609, -117.5, 34.3292694, -0.0795605
0.7983398, -0.3881836, -0.7626953, -43.7195129, -117.2561035, 35.0609779, -0.0706645
0.7885742, -0.3857422, -0.7705078, -43.3536606, -116.8292694, 35.5487823, -0.0527047
0.7763672, -0.3862305, -0.7998047, -42.3170738, -117.0731735, 35, -0.0297093
0.78125, -0.3833008, -0.8286133, -41.8902435, -117.7439041, 34.8170738, -0.0135958
0.7871094, -0.3833008, -0.8413086, -41.8292694, -118.2317123, 35.2439041, 0.0072175
0.8071289, -0.3833008, -0.8525391, -41.8902435, -118.1097565, 35.2439041, 0.0206455
0.8149414, -0.3798828, -0.8520508, -42.1341476, -116.0365906, 35.7317085, 0.0203098
0.8295898, -0.3544922, -0.8364258, -42.0731735, -114.9390259, 35.9756088, 0.0223239
0.8305664, -0.3305664, -0.8310547, -42.0121956, -112.0121994, 36.1585388, 0.0146029
0.8203125, -0.2875977, -0.8164062, -41.8902435, -110.4268341, 35.6097565, 0.002182
0.8125, -0.2802734, -0.8144531, -42.8658562, -110.7317123, 35.3658562, -0.0030213
0.7763672, -0.2998047, -0.8198242, -45.2439041, -111.0365906, 35.6097565, -0.0095674
0.7612305, -0.3237305, -0.8305664, -46.0365868, -111.4024429, 36.0365868, -0.01561
0.7324219, -0.3735352, -0.8461914, -46.8292694, -112.5609818, 37.1951218, -0.0199741
0.7304688, -0.40625, -0.8447266, -46.341465, -112.9878082, 37.4390259, -0.036759
0.7382812, -0.4086914, -0.8334961, -43.5365868, -112.7439041, 38.1707344, -0.0686503
0.7670898, -0.3979492, -0.8144531, -41.8292694, -112.0121994, 38.2317085, -0.1042344
0.7729492, -0.3916016, -0.8022461, -39.2073174, -110.1219559, 36.7682953, -0.1237049
0.7602539, -0.3862305, -0.7900391, -38.4756088, -110.18293, 36.1585388, -0.1317617
0.7504883, -0.3852539, -0.7890625, -38.3536606, -110.8536606, 34.9390259, -0.1448539
0.7192383, -0.3740234, -0.8022461, -37.9878044, -113.1097565, 34.0853653, -0.1505608
0.7070312, -0.3696289, -0.8149414, -37.7439041, -114.3902435, 34.0853653, -0.1320974
0.6904297, -0.3608398, -0.8417969, -36.1585388, -116.3414688, 33.7195129, -0.109102
0.6923828, -0.3632812, -0.8461914, -35.6707344, -117.0731735, 34.1463432, -0.0797284
0.703125, -0.3735352, -0.8388672, -35.4268303, -116.9512253, 34.5731697, -0.0441444
0.7182617, -0.3837891, -0.8144531, -35.0609779, -117.4390259, 34.7560997, -0.0129244
0.7114258, -0.3867188, -0.8105469, -33.2926826, -118.0487823, 34.5121956, 0.0199741
0.7080078, -0.3657227, -0.8193359, -32.3170738, -118.5975647, 34.4512215, 0.043473
0.6992188, -0.3569336, -0.8276367, -32.3170738, -117.5, 35.3048782, 0.0683146
0.6806641, -0.3300781, -0.840332, -32.4390259, -116.2195129, 35.3048782, 0.0810712
0.6704102, -0.3217773, -0.8442383, -32.7439041, -116.4024429, 35.3658562, 0.0867781
0.6577148, -0.3193359, -0.8510742, -33.1097565, -117.5, 35.2439041, 0.0850996
0.6567383, -0.3217773, -0.8642578, -33.3536606, -117.86586, 35.2439041, 0.0716716
0.6503906, -0.3227539, -0.8969727, -34.1463432, -118.5365906, 36.341465, 0.0580758
0.6513672, -0.3237305, -0.9086914, -34.5121956, -119.0243912, 37.0731697, 0.0464942
0.6679688, -0.3364258, -0.9189453, -35, -119.5121994, 38.5365868, 0.0394446
0.6904297, -0.3603516, -0.918457, -34.8170738, -119.6341476, 38.841465, 0.030045
0.6928711, -0.3867188, -0.909668, -34.3902435, -117.9268341, 38.9634171, 0.0270237
0.6875, -0.4189453, -0.8847656, -34.0243912, -117.1951218, 38.9634171, 0.0199741
0.6796875, -0.4150391, -0.8847656, -32.6829262, -115.8536606, 38.7804871, 0.0125887
0.6523438, -0.3774414, -0.9267578, -30.4268303, -115.6097565, 37.7439041, 0.0052033
0.6376953, -0.3549805, -0.9487305, -29.5121956, -116.1585388, 37.6219521, -0.002182
0.6367188, -0.3115234, -0.9672852, -29.6951218, -116.4024429, 37.4390259, -0.0085603
0.6479492, -0.3046875, -0.9506836, -30.6707325, -116.4024429, 37.3780479, -0.0142672
0.6674805, -0.3076172, -0.8901367, -34.2073174, -114.0243912, 37.0731697, -0.0166171
0.6499023, -0.3354492, -0.8676758, -36.2804871, -113.0487823, 36.4634171, -0.018967
0.6303711, -0.3427734, -0.8833008, -37.3780479, -113.9024429, 36.1585388, -0.0270237
0.5917969, -0.3432617, -0.9370117, -37.6219521, -115.4878082, 36.4024391, -0.0350805
0.5878906, -0.3422852, -0.9560547, -37.4390259, -118.0487823, 37.8048782, -0.0354162
0.6196289, -0.3310547, -0.9501953, -37.3780479, -117.5609818, 38.2317085, -0.0290379
0.6333008, -0.3256836, -0.9301758, -39.2682953, -113.4756088, 38.2317085, -0.0253452
0.6293945, -0.3256836, -0.8730469, -41.1585388, -111.3414688, 36.0975609, -0.0344091
0.6098633, -0.3344727, -0.8486328, -41.9512215, -111.5243912, 34.8780479, -0.0527047
0.5488281, -0.3588867, -0.8408203, -42.6219521, -114.5121994, 33.5975609, -0.0605936
0.5185547, -0.3725586, -0.8598633, -42.6219521, -116.4634171, 33.9024391, -0.0726787
0.4765625, -0.3881836, -0.9140625, -40.3048782, -120.6707382, 35.0609779, -0.0988632
0.496582, -0.3969727, -0.9614258, -39.2682953, -121.9512253, 35.4878044, -0.1196765
0.5219727, -0.4038086, -0.9702148, -38.9024391, -121.8292694, 37.1341476, -0.1559319
0.5839844, -0.4018555, -0.9545898, -38.9024391, -120.5487823, 37.1951218, -0.233814
0.6098633, -0.3994141, -0.9404297, -39.2073174, -117.86586, 36.4024391, -0.2798047
0.625, -0.3901367, -0.9165039, -38.841465, -117.5, 34.8170738, -0.2915541
0.6132812, -0.3876953, -0.909668, -37.1341476, -117.68293, 32.6219521, -0.2952468
0.5776367, -0.3916016, -0.8862305, -34.3902435, -119.5121994, 31.6463413, -0.2623484
0.5683594, -0.3969727, -0.8813477, -33.0487823, -120.18293, 31.280489, -0.1844663
0.5351562, -0.3969727, -0.9243164, -31.2195129, -120.6707382, 30.6097565, -0.0844282
0.5180664, -0.3891602, -0.9648438, -30.3658543, -121.5243912, 30.7317085, 0.0226596
0.5, -0.3681641, -1.027832, -29.2073174, -123.2317123, 31.2195129, 0.1132982
0.5307617, -0.3442383, -1.0307617, -29.3292694, -123.6585388, 31.341465, 0.1770809
0.5615234, -0.3447266, -1.0126953, -30.7926846, -122.4390259, 31.4024391, 0.2145113
0.5961914, -0.3588867, -0.9677734, -32.0121956, -121.3414688, 31.0365868, 0.2324712
0.5947266, -0.3686523, -0.9609375, -34.1463432, -120.3048782, 30.7317085, 0.2381781
0.5722656, -0.3623047, -0.9833984, -34.0243912, -120.8536606, 30.7317085, 0.2321355
0.559082, -0.359375, -0.9975586, -32.5609779, -123.1097565, 31.341465, 0.2106508
0.5424805, -0.3452148, -0.9887695, -30.1829281, -123.5975647, 31.8292694, 0.1824521
0.5395508, -0.3432617, -0.9658203, -29.7560978, -122.5609818, 31.8292694, 0.1527428
0.5141602, -0.3378906, -0.9384766, -30.1829281, -119.7561035, 31.1585369, 0.1173266
0.4882812, -0.3359375, -0.9414062, -30.060976, -119.5731735, 30.2439022, 0.082414
0.4350586, -0.3105469, -0.9975586, -30, -122.6219559, 30.1219521, 0.047837
0.4282227, -0.2871094, -1.0654297, -30.060976, -124.7561035, 30.9756107, 0.027863
0.4516602, -0.2832031, -1.0888672, -32.0731697, -128.3536682, 33.5365868, 0.0132601
0.5200195, -0.3066406, -1.0766602, -34.1463432, -128.0487823, 35.1219521, 0.0011749
0.5512695, -0.3222656, -1.0483398, -37.6829262, -124.9390259, 37.1341476, -0.002182
0.5839844, -0.3378906, -0.987793, -38.5975609, -122.3780518, 37.3170738, -0.0085603
0.5727539, -0.3417969, -0.9790039, -37.9268303, -118.9024429, 35.9146347, -0.0162814
0.5175781, -0.3496094, -0.9804688, -35.6097565, -118.8414688, 35.1829262, -0.0293736
0.4863281, -0.3598633, -0.980957, -34.0853653, -119.3902435, 35.6097565, -0.0421302
0.4404297, -0.3774414, -0.9541016, -31.7682934, -119.8170776, 36.4634171, -0.0464942
0.4243164, -0.3935547, -0.9326172, -31.0365868, -119.5121994, 36.9512215, -0.0488441
0.3969727, -0.4033203, -0.918457, -29.0243912, -117.8048782, 36.341465, -0.0513619
0.3583984, -0.3706055, -0.9946289, -28.4146347, -117.1341476, 35.9756088, -0.051194
0.3452148, -0.3344727, -1.0371094, -27.560976, -118.5975647, 35.1829262, -0.047837
0.3730469, -0.2529297, -1.0859375, -27.560976, -119.9390259, 34.8780479, -0.0475013
0.4047852, -0.2324219, -1.0810547, -30.5487804, -121.0365906, 35, -0.0438087
0.4775391, -0.2412109, -1.015625, -33.2926826, -119.8780518, 35.3658562, -0.0387732
0.4921875, -0.2626953, -0.9736328, -38.6585388, -116.2804871, 35.8536606, -0.0372625
0.4648438, -0.331543, -0.9228516, -39.3292694, -115.0609818, 35.7926826, -0.0297093
0.4301758, -0.3569336, -0.9204102, -37.6219521, -115.9146347, 35.6707344, -0.0283665
0.3505859, -0.3793945, -0.9492188, -32.0121956, -119.0243912, 35.7317085, -0.0313878
0.3212891, -0.3789062, -0.9755859, -30.1219521, -120.0609818, 35.6707344, -0.0317235
0.2919922, -0.3676758, -1.0141602, -28.7195129, -120.9146347, 36.0975609, -0.0298772
0.3168945, -0.3442383, -1.019043, -29.6341476, -120.4878082, 35.7317085, -0.0313878
0.3325195, -0.3359375, -1.0092773, -32.3170738, -119.8780518, 33.9024391, -0.0337377
0.3535156, -0.3398438, -0.987793, -33.6585388, -120.4878082, 32.8658562, -0.0357519
0.3569336, -0.3447266, -0.9833984, -35.3048782, -122.2561035, 31.7682934, -0.0391089
0.3671875, -0.371582, -0.9868164, -34.8780479, -123.3536606, 31.5243912, -0.0364233
0.3666992, -0.3808594, -0.9970703, -32.8658562, -124.7561035, 31.8902454, -0.0337377
0.3588867, -0.3881836, -1.0424805, -30.9146347, -123.9024429, 32.0121956, -0.0357519
0.3579102, -0.390625, -1.0595703, -30.060976, -123.1097565, 31.8292694, -0.0318914
0.3657227, -0.371582, -1.043457, -29.0853672, -121.0365906, 30.6097565, -0.0297093
0.3774414, -0.3583984, -1.0048828, -29.2682934, -120, 29.5121956, -0.0297093
0.3510742, -0.3364258, -0.9404297, -30, -117.4390259, 26.7682934, -0.0236667
0.2797852, -0.3125, -0.9604492, -30.3658543, -117.4390259, 25.7317085, -0.0292058
0.2402344, -0.2954102, -0.9926758, -29.8170738, -120.7926865, 25.6097565, -0.0337377
0.2192383, -0.2695312, -1.0483398, -29.6341476, -123.7804871, 26.5243912, -0.033402
0.2373047, -0.2680664, -1.0595703, -29.0853672, -127.1341476, 29.2682934, -0.0317235
0.2983398, -0.2773438, -1.0390625, -30, -126.7682953, 30.4268303, -0.0303807
0.3129883, -0.2880859, -1.0297852, -32.3170738, -123.5975647, 31.8292694, -0.0317235
0.324707, -0.3164062, -1.0273438, -32.5609779, -122.3170776, 33.1097565, -0.0313878
0.3217773, -0.3164062, -1.0341797, -31.5853672, -123.0487823, 33.6585388, -0.0313878
0.3066406, -0.2978516, -1.0327148, -29.0243912, -123.7804871, 34.0853653, -0.0330663
0.3017578, -0.2861328, -1.0239258, -28.3536587, -123.1707382, 33.9024391, -0.030045
0.2836914, -0.2832031, -1.0058594, -28.9634151, -121.646347, 34.0243912, -0.0310521
0.2504883, -0.3105469, -0.996582, -29.3292694, -121.5243912, 34.4512215, -0.033402
0.2333984, -0.3286133, -1.0004883, -30.3658543, -123.4146347, 35.8536606, -0.0344091
0.215332, -0.3500977, -1.0141602, -29.7560978, -124.7561035, 36.7073174, -0.0339055
0.2114258, -0.3603516, -1.0205078, -27.1951218, -125.7926865, 38.2926826, -0.0340734
0.2133789, -0.3569336, -1.0537109, -25.4878063, -125.6097565, 38.4146347, -0.0313878
0.2202148, -0.3491211, -1.0834961, -23.6585369, -123.5975647, 38.7804871, -0.0330663
0.2451172, -0.3173828, -1.1254883, -24.6951218, -122.86586, 39.6951218, -0.0344091
0.2612305, -0.2890625, -1.1245117, -25.2439022, -122.6219559, 39.4512215, -0.0381018
0.3027344, -0.2412109, -1.074707, -27.9268303, -120.1219559, 38.3536606, -0.0344091
0.3041992, -0.2387695, -1.0405273, -29.3902454, -118.3536606, 37.5, -0.0310521
0.2519531, -0.2675781, -0.9824219, -31.4024391, -116.5243912, 37.2560997, -0.0293736
0.1855469, -0.3364258, -0.9560547, -31.5243912, -117.6219559, 38.4146347, -0.0307164
0.1611328, -0.3671875, -0.9482422, -29.8780499, -121.3414688, 40.2439041, -0.0290379
0.128418, -0.4067383, -0.9785156, -28.6585369, -122.7439041, 40.3658562, -0.024506
0.1132812, -0.4047852, -1.0083008, -26.1585369, -123.7195129, 39.5121956, -0.0229953
0.112793, -0.3618164, -1.0478516, -25.4268303, -123.7195129, 38.7804871, -0.0223239
0.1259766, -0.3266602, -1.0483398, -24.5121956, -124.7561035, 36.7682953, -0.0193027
0.1713867, -0.2749023, -1.0117188, -25.6707325, -124.0853653, 35.1219521, -0.0182956
0.1879883, -0.2646484, -0.9873047, -27.0121956, -123.5975647, 34.5121956, -0.0263523
0.1879883, -0.277832, -0.9492188, -29.8170738, -123.4756088, 34.5121956, -0.0283665
0.175293, -0.293457, -0.9443359, -30.3658543, -123.9634171, 34.2073174, -0.0270237
0.1079102, -0.3232422, -0.9892578, -29.6341476, -126.2195129, 34.7560997, -0.0261845
0.0698242, -0.331543, -1.0649414, -28.5975609, -127.3780518, 35.3658562, -0.0283665
0.0737305, -0.3305664, -1.097168, -26.4634151, -129.0243988, 36.5243912, -0.0271916
0.1220703, -0.3217773, -1.1259766, -26.1585369, -128.9024353, 36.7073174, -0.0236667
0.1542969, -0.3149414, -1.1137695, -28.4756107, -126.8902435, 36.6463432, -0.0216526
0.1987305, -0.3027344, -1.0795898, -30.1219521, -125.6707382, 36.0365868, -0.0223239
0.206543, -0.2924805, -1.0668945, -32.0121956, -123.1707382, 34.5731697, -0.0236667
0.1777344, -0.2617188, -1.0756836, -32.0731697, -121.8902435, 33.4756088, -0.0243381
0.152832, -0.2573242, -1.0942383, -31.4024391, -121.5853653, 33.4756088, -0.0243381
0.1225586, -0.2763672, -1.1435547, -31.1585369, -121.2804871, 35.3048782, -0.0256809
0.1298828, -0.3017578, -1.152832, -32.0121956, -121.4024429, 36.6463432, -0.0310521
0.1660156, -0.3481445, -1.144043, -32.6829262, -119.6341476, 38.4146347, -0.0323949
0.1904297, -0.3813477, -1.1123047, -32.4390259, -117.9878082, 38.0487823, -0.0292058
0.1811523, -0.3842773, -1.0952148, -29.8780499, -113.1097565, 36.5853653, -0.0256809
0.1430664, -0.3505859, -1.0722656, -28.2926826, -110.7317123, 35.4268303, -0.0270237
0.1152344, -0.3203125, -1.0683594, -25.5487804, -107.7439041, 33.0487823, -0.0283665
0.0712891, -0.2709961, -1.0615234, -25.3048782, -107.68293, 31.7682934, -0.0250095
0.0551758, -0.2568359, -1.0576172, -26.5853672, -108.5365906, 31.280489, -0.0236667
0.0410156, -0.2583008, -1.0629883, -28.841465, -109.7561035, 31.7682934, -0.0216526
0.0410156, -0.2719727, -1.0771484, -29.8780499, -110.1219559, 32.3780479, -0.0186313
0.0395508, -0.3295898, -1.0966797, -30.4268303, -110.4878082, 34.0243912, -0.0125887
0.050293, -0.3598633, -1.1015625, -29.8170738, -109.9390259, 35.3048782, -0.0172885
0.0834961, -0.3823242, -1.0678711, -27.560976, -107.3780518, 36.341465, -0.0206455
0.1005859, -0.3295898, -1, -26.0365868, -104.9390259, 35.2439041, -0.0226596
0.0961914, -0.2954102, -0.9628906, -24.4512196, -101.0365906, 30.8536587, -0.0206455
0.0229492, -0.2524414, -0.909668, -24.5121956, -100.0609818, 28.0487804, -0.018967
-0.0327148, -0.2490234, -0.902832, -26.6463413, -102.68293, 25.6707325, -0.0229953
-0.1401367, -0.2758789, -0.9311523, -27.8048782, -105.3048782, 26.4634151, -0.0260166
-0.1728516, -0.2978516, -0.9609375, -27.9268303, -110.4268341, 29.8170738, -0.0337377
-0.1772461, -0.3173828, -1.03125, -24.2073174, -113.7804871, 33.0487823, -0.0438087
-0.1450195, -0.3227539, -1.0488281, -22.5, -114.8780518, 33.6585388, -0.0421302
-0.0454102, -0.3203125, -1.046875, -20.4878044, -114.0853653, 33.841465, -0.0391089
0.0039062, -0.3154297, -1.0288086, -20.6707325, -112.9268341, 33.2926826, -0.0360876
0.0600586, -0.2958984, -0.9755859, -21.4024391, -110.0609818, 31.0365868, -0.0297093
0.0541992, -0.2675781, -0.8950195, -21.9512196, -108.8414688, 29.6951218, -0.0226596
0.019043, -0.2436523, -0.8642578, -21.9512196, -107.3780518, 26.5853672, -0.0179599
-0.0844727, -0.1899414, -0.9038086, -21.7682934, -107.3170776, 25.1829281, -0.0125887
-0.1469727, -0.1748047, -0.9589844, -22.560976, -109.3292694, 25.4878063, -0.0095674
-0.2075195, -0.1948242, -1.0605469, -23.1707325, -111.646347, 27.3170738, -0.0062104
-0.1884766, -0.2119141, -1.0932617, -25.6097565, -116.5243912, 32.8048782, -0.0068818
-0.0996094, -0.2617188, -1.1069336, -27.4390259, -117.0731735, 35.0609779, -0.0095674
-0.046875, -0.2817383, -1.1005859, -27.6219521, -115.5487823, 35.4268303, -0.0125887
0.0405273, -0.3051758, -1.0488281, -26.8292694, -110.3048782, 33.7195129, -0.0191348
0.0576172, -0.3022461, -1.0244141, -26.2195129, -107.68293, 32.3780479, -0.0193027
0.0356445, -0.2792969, -1.0058594, -25.7317085, -103.7195129, 28.9634151, -0.0219883
-0.0395508, -0.2524414, -1.0117188, -25.7317085, -103.0487823, 27.4390259, -0.0283665
-0.0834961, -0.2470703, -1.0219727, -26.5243912, -103.7195129, 26.280489, -0.0283665
-0.1479492, -0.2407227, -1.046875, -26.9512196, -104.2073212, 26.7073174, -0.0256809
-0.1582031, -0.2353516, -1.0537109, -27.5, -104.7561035, 27.6219521, -0.0263523
-0.1547852, -0.2246094, -1.0439453, -27.4390259, -104.3292694, 28.0487804, -0.024506
-0.1430664, -0.2177734, -1.0170898, -27.9268303, -102.7439041, 27.6219521, -0.0256809
-0.1225586, -0.2050781, -0.9501953, -29.8780499, -100.8536606, 26.1585369, -0.0270237
-0.1259766, -0.2109375, -0.9262695, -31.1585369, -99.8780518, 25.4878063, -0.0273594
-0.1606445, -0.2348633, -0.9399414, -34.2682953, -100.6097565, 24.6951218, -0.026688
-0.1875, -0.2519531, -0.9672852, -35.0609779, -102.4390259, 25.4878063, -0.0307164
-0.2045898, -0.2797852, -0.9990234, -33.4146347, -107.0731735, 27.2560978, -0.0303807
-0.1645508, -0.2866211, -0.9536133, -31.7073174, -108.0487823, 27.6219521, -0.0290379
-0.1435547, -0.265625, -0.9111328, -29.3902454, -104.146347, 25.1219521, -0.0263523
-0.152832, -0.2246094, -0.8300781, -29.3292694, -100.8536606, 22.9878063, -0.023331
-0.1870117, -0.2148438, -0.8081055, -31.6463413, -97.6219559, 19.2073174, -0.024506
-0.293457, -0.2045898, -0.796875, -32.9268303, -98.7804871, 18.2926826, -0.0246738
-0.3413086, -0.2036133, -0.8125, -34.6951218, -105.4268341, 18.7195129, -0.0223239
-0.4067383, -0.2109375, -0.8916016, -33.7195129, -112.5, 22.6829281, -0.0224918
-0.4106445, -0.2167969, -0.9438477, -32.3780479, -115, 24.8170738, -0.0276951
-0.3339844, -0.2285156, -1.0136719, -30.6707325, -118.1707382, 28.7195129, -0.0337377
-0.269043, -0.2265625, -1.0283203, -30.4878063, -117.86586, 29.4512196, -0.0409552
-0.1484375, -0.2363281, -1.0327148, -31.2195129, -114.9390259, 28.2926826, -0.0391089
-0.0791016, -0.2602539, -1.0039062, -31.4634151, -113.2926865, 27.8048782, -0.0421302
-0.0664062, -0.2675781, -0.9633789, -31.341465, -110.2439041, 26.8902454, -0.0431373
-0.0942383, -0.2456055, -0.9003906, -30.6097565, -107.9878082, 25.7317085, -0.0501869
-0.1513672, -0.2177734, -0.9067383, -28.780489, -102.7439041, 23.2317085, -0.0532082
-0.2978516, -0.1611328, -1.0039062, -28.1097565, -101.4634171, 23.1097565, -0.0364233
-0.3496094, -0.1518555, -1.0605469, -28.1097565, -104.2682953, 26.4024391, -0.0290379
-0.3369141, -0.1621094, -1.1181641, -30.5487804, -109.2073212, 31.4024391, -0.0213169
-0.2807617, -0.1738281, -1.1220703, -32.5, -109.7561035, 32.6829262, -0.0139315
-0.1679688, -0.2143555, -1.0991211, -36.9512215, -105.9146347, 31.8902454, -0.0082246
-0.121582, -0.2407227, -1.0776367, -38.6585388, -103.4756088, 31.0975609, 0.0003357
-0.0917969, -0.2705078, -1.0185547, -39.6951218, -99.3292694, 29.6341476, 0.0011749
-0.1206055, -0.2719727, -0.965332, -39.2682953, -97.8658524, 28.780489, 0.002182
-0.1601562, -0.2612305, -0.9526367, -36.5853653, -94.8170776, 26.6463413, 0.0011749
-0.2578125, -0.2436523, -0.9697266, -35.7926826, -93.8414688, 26.280489, 0.0038605
-0.3061523, -0.2475586, -0.9980469, -36.5243912, -94.2073212, 27.6219521, 0.008896
-0.355957, -0.2421875, -1.0551758, -37.8658562, -96.3414688, 30.4268303, 0.0099031
-0.3461914, -0.2358398, -1.0541992, -38.1707344, -97.2561035, 31.4634151, 0.0092317
-0.2851562, -0.2075195, -0.9853516, -38.9024391, -97.3170776, 29.5731716, 0.0038605
-0.2539062, -0.1845703, -0.9350586, -39.8170738, -95.7317123, 28.1707325, -0.002182
-0.2509766, -0.1445312, -0.8754883, -43.5975609, -92.4390259, 25.3048782, -0.0010071
-0.3173828, -0.137207, -0.9077148, -45.9756126, -92.9268341, 25.4268303, -0.0015106
-0.3442383, -0.1547852, -0.9438477, -48.9024391, -97.0731735, 28.0487804, -0.0058747
-0.3530273, -0.2055664, -0.9902344, -49.5121956, -99.7561035, 30, -0.0075532
-0.3320312, -0.2314453, -0.9838867, -48.9634171, -102.6219559, 32.4390259, -0.0283665
-0.277832, -0.2709961, -0.9228516, -48.1097565, -101.2804871, 32.6219521, -0.0706645
-0.2646484, -0.2802734, -0.8867188, -46.341465, -96.3414688, 30.9756107, -0.1022202
-0.3012695, -0.2631836, -0.8164062, -44.5121956, -92.8048782, 27.8048782, -0.1096056
-0.3393555, -0.2402344, -0.7998047, -43.3536606, -92.8658524, 26.5243912, -0.1156481
-0.4150391, -0.1835938, -0.8144531, -42.5609779, -96.2195129, 23.9024391, -0.1156481
-0.4580078, -0.1762695, -0.8574219, -43.0487823, -98.9634171, 23.2926826, -0.1010452
-0.5136719, -0.2109375, -1.0107422, -43.4756126, -105.18293, 26.3414631, -0.0864424
-0.4584961, -0.2788086, -1.1225586, -43.6585388, -108.1707306, 30.2439022, -0.0746929
-0.3662109, -0.2954102, -1.1118164, -41.2195129, -112.1951218, 36.8292694, -0.0594186
-0.1791992, -0.265625, -1.0170898, -39.6951218, -109.8170776, 36.4634171, -0.0553902
-0.1411133, -0.2441406, -0.9848633, -37.8048782, -96.4634171, 30.1219521, -0.0552224
-0.2021484, -0.2426758, -0.9638672, -37.5609779, -91.0365906, 27.8048782, -0.0555581
-0.253418, -0.253418, -0.9594727, -38.7195129, -88.9024429, 27.4390259, -0.0699931
-0.3408203, -0.2568359, -0.9453125, -37.7439041, -92.7439041, 27.7439022, -0.0770428
-0.3759766, -0.2495117, -0.9516602, -36.6463432, -93.9024429, 26.9512196, -0.057908
-0.4384766, -0.2392578, -1.0014648, -35.6707344, -94.0853653, 26.4634151, -0.0162814
-0.4594727, -0.2324219, -1.0288086, -35.7317085, -93.9634171, 27.1951218, 0.0387732
-0.4311523, -0.206543, -1.046875, -36.8902435, -96.5853653, 29.0853672, 0.0871138
-0.3305664, -0.1689453, -1.0068359, -38.1707344, -97.5, 29.1463413, 0.114641
-0.2958984, -0.1601562, -0.9824219, -41.0975609, -96.0975647, 27.1951218, 0.1200122
-0.2890625, -0.1455078, -0.9501953, -42.5, -94.2073212, 26.1585369, 0.1159838
-0.2988281, -0.1298828, -0.940918, -44.4512215, -91.0365906, 25.9146347, 0.1018845
-0.3491211, -0.1015625, -0.9443359, -44.8780479, -89.9390259, 26.2195129, 0.0881209
-0.3730469, -0.0981445, -0.949707, -45.9146347, -88.1707306, 26.4634151, 0.0699931
-0.4116211, -0.1201172, -0.9306641, -49.4512215, -88.0487823, 27.2560978, 0.0339055
-0.4233398, -0.1376953, -0.90625, -51.5853653, -88.2926865, 27.8048782, -0.0115816
-0.4516602, -0.1694336, -0.8369141, -54.0243912, -88.6585388, 28.2317085, -0.0454871
-0.4619141, -0.1772461, -0.8071289, -54.0853653, -88.7804871, 27.9878063, -0.0674754
-0.5058594, -0.1757812, -0.8041992, -53.5365868, -90.6707306, 27.6829281, -0.0746929
-0.5385742, -0.175293, -0.8774414, -53.2926826, -92.0121994, 27.9878063, -0.0793927
-0.5375977, -0.1728516, -0.9204102, -53.2317085, -96.0975647, 30.6707325, -0.0783856
-0.4848633, -0.1708984, -0.965332, -53.2317085, -97.7439041, 32.0731697, -0.0777142
-0.4418945, -0.1704102, -0.9643555, -53.0487823, -97.5609741, 32.5, -0.0867781
-0.3735352, -0.1723633, -0.9174805, -52.4390259, -95.7926865, 31.9512196, -0.100206
-0.3554688, -0.1826172, -0.8876953, -50.6097565, -90.8536606, 30.5487804, -0.1156481
-0.3642578, -0.2109375, -0.8388672, -48.6585388, -86.5243912, 29.8170738, -0.1143053
-0.3862305, -0.2294922, -0.8388672, -47.1951218, -84.8780518, 29.7560978, -0.1028916
-0.4707031, -0.2543945, -0.890625, -44.8780479, -85, 30.7317085, -0.0817426
-0.4931641, -0.2431641, -0.9150391, -42.9268303, -86.1585388, 31.8902454, -0.0505226
-0.5195312, -0.1508789, -0.9121094, -38.7195129, -85.6707306, 31.0975609, -0.0206455
-0.5253906, -0.0361328, -0.8823242, -37.5609779, -83.9024429, 29.3292694, 0.0204776
-0.5473633, 0.0014648, -0.890625, -39.7560997, -80.3048782, 27.1341476, 0.0585794
-0.5732422, -0.0131836, -0.9536133, -42.9268303, -80.7317123, 27.9268303, 0.085771
-0.5668945, -0.0532227, -0.9868164, -50.4878044, -87.7439041, 33.9634171, 0.1015488
-0.4731445, -0.1655273, -0.9868164, -52.5, -92.3780518, 37.3170738, 0.1050736
-0.4077148, -0.2177734, -0.9379883, -51.5243912, -95.7317123, 40.5487823, 0.1045701
-0.3286133, -0.2626953, -0.847168, -47.1951218, -87.1951218, 37.8658562, 0.0995346
-0.3496094, -0.2446289, -0.8378906, -45.1829262, -81.0365906, 36.1585388, 0.0965133
-0.4658203, -0.1557617, -0.8920898, -41.8902435, -75.7926865, 33.4756088, 0.0891279
-0.5317383, -0.097168, -0.9199219, -41.4634171, -77.3170776, 33.1707306, 0.0783856
-0.5952148, -0.0136719, -0.918457, -43.2317085, -82.8048782, 33.7804871, 0.0589151
-0.5849609, -0.0029297, -0.8364258, -45.9146347, -84.6341476, 34.0853653, 0.0481727
-0.5791016, -0.027832, -0.7958984, -53.1097565, -85, 35.3658562, 0.0360876
-0.5820312, -0.0966797, -0.762207, -55.9146347, -85.6707306, 36.1585388, 0.0223239
-0.5888672, -0.1279297, -0.765625, -57.4390259, -89.7560959, 37.5, 0.0166171
-0.5966797, -0.1411133, -0.7983398, -56.2804909, -92.68293, 37.4390259, 0.0038605
-0.5996094, -0.1289062, -0.8237305, -53.7195129, -96.2195129, 36.5243912, -0.0090639
-0.5942383, -0.1098633, -0.8637695, -52.8658562, -97.8048782, 36.5243912, -0.0250095
-0.5839844, -0.1025391, -0.8632812, -53.2317085, -97.68293, 36.7073174, -0.0323949
-0.5371094, -0.1044922, -0.8359375, -55, -97.0731735, 36.4634171, -0.0431373
-0.5180664, -0.0996094, -0.8178711, -55.6097565, -96.646347, 35.6097565, -0.0605936
-0.5141602, -0.0864258, -0.8046875, -56.0365868, -96.1585388, 33.3536606, -0.0649577
-0.5439453, -0.0942383, -0.8134766, -55.3658562, -96.4634171, 32.7439041, -0.0621042
-0.5488281, -0.1147461, -0.8110352, -53.0487823, -99.3292694, 33.3536606, -0.061265
-0.5463867, -0.1791992, -0.7929688, -52.0731735, -99.8780518, 34.0853653, -0.0515297
-0.5410156, -0.2060547, -0.800293, -50.6707344, -99.2682953, 35.1829262, -0.0359197
-0.5605469, -0.2275391, -0.8671875, -49.4512215, -98.3536606, 35.2439041, -0.0253452
-0.5654297, -0.2167969, -0.8989258, -45.2439041, -98.8414688, 34.8170738, -0.0146029
-0.534668, -0.1591797, -0.8886719, -39.8780479, -100.3658524, 32.3170738, -0.0082246
-0.5097656, -0.1162109, -0.8530273, -38.1097565, -99.3292694, 30.060976, 0.0018463
-0.5102539, -0.0424805, -0.8056641, -38.6585388, -93.0487823, 25.9756107, 0.0102388
-0.5429688, -0.0205078, -0.8027344, -40.3658562, -91.2195129, 25.4268303, 0.0146029
-0.6083984, -0.0205078, -0.8193359, -43.5365868, -94.0853653, 27.1341476, 0.018967
-0.6279297, -0.0722656, -0.8671875, -44.2073174, -97.68293, 28.6585369, 0.014435
-0.6191406, -0.1123047, -0.8798828, -43.1707344, -103.9634171, 32.5609779, -0.012253
-0.5644531, -0.1533203, -0.8691406, -41.341465, -105.0609818, 34.6341476, -0.0276951
-0.5341797, -0.1381836, -0.8618164, -36.8292694, -100.9146347, 35.2439041, -0.0364233
-0.5385742, -0.0698242, -0.894043, -35.3658562, -96.7682953, 33.4756088, -0.0364233
-0.5620117, -0.0390625, -0.9204102, -35.6707344, -91.8292694, 31.0365868, -0.0246738
-0.5771484, 0.0014648, -0.9204102, -39.6341476, -93.1707306, 31.4634151, -0.0082246
-0.574707, 0.0009766, -0.8774414, -41.8292694, -94.2682953, 31.9512196, 0.0048676
-0.5517578, -0.0117188, -0.7548828, -45.1829262, -92.8658524, 31.341465, 0.0132601
-0.5678711, -0.0224609, -0.7084961, -46.5243912, -90.7926865, 30.6097565, 0.0166171
-0.6513672, -0.0473633, -0.7026367, -46.8902435, -89.0853653, 30.7926846, 0.0152743
-0.7431641, -0.0498047, -0.796875, -46.8292694, -90.6097565, 32.0121956, 0.0105745
-0.762207, -0.0429688, -0.8486328, -45.6097565, -95.18293, 35.3658562, 0.0062104
-0.7246094, -0.0117188, -0.9106445, -45.6707344, -97.6219559, 36.5243912, -0.0062104
-0.6796875, 0, -0.9038086, -47.1951218, -98.7804871, 37.0731697, -0.01561
-0.5864258, -0.0141602, -0.8061523, -48.7195129, -97.5609741, 36.2804871, -0.0297093
-0.5478516, -0.0356445, -0.7314453, -51.4634171, -93.7195129, 34.7560997, -0.0404517
-0.5366211, -0.081543, -0.6079102, -52.7439041, -90.2439041, 32.0121956, -0.0464942
-0.5761719, -0.090332, -0.5795898, -52.0121956, -89.0853653, 30.3658543, -0.0498512
-0.7167969, -0.0683594, -0.6064453, -48.6585388, -88.7804871, 28.5365868, -0.0485084
-0.7924805, -0.0488281, -0.6469727, -46.7682953, -90.1219559, 28.3536587, -0.0411231
-0.8867188, -0.0244141, -0.7368164, -45.3658562, -95.9146347, 31.0975609, -0.0350805
-0.8481445, -0.0273438, -0.7744141, -44.8170738, -99.5121994, 32.9878044, -0.0323949
-0.7919922, -0.03125, -0.7626953, -45.1829262, -105.3658524, 35.0609779, -0.0417945
-0.6782227, -0.0195312, -0.7226562, -45.2439041, -106.1585388, 34.8170738, -0.0518654
-0.6416016, -0.0019531, -0.7060547, -45.3048782, -103.7804871, 32.0121956, -0.0673075
-0.6206055, 0.0185547, -0.7021484, -45.4878044, -102.3170776, 30.9146347, -0.090135
-0.628418, 0.019043, -0.7055664, -45.6097565, -100.3048782, 30.060976, -0.114641
-0.6586914, -0.0097656, -0.7416992, -46.8902435, -99.2073212, 31.2195129, -0.1253834
-0.6787109, -0.0375977, -0.765625, -46.8292694, -99.2682953, 32.6829262, -0.1200122
-0.6762695, -0.0830078, -0.7875977, -44.2073174, -99.5121994, 35.9146347, -0.0861067
-0.6630859, -0.0776367, -0.7875977, -42.3170738, -98.6585388, 35.7926826, -0.0327306
-0.644043, -0.0102539, -0.7944336, -39.6951218, -94.2682953, 32.3780479, 0.0132601
-0.6679688, 0.0585938, -0.8027344, -40.5487823, -92.0121994, 30.2439022, 0.0354162
-0.6743164, 0.0688477, -0.7939453, -44.1463432, -90.6097565, 29.4512196, 0.0354162
-0.6572266, 0.0527344, -0.7236328, -46.7682953, -91.2804871, 29.5731716, 0.0240024
-0.6474609, 0.0307617, -0.6723633, -50.9146347, -91.4634171, 29.6951218, -0.0001678
-0.6469727, -0.0136719, -0.5952148, -51.5853653, -90.4878082, 29.2682934, -0.0172885
-0.6772461, -0.0268555, -0.5957031, -50.8536606, -88.1707306, 27.7439022, -0.0250095
-0.7568359, -0.0537109, -0.6582031, -48.3536606, -88.5365906, 27.9268303, -0.0337377
-0.7871094, -0.0541992, -0.6889648, -46.8292694, -90.2439041, 29.1463413, -0.0431373
-0.7700195, -0.0263672, -0.7197266, -44.3292694, -93.3536606, 29.8780499, -0.0528725
-0.7446289, -0.0073242, -0.7197266, -43.2926826, -93.3536606, 28.780489, -0.0552224
-0.6982422, 0.0107422, -0.706543, -43.9024391, -91.4024429, 26.0975609, -0.0515297
-0.6645508, 0.0048828, -0.6904297, -44.9390259, -90.7926865, 25.3048782, -0.0486763
-0.6484375, 0.0024414, -0.6796875, -45.7317085, -89.5731735, 24.3902435, -0.0421302
-0.6381836, -0.0053711, -0.6723633, -45.6707344, -88.5975647, 24.2073174, -0.0394446
-0.6416016, 0.0014648, -0.6787109, -43.7804871, -86.0975647, 23.6585369, -0.0374304
-0.6557617, 0.0039062, -0.6923828, -42.3780479, -84.5731735, 23.5975609, -0.0344091
-0.6621094, -0.0014648, -0.6904297, -39.0243912, -81.5243912, 23.6585369, -0.0354162
-0.6586914, -0.0131836, -0.6738281, -37.5609779, -78.2317123, 23.7195129, -0.0354162
-0.6635742, -0.0161133, -0.6674805, -37.8658562, -76.4634171, 23.2926826, -0.0394446
-0.6826172, -0.0136719, -0.6777344, -37.6219521, -74.0853653, 22.8658543, -0.0384375
-0.6992188, -0.0063477, -0.6933594, -36.6463432, -73.7804871, 22.7439022, -0.0391089
-0.7089844, 0.0405273, -0.703125, -34.3292694, -73.7804871, 22.439024, -0.0391089
-0.684082, 0.1206055, -0.6459961, -33.841465, -72.68293, 21.7073174, -0.0485084
-0.6743164, 0.1328125, -0.5927734, -36.4024391, -69.5731735, 19.2073174, -0.0713359
-0.6791992, 0.0664062, -0.4741211, -38.7195129, -68.7804871, 18.2926826, -0.0867781
-0.6967773, 0.0048828, -0.4379883, -42.3780479, -69.4512177, 17.9268303, -0.1012131
-0.7636719, -0.0859375, -0.4848633, -41.9512215, -70.6707306, 17.9268303, -0.1237049
-0.8007812, -0.0952148, -0.5517578, -36.8902435, -74.5731735, 19.0243912, -0.1354543
-0.8276367, -0.0366211, -0.6801758, -28.2317085, -78.7195129, 20.1219521, -0.1216907
-0.8046875, 0.0112305, -0.6967773, -25.5487804, -79.3902435, 19.6341476, -0.1055772
-0.7226562, 0.0883789, -0.6586914, -26.7073174, -76.5853653, 16.9512196, -0.0793927
-0.6879883, 0.1015625, -0.6240234, -29.5121956, -74.4512177, 16.0975609, -0.0448157
-0.6425781, 0.0786133, -0.5551758, -35.3048782, -72.68293, 15.1219511, -0.0112459
-0.6425781, 0.0595703, -0.5400391, -36.5853653, -72.6219559, 15, 0.0246738
-0.6616211, 0.0571289, -0.5605469, -35.8536606, -73.0487823, 13.9024391, 0.0471656
-0.6972656, 0.0517578, -0.6201172, -34.8170738, -72.7439041, 14.1463413, 0.0683146
-0.7094727, 0.0488281, -0.6445312, -32.9268303, -71.5853653, 15.7317076, 0.0803998
-0.703125, 0.0341797, -0.621582, -32.6219521, -70.7926865, 16.6463413, 0.0783856
-0.6835938, 0.0385742, -0.590332, -32.1951218, -68.5975647, 18.1097565, 0.0656291
-0.6777344, 0.0673828, -0.5488281, -31.9512196, -65.4268341, 15.9146347, 0.0495155
-0.6948242, 0.0917969, -0.5576172, -32.3170738, -64.3902435, 14.3292685, 0.0433051
-0.7480469, 0.1118164, -0.6318359, -33.9024391, -65.2439041, 13.4756098, 0.033402
-0.7631836, 0.1103516, -0.6630859, -34.7560997, -66.7682953, 14.6341467, 0.0236667
-0.730957, 0.0712891, -0.6547852, -35.0609779, -68.5975647, 17.1341476, 0.011078
-0.6606445, 0.0131836, -0.5786133, -34.2682953, -67.9268341, 17.8658543, -0.0008392
-0.6342773, -0.0048828, -0.5473633, -31.1585369, -62.6219521, 17.1341476, -0.0031891
-0.644043, -0.0283203, -0.5410156, -29.2073174, -59.6341476, 16.3414631, -0.0102388
-0.6674805, -0.0219727, -0.5605469, -24.6341476, -54.8780518, 14.9390249, -0.0298772
-0.715332, 0.0244141, -0.5947266, -22.1341476, -54.1463432, 15.1219511, -0.0411231
-0.7265625, 0.0605469, -0.6040039, -18.5365849, -52.8048782, 15, -0.0424659
-0.7412109, 0.1347656, -0.6103516, -18.8414631, -49.1463432, 14.5121956, -0.04448
-0.7412109, 0.152832, -0.6035156, -19.8780499, -47.3780518, 14.6951227, -0.04448
-0.7416992, 0.1616211, -0.5605469, -23.3536587, -45.2439041, 15.1829271, -0.0364233
-0.7373047, 0.1464844, -0.5136719, -24.6341476, -44.8170738, 15.3658543, -0.0357519
-0.7304688, 0.0859375, -0.3945312, -26.0975609, -44.0243912, 15.3048782, -0.0431373
-0.7626953, 0.0273438, -0.3149414, -25.4878063, -43.1097565, 15.060976, -0.0417945
-0.796875, 0.0078125, -0.3168945, -23.4756107, -42.5609779, 15.060976, -0.0298772
-0.871582, -0.0004883, -0.3754883, -21.2195129, -43.4756126, 15.4878054, -0.0203098
-0.8901367, 0.0161133, -0.4121094, -16.1585369, -49.0243912, 17.1951218, -0.0243381
-0.8764648, 0.1074219, -0.4765625, -14.0243902, -53.1707344, 17.560976, -0.0340734
-0.8598633, 0.1606445, -0.4970703, -15, -53.841465, 16.6463413, -0.0350805
-0.8276367, 0.2451172, -0.4936523, -21.3414631, -53.3536606, 14.6341467, -0.033402
-0.8095703, 0.2421875, -0.4760742, -25, -53.2926826, 14.0853662, -0.043473
-0.7675781, 0.1582031, -0.4057617, -31.2195129, -55.6707344, 14.3902445, -0.0629435
-0.7402344, 0.0629883, -0.3525391, -32.4390259, -56.4634171, 14.6951227, -0.068986
-0.7368164, 0.0439453, -0.3481445, -31.0365868, -56.5243912, 14.1463413, -0.0585794
-0.7666016, 0.0473633, -0.4165039, -28.7195129, -56.2804909, 13.841464, -0.0377661
-0.7822266, 0.059082, -0.4575195, -24.1463413, -56.2804909, 14.2682934, -0.0068818
-0.7856445, 0.0942383, -0.480957, -22.5, -56.9512215, 14.5121956, 0.0209812
-0.7749023, 0.1206055, -0.4736328, -21.7073174, -56.2804909, 15.1829271, 0.0381018
-0.7563477, 0.1650391, -0.4780273, -24.1463413, -53.2317085, 13.9024391, 0.0527047
-0.7641602, 0.1865234, -0.4912109, -25.8536587, -52.1341476, 13.3536587, 0.061265
-0.7597656, 0.1894531, -0.4936523, -29.0853672, -52.1341476, 13.2317076, 0.0652934
-0.7475586, 0.1757812, -0.4760742, -30, -52.1341476, 13.1097565, 0.0683146
-0.7236328, 0.1279297, -0.4038086, -30.5487804, -51.1585388, 13.2926836, 0.0636149
-0.7392578, 0.0800781, -0.3530273, -30.1829281, -49.7560997, 13.3536587, 0.036759
-0.7568359, 0.0732422, -0.34375, -28.1097565, -47.1951218, 13.780488, -0.0218204
-0.7998047, 0.1079102, -0.3569336, -26.5243912, -46.6463432, 14.1463413, -0.0948348
-0.8188477, 0.1357422, -0.3793945, -23.6585369, -46.9512215, 14.4512196, -0.1673457
-0.8300781, 0.1855469, -0.4414062, -23.2926826, -47.5, 14.6341467, -0.2109865
-0.8378906, 0.1967773, -0.4892578, -26.1585369, -48.4756126, 15, -0.2197147
-0.8198242, 0.1748047, -0.5654297, -30.6707325, -51.0365868, 16.5853653, -0.194873
-0.7875977, 0.1484375, -0.5639648, -31.7682934, -52.1951218, 17.560976, -0.1505608
-0.7006836, 0.09375, -0.4580078, -30.6097565, -50.9756126, 17.6829281, -0.0867781
-0.6630859, 0.081543, -0.3896484, -28.7195129, -48.1707344, 16.4634151, -0.0176242
-0.659668, 0.0751953, -0.2915039, -24.5731716, -39.8780479, 13.1097565, 0.0391089
-0.7480469, 0.0776367, -0.2929688, -23.2926826, -36.8292694, 12.1341467, 0.0777142
-0.8027344, 0.0791016, -0.3212891, -21.1585369, -36.2195129, 12.1951218, 0.1005417
-0.8813477, 0.090332, -0.3769531, -20.5487804, -37.8658562, 13.3536587, 0.1028916
-0.8955078, 0.0917969, -0.3862305, -19.8170738, -43.4146347, 15.6097565, 0.0891279
-0.8725586, 0.1152344, -0.3808594, -19.1463413, -45.1829262, 16.2195129, 0.068986
-0.8505859, 0.1318359, -0.3876953, -18.1707325, -46.2804871, 15.7926836, 0.0599222
-0.8139648, 0.1650391, -0.4375, -19.3902435, -45.8536606, 14.8170738, 0.072343
-0.7988281, 0.1699219, -0.4575195, -20.7926826, -46.341465, 14.6341467, 0.1017166
-0.7495117, 0.1586914, -0.4511719, -22.3170738, -46.4024391, 14.9390249, 0.1273976
-0.7270508, 0.1420898, -0.4194336, -22.6829281, -45.1829262, 14.6341467, 0.1310903
-0.703125, 0.1054688, -0.3442383, -21.6463413, -40.3048782, 13.9024391, 0.1171588
-0.7333984, 0.0932617, -0.2944336, -20.060976, -37.1341476, 13.5365858, 0.0918135
-0.7651367, 0.1040039, -0.2944336, -18.5975609, -33.1097565, 12.5, 0.0674754
-0.8447266, 0.1210938, -0.3188477, -18.1097565, -32.2560997, 12.0731707, 0.047837
-0.8706055, 0.1225586, -0.3339844, -17.8658543, -34.5731697, 12.3170738, 0.0344091
-0.8935547, 0.1176758, -0.3476562, -18.2926826, -36.5243912, 13.1097565, 0.0216526
-0.8857422, 0.1225586, -0.347168, -18.2926826, -39.5731735, 13.5975609, -0.0001678
-0.8505859, 0.1435547, -0.3530273, -18.5365849, -40.0609779, 13.1097565, -0.0203098
-0.8398438, 0.1499023, -0.3701172, -19.1463413, -39.6951218, 12.6829271, -0.0431373
-0.8193359, 0.1430664, -0.4023438, -20.6097565, -40, 12.3170738, -0.0703288
-0.8046875, 0.1333008, -0.4077148, -20.8536587, -40.1829262, 12.560976, -0.0840925
-0.7719727, 0.0874023, -0.3706055, -18.6585369, -39.5731735, 13.1097565, -0.0820783
-0.7519531, 0.0522461, -0.3178711, -16.2195129, -37.9268303, 12.560976, -0.0847639
-0.7563477, 0.0400391, -0.3032227, -11.219512, -32.8658562, 11.4634151, -0.0797284
-0.7998047, 0.0527344, -0.3154297, -9.3902445, -30.6097565, 10.8536587, -0.0652934
-0.8320312, 0.0766602, -0.3359375, -7.7439027, -28.0487804, 10.2439022, -0.0542153
-0.8793945, 0.1479492, -0.3759766, -8.0487804, -28.4756107, 10.1829271, -0.0488441
-0.8891602, 0.1704102, -0.3818359, -9.0853662, -30.7926846, 10.1219511, -0.0471656
-0.8789062, 0.1665039, -0.3847656, -10, -33.0487823, 11.0975609, -0.072343
-0.8540039, 0.1479492, -0.3803711, -10.2439022, -33.2317085, 11.7682934, -0.1008774
-0.8081055, 0.121582, -0.3779297, -10.9146347, -31.7073174, 11.9512196, -0.1186694
-0.7919922, 0.1162109, -0.375, -10.9146347, -30.3658543, 11.4634151, -0.1277333
-0.7802734, 0.1074219, -0.3701172, -10.7317076, -27.3170738, 10.4268293, -0.1290761
-0.7866211, 0.1088867, -0.3652344, -10.1219511, -26.0975609, 10.1219511, -0.1304189
-0.793457, 0.1142578, -0.3549805, -9.1463413, -23.5975609, 9.6951218, -0.1416648
-0.8193359, 0.1274414, -0.3510742, -8.6585369, -22.1951218, 9.4512196, -0.1122911
-0.8359375, 0.1279297, -0.3476562, -8.780488, -20.6097565, 9.8780489, -0.0810712
-0.8530273, 0.1435547, -0.3173828, -8.9634151, -19.7560978, 10.060976, -0.061265
-0.8510742, 0.1479492, -0.3066406, -9.3292685, -18.8414631, 10.4268293, -0.0323949
-0.8613281, 0.1542969, -0.3017578, -9.9390249, -17.560976, 9.9390249, -0.0035248
-0.8671875, 0.1547852, -0.3149414, -10.1829271, -17.439024, 10.1219511, 0.0038605
-0.859375, 0.1430664, -0.3569336, -11.8292685, -17.8048782, 10.4268293, 0.0085603
-0.8530273, 0.1362305, -0.375, -12.6829271, -18.1707325, 10.6097565, 0.014435
-0.8164062, 0.128418, -0.3632812, -13.6585369, -17.1951218, 10.2439022, 0.0139315
-0.7895508, 0.1362305, -0.3203125, -13.780488, -15.4878054, 9.6341467, 0.0193027
-0.7875977, 0.1425781, -0.3032227, -13.9024391, -11.0365858, 8.1097565, 0.0186313
-0.8154297, 0.1411133, -0.2851562, -13.9024391, -8.9024391, 7.7439027, 0.0226596
-0.8359375, 0.137207, -0.2861328, -13.6585369, -6.4634147, 7.1341467, 0.0246738
-0.8710938, 0.128418, -0.3017578, -13.5365858, -6.3414636, 7.2560978, 0.03122
-0.8754883, 0.1176758, -0.3173828, -13.2317076, -7.5, 7.8658538, 0.0419623
-0.862793, 0.0932617, -0.3579102, -13.1097565, -8.841464, 8.4146347, 0.0528725
-0.8413086, 0.0786133, -0.3764648, -12.1951218, -9.1463413, 8.4756098, 0.0639506
-0.796875, 0.0708008, -0.371582, -10.4268293, -8.1707315, 7.5609756, 0.0693217
-0.777832, 0.0776367, -0.3496094, -9.5121956, -5.9146342, 6.3414636, 0.0619364
-0.7636719, 0.0996094, -0.2998047, -7.5, -0.4268293, 4.0853658, 0.0501869
-0.8066406, 0.1132812, -0.3051758, -7.0731707, 1.9512196, 3.1097562, 0.0394446
-0.8300781, 0.121582, -0.3217773, -6.0365853, 4.6951222, 2.804878, 0.0280308
-0.8574219, 0.1411133, -0.331543, -5.9756098, 5.1219511, 3.4146342, 0.0206455
-0.8608398, 0.1396484, -0.3222656, -4.8170733, 5.0609756, 3.4146342, 0.0078889
-0.847168, 0.1079102, -0.2836914, -4.3292685, 5.7926831, 3.2926829, -0.0068818
-0.8447266, 0.0874023, -0.2675781, -3.3536587, 7.4390244, 3.1707318, -0.0216526
-0.8417969, 0.0712891, -0.2641602, -1.7073171, 9.8780489, 2.6219513, -0.0313878
-0.847168, 0.078125, -0.2797852, -0.6707317, 10.3658543, 1.8292683, -0.033402
-0.8579102, 0.1079102, -0.3120117, 0.4268293, 9.8170738, 1.3414634, -0.0340734
-0.8569336, 0.1157227, -0.3149414, 0.4878049, 9.7560978, 1.2195122, -0.0317235
-0.8251953, 0.1235352, -0.2973633, 1.2804878, 10.9146347, 0.8536586, -0.0364233
-0.8129883, 0.1079102, -0.2680664, 1.8292683, 12.6219511, 0.3048781, -0.0595865
-0.8129883, 0.0961914, -0.2641602, 2.5, 16.2195129, -0.6097561, -0.0840925
-0.8300781, 0.078125, -0.2836914, 2.9878049, 17.0731716, -1.1585366, -0.0928206
-0.8359375, 0.0708008, -0.3012695, 4.2073174, 17.1951218, -1.5243902, -0.110277
-0.8369141, 0.0791016, -0.3251953, 4.8170733, 17.1951218, -1.7073171, -0.1344472
-0.8276367, 0.090332, -0.3310547, 6.4634147, 17.3780499, -2.195122, -0.1404898
-0.8110352, 0.1401367, -0.3305664, 7.0731707, 19.6951218, -3.2926829, -0.1374685
-0.8076172, 0.1640625, -0.3398438, 6.2195125, 21.280489, -3.7195122, -0.1233692
-0.8071289, 0.1821289, -0.3466797, 4.3292685, 23.780489, -3.6585367, -0.0983597
-0.8066406, 0.1782227, -0.3461914, 2.9878049, 25.060976, -3.5975611, -0.0676432
-0.7900391, 0.1572266, -0.3222656, 0.9146342, 27.3170738, -3.7804878, -0.0391089
-0.7954102, 0.1274414, -0.2885742, 0.5487805, 28.5365868, -3.9634147, -0.0125887
-0.8017578, 0.112793, -0.2773438, 0.5487805, 31.280489, -4.9390244, 0.0137636
-0.8266602, 0.1040039, -0.269043, 0.7926829, 32.1341476, -5.5487804, 0.0260166
-0.8388672, 0.1113281, -0.2729492, 1.7682927, 33.2926826, -5.9756098, 0.0327306
-0.8544922, 0.1166992, -0.2963867, 1.8292683, 33.2926826, -6.1585369, 0.0359197
-0.8476562, 0.1108398, -0.3095703, 0.9756098, 32.3170738, -6.0365853, 0.0263523
-0.8256836, 0.097168, -0.3232422, 0.7317073, 31.8902454, -6.0975609, 0.0186313
-0.8144531, 0.0947266, -0.3256836, 1.2804878, 31.5853672, -6.280488, 0.0038605
-0.7929688, 0.1132812, -0.3149414, 3.1707318, 33.1707306, -7.6219516, -0.0276951
-0.7900391, 0.1289062, -0.3193359, 3.4146342, 34.9390259, -8.5365858, -0.0763714
-0.7924805, 0.1420898, -0.3461914, 2.3170731, 38.1097565, -8.719512, -0.1136339
-0.7949219, 0.1162109, -0.3891602, 1.5853659, 38.9024391, -8.5365858, -0.1562676
-0.7885742, 0.1000977, -0.3950195, 0.6097561, 39.5121956, -7.8658538, -0.2150149
-0.762207, 0.0634766, -0.3955078, 1.2804878, 39.6951218, -7.6219516, -0.2626841
-0.7490234, 0.043457, -0.3857422, 4.7560978, 42.0121956, -6.9512196, -0.2640269
-0.7255859, 0.0410156, -0.3525391, 7.2560978, 44.4512215, -7.1341467, -0.235996
-0.7270508, 0.0556641, -0.3422852, 11.0365858, 50, -8.5975609, -0.1789273
-0.7612305, 0.0878906, -0.3510742, 11.9512196, 54.5731735, -10.4268293, -0.1028916
-0.7807617, 0.1025391, -0.3613281, 11.341464, 55.4878044, -10.5487804, -0.0219883
-0.8017578, 0.1181641, -0.3964844, 9.1463413, 53.9634171, -11.219512, 0.0458228
-0.8056641, 0.1259766, -0.409668, 7.9878049, 53.2926826, -11.4024391, 0.096849
-0.7773438, 0.1430664, -0.4111328, 6.4024391, 53.5975609, -12.0121956, 0.1354543
-0.7387695, 0.1489258, -0.3793945, 5.7317076, 54.8780518, -12.2560978, 0.156939
-0.7255859, 0.1391602, -0.3642578, 5.1219511, 58.9024391, -12.8048782, 0.1619745
-0.7231445, 0.1025391, -0.3461914, 5.0609756, 60.6097565, -13.0487804, 0.1498894
-0.7304688, 0.0854492, -0.3452148, 5.609756, 62.8658562, -13.2926836, 0.1294118
-0.746582, 0.0644531, -0.3378906, 6.2195125, 63.5975609, -13.4756098, 0.1138018
-0.7529297, 0.0644531, -0.3330078, 8.1707315, 65.0609741, -14.0853662, 0.0981918
-0.765625, 0.0600586, -0.3203125, 9.8170738, 65.8536606, -15.3658543, 0.0746929
-0.7758789, 0.0537109, -0.3242188, 10.5487804, 66.0365906, -15.7317076, 0.0582437
-0.7861328, 0.050293, -0.3549805, 10.7926836, 65.1219559, -17.0121956, 0.0441444
-0.7856445, 0.0600586, -0.3764648, 10.8536587, 64.7560959, -17.3780499, 0.030045
-0.7661133, 0.0888672, -0.3867188, 11.0365858, 64.4512177, -18.3536587, 0.0078889
-0.7368164, 0.0991211, -0.3579102, 11.0365858, 64.9390259, -19.1463413, -0.0149386
-0.7246094, 0.0888672, -0.3422852, 11.280488, 66.7073212, -21.280489, -0.0317235
-0.7231445, 0.0507812, -0.3193359, 11.8902445, 67.0731735, -21.6463413, -0.0240024
-0.7255859, 0.0288086, -0.3261719, 12.9878054, 67.0121994, -22.1341476, -0.0011749
-0.7387695, -0.0107422, -0.3745117, 13.841464, 66.8292694, -22.1341476, 0.0313878
-0.737793, -0.0224609, -0.4091797, 16.0975609, 64.7560959, -21.6463413, 0.0394446
-0.7080078, -0.0102539, -0.4780273, 18.5365849, 64.3292694, -20.7317085, 0.0317235
-0.6904297, 0.0185547, -0.5141602, 19.3902435, 65.4878082, -20.7317085, 0.0172885
-0.6430664, 0.09375, -0.5581055, 18.9024391, 70, -22.1341476, -0.0095674
-0.6337891, 0.1225586, -0.5668945, 18.2926826, 72.9878082, -22.9878063, -0.023331
-0.6171875, 0.1308594, -0.5498047, 16.3414631, 78.4146347, -22.9268303, -0.027863
-0.6108398, 0.0805664, -0.5175781, 15.6707325, 80.5487823, -22.8048782, -0.0337377
-0.605957, 0.0498047, -0.5004883, 16.0975609, 84.2682953, -21.280489, -0.0372625
-0.6230469, 0.0288086, -0.4887695, 16.8902435, 86.2195129, -21.0365868, -0.0411231
-0.6357422, 0.0288086, -0.4897461, 19.1463413, 90.8536606, -21.5853672, -0.0417945
-0.6694336, 0.0361328, -0.4970703, 20.1219521, 92.2561035, -21.4634151, -0.04448
-0.6801758, 0.0317383, -0.4980469, 20.9146347, 93.1707306, -21.6463413, -0.0485084
-0.6787109, 0.0239258, -0.4956055, 21.6463413, 93.1097565, -21.6463413, -0.0461585
-0.6796875, 0.0292969, -0.4912109, 21.9512196, 93.9024429, -21.8292694, -0.0421302
-0.6738281, 0.0561523, -0.4707031, 22.8658543, 96.7073212, -23.4146347, -0.0407874
-0.675293, 0.0722656, -0.4624023, 23.0487804, 98.1707306, -24.4512196, -0.0411231
-0.6835938, 0.0776367, -0.4589844, 22.560976, 99.7561035, -26.1585369, -0.0448157
-0.6933594, 0.0507812, -0.4863281, 21.4634151, 99.8170776, -26.5243912, -0.0475013
-0.6904297, 0.0375977, -0.5009766, 18.9024391, 97.9878082, -26.4634151, -0.0441444
-0.6616211, 0.0283203, -0.4921875, 17.9878044, 97.4390259, -27.1341476, -0.0417945
-0.6484375, 0.0371094, -0.4731445, 16.4634151, 98.0487823, -29.4512196, -0.0391089
-0.6445312, 0.0722656, -0.4052734, 16.4024391, 98.9634171, -30.9756107, -0.0372625
-0.6567383, 0.0776367, -0.3730469, 16.1585369, 100.1219559, -35, -0.0323949
-0.6948242, 0.0717773, -0.3496094, 14.3902445, 99.0853653, -37.2560997, -0.0243381
-0.7207031, 0.0634766, -0.3530273, 13.2317076, 97.5609741, -37.4390259, -0.0169528
-0.7495117, 0.0400391, -0.359375, 11.0975609, 91.0975647, -37.2560997, -0.01561
-0.7509766, 0.034668, -0.3598633, 11.0365858, 87.9878082, -37.4390259, -0.0125887
-0.7314453, 0.0366211, -0.3740234, 9.6951218, 82.3780518, -39.2682953, -0.0097353
-0.7241211, 0.0771484, -0.4614258, 8.1707315, 80.9146347, -40.2439041, -0.0166171
-0.7236328, 0.0932617, -0.5263672, 2.1341465, 79.4512177, -39.1463432, -0.0256809
-0.6875, 0.1186523, -0.6494141, -0.6707317, 77.7439041, -37.5609779, -0.0240024
-0.6479492, 0.1235352, -0.6806641, -3.5975611, 75.1219559, -32.5, -0.0357519
-0.5488281, 0.1376953, -0.7001953, -2.6829269, 77.9268341, -29.6341476, -0.0599222
-0.5, 0.1245117, -0.7006836, -1.0365853, 81.9512177, -28.7195129, -0.0837568
-0.4335938, 0.0307617, -0.71875, 1.8902439, 90.7317123, -26.280489, -0.0921492
-0.4125977, -0.046875, -0.7319336, 3.7195122, 94.6341476, -24.2073174, -0.0938277
-0.3881836, -0.1831055, -0.7460938, 10.1219511, 101.3414688, -20.1829281, -0.096849
-0.3769531, -0.21875, -0.7255859, 14.2682934, 105.7926865, -19.0243912, -0.1049058
-0.3828125, -0.2016602, -0.6474609, 25.4878063, 117.2561035, -20.9146347, -0.1109483
-0.4501953, -0.1171875, -0.6147461, 30.4268303, 123.2926865, -23.3536587, -0.1022202
-0.5146484, -0.0708008, -0.6342773, 35.8536606, 132.3170776, -27.9268303, -0.0780499
-0.6391602, -0.0014648, -0.6962891, 35.7317085, 133.4146423, -29.4512196, -0.0542153
-0.6816406, 0.0087891, -0.7075195, 32.8658562, 129.6341553, -29.1463413, -0.033402
-0.6875, 0.003418, -0.6757812, 29.7560978, 122.1951218, -27.9878063, -0.0139315
-0.6679688, -0.0078125, -0.6484375, 29.0853672, 119.3292694, -27.9268303, 0.012253
-0.6166992, -0.0214844, -0.6088867, 30.3048782, 116.4024429, -29.0243912, 0.0392767
-0.5947266, -0.0317383, -0.6088867, 31.1585369, 116.2804871, -29.8780499, 0.0575723
-0.5615234, -0.0385742, -0.652832, 32.2560997, 115.7317123, -30.1829281, 0.0777142
-0.5327148, -0.0302734, -0.690918, 32.3780479, 115.36586, -29.7560978, 0.0881209
-0.5209961, -0.0180664, -0.7006836, 31.4024391, 116.3414688, -29.5121956, 0.0856031
-0.5004883, 0.0092773, -0.7011719, 30.4268303, 117.3170776, -30.1829281, 0.0827497
-0.4990234, 0.0185547, -0.6870117, 28.841465, 119.6341476, -31.1585369, 0.0696574
-0.5092773, 0.0390625, -0.6552734, 27.3170738, 120.8536606, -32.0121956, 0.0535439
-0.5200195, 0.0385742, -0.652832, 24.3292694, 121.7682953, -33.4756088, 0.0441444
-0.5517578, 0.0380859, -0.6567383, 19.939024, 120.0609818, -34.3292694, 0.0360876
-0.5708008, 0.0336914, -0.6601562, 17.8658543, 118.4146347, -34.6951218, 0.0219883
-0.5986328, 0.0229492, -0.640625, 14.8780489, 115.5487823, -34.2073174, -0.0010071
-0.6069336, 0.0219727, -0.6333008, 13.5365858, 114.2682953, -33.4146347, -0.0130922
-0.6157227, 0.03125, -0.6347656, 11.280488, 112.9878082, -32.5, -0.0240024
-0.6147461, 0.0410156, -0.6699219, 10.1829271, 111.7682953, -32.3780479, -0.0332341
-0.6069336, 0.0356445, -0.7041016, 5.9756098, 109.3902435, -31.6463413, -0.0330663
-0.5732422, 0.0053711, -0.7763672, 3.5975611, 107.3170776, -31.1585369, -0.0290379
-0.5458984, -0.0219727, -0.8129883, -1.4634147, 102.9878082, -30.3048782, -0.0276951
-0.4726562, -0.0683594, -0.8564453, -2.804878, 101.2804871, -30, -0.0297093
-0.4272461, -0.0844727, -0.8574219, -2.5, 102.0731735, -29.6341476, -0.0332341
-0.359375, -0.1054688, -0.8466797, 0.9146342, 107.4390259, -29.6341476, -0.0417945
-0.3369141, -0.1030273, -0.8422852, 3.3536587, 111.5853653, -29.7560978, -0.0515297
-0.3305664, -0.1074219, -0.8208008, 8.5365858, 119.4512253, -29.8780499, -0.0616007
-0.3481445, -0.1074219, -0.8032227, 10.4268293, 122.86586, -29.6341476, -0.0661326
-0.4052734, -0.1191406, -0.737793, 14.2682934, 127.7439041, -29.2682934, -0.0622721
-0.4926758, -0.1220703, -0.7290039, 15.9756098, 129.4512177, -29.2682934, -0.0599222
-0.5395508, -0.1176758, -0.7739258, 17.560976, 131.4024353, -29.3902454, -0.057908
-0.6259766, -0.109375, -0.9077148, 17.3780499, 130.7317047, -28.841465, -0.0438087
-0.628418, -0.1123047, -0.9536133, 16.8902435, 126.0975647, -26.0975609, -0.0297093
-0.5449219, -0.1416016, -0.9462891, 17.3170738, 122.9268341, -24.5731716, -0.0157778
-0.472168, -0.1650391, -0.8964844, 19.6951218, 119.4512253, -23.4756107, -0.0095674
-0.340332, -0.2001953, -0.7871094, 22.7439022, 123.1707382, -25.9146347, -0.0075532
-0.3100586, -0.2021484, -0.7490234, 24.6341476, 126.9512253, -28.4146347, -0.0135958
-0.3369141, -0.1533203, -0.71875, 27.4390259, 134.3902435, -34.1463432, -0.0203098
-0.387207, -0.1206055, -0.7197266, 28.9024391, 135.4878082, -36.5243912, -0.0213169
-0.4868164, -0.0693359, -0.7338867, 29.2073174, 131.3414612, -39.2682953, -0.0213169
-0.5449219, -0.0732422, -0.7480469, 28.0487804, 127.7439041, -39.0853653, -0.0236667
-0.5522461, -0.0874023, -0.7529297, 25.1219521, 120.8536606, -36.5243912, -0.0320592
-0.5371094, -0.1147461, -0.7758789, 23.5365868, 118.6585388, -35, -0.0323949
-0.5209961, -0.1152344, -0.7929688, 22.560976, 116.8292694, -33.2926826, -0.0320592
-0.4677734, -0.0874023, -0.8320312, 22.6219521, 116.4634171, -33.4756088, -0.0310521
-0.4355469, -0.0722656, -0.8549805, 22.5, 115.18293, -34.6341476, -0.0253452
-0.3686523, -0.0517578, -0.8759766, 18.5975609, 114.3292694, -35.9146347, -0.0236667
-0.3388672, -0.0458984, -0.8730469, 15.7926836, 113.8414688, -36.8902435, -0.0226596
-0.3061523, -0.0493164, -0.8237305, 10.3658543, 113.8414688, -38.9634171, -0.0317235
-0.3066406, -0.0517578, -0.7924805, 8.4756098, 114.0243912, -39.8170738, -0.0525368
-0.3378906, -0.0683594, -0.762207, 8.1097565, 113.2926865, -41.341465, -0.0652934
-0.3920898, -0.1020508, -0.8100586, 9.0243902, 112.9268341, -41.341465, -0.0854353
-0.4213867, -0.1240234, -0.8540039, 10.6707315, 111.9512253, -38.9024391, -0.1075914
-0.4350586, -0.1557617, -0.9277344, 10.8536587, 111.646347, -36.9512215, -0.1341115
-0.4160156, -0.1625977, -0.9448242, 11.0975609, 112.4390259, -32.9268303, -0.1508965
-0.3564453, -0.1464844, -0.9624023, 10.7926836, 113.9024429, -31.7682934, -0.1378042
-0.3334961, -0.1254883, -0.9614258, 10.060976, 117.86586, -32.6829262, -0.1116197
-0.2910156, -0.0839844, -0.9345703, 8.719512, 121.0365906, -36.341465, -0.0720073
-0.2797852, -0.0644531, -0.9145508, 7.9268293, 122.0731735, -37.8658562, -0.0317235
-0.269043, -0.0703125, -0.8867188, 5.5487804, 122.5, -39.0853653, 0.0099031
-0.2817383, -0.0966797, -0.8867188, 4.9390244, 122.0731735, -38.6585388, 0.047837
-0.296875, -0.1645508, -0.9199219, 4.9390244, 120.9756088, -37.3780479, 0.0683146
-0.3027344, -0.2368164, -0.9941406, 5.8536587, 121.0365906, -36.0365868, 0.0775463
-0.2924805, -0.2651367, -1.0317383, 8.9634151, 122.1951218, -32.6219521, 0.079057
-0.2329102, -0.2827148, -1.0405273, 9.7560978, 123.7195129, -31.341465, 0.0730144
-0.2001953, -0.2670898, -1.0078125, 11.219512, 128.9634247, -31.5853672, 0.0555581
-0.1464844, -0.21875, -0.9057617, 12.3780489, 132.0121918, -33.3536606, 0.0340734
-0.1469727, -0.1870117, -0.8710938, 14.1463413, 136.3414612, -39.9390259, 0.0068818
-0.2006836, -0.1401367, -0.8798828, 14.0853662, 136.1585388, -44.9390259, -0.0260166
-0.2441406, -0.1269531, -0.8935547, 12.8048782, 134.8780518, -45.2439041, -0.0387732
-0.3339844, -0.0976562, -0.8769531, 11.5243902, 132.3170776, -43.3536606, -0.0251774
-0.362793, -0.0888672, -0.8461914, 11.5853662, 131.4634247, -41.341465, 0.0052033
-0.3803711, -0.0864258, -0.8081055, 13.2926836, 130.36586, -37.8658562, 0.0491798
-0.371582, -0.1186523, -0.8701172, 12.9878054, 129.8170776, -36.6463432, 0.0750286
-0.3544922, -0.1430664, -0.9189453, 9.3902445, 126.5853653, -35.3048782, 0.0810712
-0.2988281, -0.1762695, -0.9824219, 6.5853658, 123.7195129, -34.8780479, 0.0676432
-0.2568359, -0.1806641, -0.9824219, 2.5609756, 118.8414688, -34.6341476, 0.0461585
-0.1533203, -0.1713867, -0.9604492, 0.9146342, 117.7439041, -35, 0.0246738
-0.1088867, -0.1586914, -0.9594727, -0.0609756, 119.2073212, -35.9756088, 0.0031891
-0.0507812, -0.1357422, -0.9780273, -1.8902439, 122.3780518, -37.0121956, -0.0162814
-0.0405273, -0.1323242, -0.9819336, -3.5365853, 123.7195129, -37.6829262, -0.0297093
-0.0488281, -0.1572266, -0.9213867, -5.3048782, 124.7561035, -38.1097565, -0.0391089
-0.0625, -0.1811523, -0.8837891, -5.9146342, 124.7561035, -38.0487823, -0.0372625
-0.1181641, -0.2299805, -0.8930664, -4.1463413, 125.0609818, -37.1341476, -0.0360876
-0.1884766, -0.2617188, -1.0463867, -2.2560976, 125.5487823, -36.0975609, -0.0317235
-0.1958008, -0.2910156, -1.1113281, 2.0731707, 123.9634171, -32.7439041, -0.0310521
-0.1269531, -0.3325195, -1.1230469, 4.0853658, 122.3780518, -30.7317085, -0.033402
-0.0566406, -0.3442383, -1.0898438, 6.7073174, 123.0487823, -28.4756107, -0.0412909
0.0585938, -0.3481445, -1.0712891, 8.4756098, 126.5853653, -29.3292694, -0.0528725
0.0756836, -0.3481445, -1.0942383, 11.4634151, 137.1341553, -33.0487823, -0.0619364
0.0483398, -0.3383789, -1.1811523, 15.3048782, 144.0243988, -33.9634171, -0.0850996
0.0053711, -0.309082, -1.2021484, 17.0121956, 145.1219482, -31.8902454, -0.1210193
0.0805664, -0.28125, -1.1816406, 16.0365849, 147.3780518, -25.6097565, -0.1346151
0.1489258, -0.2617188, -1.1943359, 17.1951218, 145.8536682, -27.7439022, -0.1534142
0.2255859, -0.2299805, -1.1376953, 17.1951218, 147.7439117, -39.1463432, -0.1696956
0.1660156, -0.2255859, -1.0517578, 16.5243912, 151.8902435, -44.3292694, -0.1596246
0.1132812, -0.2231445, -1.0004883, 15.7317076, 158.0487823, -48.0487823, -0.1384756
-0.0024414, -0.2148438, -0.8657227, 16.5853653, 158.9024353, -47.1341476, -0.0908064
-0.0498047, -0.1967773, -0.7895508, 19.8780499, 157.7439117, -44.6951218, -0.0344091
-0.1640625, -0.1445312, -0.6899414, 21.280489, 157.0731812, -44.3292694, 0.0151064
-0.2294922, -0.1132812, -0.690918, 22.3170738, 153.4146423, -44.7560997, 0.0548867
-0.3413086, -0.0654297, -0.796875, 17.6829281, 142.5609741, -44.3292694, 0.0874495
-0.3618164, -0.0581055, -0.8837891, 13.5975609, 134.6951294, -43.1707344, 0.1018845
-0.2871094, -0.0839844, -1.0737305, 2.804878, 118.1707382, -38.0487823, 0.1045701
-0.1899414, -0.1157227, -1.1357422, -2.7439024, 111.4024429, -34.9390259, 0.1065843
0.0869141, -0.2192383, -1.1162109, -11.5853662, 103.9024429, -30.1219521, 0.0914778
0.3330078, -0.2939453, -0.9638672, -13.7195129, 104.2682953, -29.5731716, 0.0683146
0.3964844, -0.3061523, -0.894043, -12.4390249, 114.8780518, -31.5853672, 0.0475013
0.3935547, -0.2924805, -0.8183594, -9.3902445, 122.2561035, -33.9024391, 0.0293736
0.3349609, -0.2700195, -0.828125, -1.5853659, 130.7317047, -40.4878044, 0.0142672
0.1542969, -0.2143555, -0.9560547, 1.2804878, 130.4878082, -43.841465, 0.0010071
0.0634766, -0.203125, -1.0615234, 3.4146342, 123.8414688, -46.2195129, -0.0068818
-0.0380859, -0.2319336, -1.2661133, -0.9146342, 114.2682953, -41.2195129, -0.018967
-0.0263672, -0.2685547, -1.3334961, -3.3536587, 110.8536606, -36.8292694, -0.0256809
0.1147461, -0.3486328, -1.3818359, -5.3658538, 112.9878082, -28.1707325, -0.0223239
0.2299805, -0.3862305, -1.3745117, -4.5121951, 117.9268341, -26.0975609, -0.0226596
0.4501953, -0.4360352, -1.2832031, 1.3414634, 132.1341553, -27.560976, -0.0310521
0.6010742, -0.4550781, -1.1108398, 5.1219511, 140.0609741, -30.6097565, -0.0397803
0.6201172, -0.4458008, -1.0078125, 10.9756098, 154.146347, -39.3902435, -0.0392767
0.5224609, -0.4013672, -0.875, 14.2073174, 159.6951294, -44.8780479, -0.04448
0.3979492, -0.3696289, -0.8833008, 22.6219521, 164.9390259, -54.6951218, -0.0555581
0.0932617, -0.3100586, -1.0527344, 28.0487804, 163.4146423, -56.8902435, -0.0663005
-0.0273438, -0.293457, -1.1811523, 37.8048782, 154.2073212, -52.2560997, -0.0673075
-0.0810547, -0.269043, -1.4257812, 40.1219521, 144.2073212, -40.6707344, -0.0743572
-0.0112305, -0.2573242, -1.5068359, 38.0487823, 142.6829376, -35.3658562, -0.0914778
0.2548828, -0.2382812, -1.5410156, 30.1219521, 148.3536682, -29.0243912, -0.0991989
0.4067383, -0.230957, -1.4951172, 25.7317085, 153.9024353, -28.7195129, -0.1065843
0.6586914, -0.1953125, -1.3193359, 18.1097565, 167.1341553, -31.280489, -0.10692
0.7773438, -0.1303711, -1.128418, 15.4878054, 172.7439117, -33.6585388, -0.1012131
0.7709961, -0.0908203, -1.0546875, 12.7439032, 180.1219482, -41.2195129, -0.0916457
0.6049805, -0.0273438, -1.0053711, 11.8292685, 180.9756165, -45, -0.0725109
0.4750977, -0.0258789, -1.0151367, 9.1463413, 176.0975647, -49.8170738, -0.0414588
0.1982422, -0.0883789, -1.0356445, 6.6463418, 171.3414612, -49.5121956, -0.0102388
0.0981445, -0.1337891, -1.0214844, -0.5487805, 161.2804871, -42.2560997, 0.0099031
-0.0151367, -0.2080078, -0.9277344, -5.5487804, 154.9390259, -32.5, 0.0246738
-0.0263672, -0.2294922, -0.8647461, -5.9756098, 152.2561035, -29.2073174, 0.0347448
0.0068359, -0.2397461, -0.7734375, -2.195122, 145.8536682, -27.6829281, 0.0454871
0.03125, -0.2460938, -0.7631836, -0.2439024, 140.8536682, -28.9634151, 0.0518654
0.0922852, -0.2539062, -0.7856445, 2.9878049, 128.7195129, -31.7073174, 0.0473335
0.152832, -0.2651367, -0.7958984, 2.9268293, 122.5609818, -32.4390259, 0.0421302
0.1826172, -0.2626953, -0.7880859, 2.8658538, 114.4512253, -32.5, 0.036759
0.2119141, -0.2504883, -0.777832, 3.1707318, 112.2561035, -32.4390259, 0.026688
0.2158203, -0.2373047, -0.8061523, 6.1585369, 109.4512253, -33.1707306, 0.0146029
0.2099609, -0.2148438, -0.9580078, 8.1707315, 107.0731735, -33.4146347, 0.0105745
0.2158203, -0.2324219, -1.0605469, 9.5731707, 100.4878082, -32.3780479, 0.0048676
0.2827148, -0.3222656, -1.2006836, 7.5, 90.5487823, -29.5121956, 0.0018463
0.3530273, -0.3813477, -1.2119141, 5.9756098, 86.7073212, -27.9878063, -0.0015106
0.5131836, -0.4829102, -1.1420898, 5.9756098, 87.3780518, -27.1341476, -0.0109102
0.5717773, -0.5068359, -1.0947266, 8.2317076, 92.3170776, -27.9268303, -0.0196384
0.6000977, -0.4887695, -1.0375977, 18.8414631, 107.2561035, -34.0853653, -0.0250095
0.512207, -0.3979492, -1.1206055, 25.5487804, 113.9024429, -37.4390259, -0.0243381
0.4414062, -0.3369141, -1.2158203, 37.1951218, 122.3170776, -44.2682953, -0.0287022
0.3374023, -0.2475586, -1.4057617, 39.8780479, 123.8414688, -44.8780479, -0.0411231
0.3256836, -0.2329102, -1.4433594, 38.2926826, 124.7561035, -42.2560997, -0.0592508
0.394043, -0.269043, -1.3588867, 34.8780479, 127.0731735, -39.5121956, -0.0762036
0.4414062, -0.3007812, -1.253418, 27.8048782, 137.5609741, -36.341465, -0.0894636
0.4814453, -0.331543, -1.0317383, 27.1341476, 152.7439117, -39.5121956, -0.1038987
0.4521484, -0.3217773, -0.953125, 29.6341476, 158.4756165, -42.8658562, -0.1129625
0.3164062, -0.2626953, -0.9311523, 37.4390259, 161.0365906, -49.2682953, -0.1075914
0.2285156, -0.2148438, -0.9755859, 40.3048782, 158.3536682, -50.4878044, -0.096849
0.1108398, -0.1279297, -1.0996094, 38.4756088, 150.6707306, -47.4390259, -0.1075914
0.1064453, -0.0415039, -1.1962891, 34.1463432, 147.9878082, -44.2073174, -0.0936599
0.1518555, -0.0205078, -1.2265625, 21.9512196, 146.2804871, -37.5609779, -0.0703288
0.2963867, -0.0454102, -1.2446289, 15.2439032, 146.3414612, -35.0609779, -0.0565652
0.3764648, -0.0888672, -1.2382812, 2.5609756, 145.9146423, -32.1951218, -0.0458228
0.5258789, -0.1953125, -1.1831055, -2.3780489, 145.5487823, -31.0975609, -0.0357519
0.5849609, -0.2397461, -1.1396484, -8.0487804, 146.4634247, -29.3292694, -0.0243381
0.652832, -0.2929688, -1.0249023, -8.1097565, 150.8536682, -30.4268303, -0.0058747
0.6455078, -0.3076172, -0.9619141, -6.8292685, 153.5975647, -32.3780479, 0.0092317
0.5380859, -0.3286133, -0.8491211, -2.6829269, 157.6219482, -37.0731697, 0.021149
0.4536133, -0.3354492, -0.800293, -0.8536586, 157.5, -39.3292694, 0.03122
0.2504883, -0.3330078, -0.7363281, 2.2560976, 151.8292694, -41.6463432, 0.0381018
0.0830078, -0.3120117, -0.7250977, 3.7195122, 147.0121918, -41.7073174, 0.0448157
0.0375977, -0.2963867, -0.7353516, 6.6463418, 135.7317047, -39.5731735, 0.0468299
0.0239258, -0.2695312, -0.7817383, 7.6829271, 129.146347, -37.9878044, 0.0501869
0.0668945, -0.2714844, -0.8251953, 8.0487804, 116.5853653, -35.4878044, 0.0528725
0.2055664, -0.3105469, -0.9262695, 6.6463418, 105, -32.4390259, 0.0451514
0.2919922, -0.3427734, -0.9785156, 6.0975609, 99.3902435, -30.4268303, 0.0404517
0.4790039, -0.4287109, -1.0493164, 7.9878049, 92.4390259, -26.8292694, 0.0428016
0.578125, -0.4648438, -1.0732422, 10.3658543, 90.9756088, -25.5487804, 0.0374304
0.7426758, -0.4785156, -1.0883789, 16.8902435, 94.3902435, -26.2195129, 0.0328985
0.8212891, -0.4125977, -1.0693359, 20.9756107, 98.6585388, -28.1097565, 0.0250095
0.8164062, -0.3583984, -1.0615234, 27.5, 110.2439041, -34.8170738, 0.0199741
0.7241211, -0.2231445, -1.0732422, 29.8170738, 115.6707306, -37.9268303, 0.0129244
0.652832, -0.1708984, -1.0927734, 30.7926846, 122.7439041, -40.4268303, 0.0075532
0.5229492, -0.1264648, -1.1420898, 29.3292694, 123.5975647, -39.2682953, -0.005539
0.4858398, -0.1367188, -1.1533203, 23.2317085, 123.4756088, -34.0243912, -0.0095674
0.4697266, -0.1982422, -1.1616211, 16.9512196, 123.4756088, -27.5, -0.0115816
0.4912109, -0.234375, -1.1616211, 14.6951227, 124.2682953, -25.2439022, -0.0082246
0.5522461, -0.2949219, -1.1772461, 13.3536587, 128.6585388, -22.5, -0.0115816
0.5849609, -0.3120117, -1.1914062, 13.7195129, 130.9146423, -21.5853672, -0.0196384
0.6601562, -0.3344727, -1.2158203, 14.5121956, 133.7195129, -21.2195129, -0.030045
0.7387695, -0.3583984, -1.1821289, 13.9634151, 134.7561035, -21.6463413, -0.030045
0.7705078, -0.3569336, -1.1435547, 11.5853662, 138.0487823, -22.3780499, -0.0323949
0.8017578, -0.3544922, -1.027832, 10.3048782, 140.1219482, -23.8414631, -0.0347448
0.7915039, -0.3452148, -0.9750977, 10.060976, 144.8780518, -26.4024391, -0.0303807
0.7353516, -0.3217773, -0.9111328, 10.5487804, 146.0365906, -28.3536587, -0.0313878
0.6918945, -0.3173828, -0.918457, 12.0121956, 144.2073212, -31.5243912, -0.0263523
0.6088867, -0.3129883, -0.9990234, 11.341464, 137.9878082, -31.8292694, -0.0203098
0.5854492, -0.3144531, -1.0395508, 9.8170738, 134.6341553, -30.4878063, -0.0261845
0.5908203, -0.3149414, -1.0820312, 6.5853658, 128.7195129, -27.9268303, -0.0313878
0.6225586, -0.3061523, -1.0717773, 5.3658538, 126.9512253, -27.1341476, -0.027863
0.7045898, -0.2993164, -0.9995117, 3.7804878, 126.7073212, -26.8902454, -0.030045
0.7514648, -0.2949219, -0.9282227, 4.0853658, 127.6219559, -27.7439022, -0.0360876
0.75, -0.2973633, -0.9047852, 5.2439027, 129.0243988, -29.1463413, -0.0337377
0.7119141, -0.3085938, -0.8764648, 5.9146342, 128.3536682, -29.6951218, -0.0323949
0.684082, -0.3144531, -0.8637695, 7.0731707, 123.8414688, -29.6951218, -0.0417945
0.6420898, -0.3408203, -0.8369141, 7.5, 119.9390259, -29.6341476, -0.057908
0.6274414, -0.3613281, -0.8295898, 8.9024391, 111.8902435, -28.780489, -0.0572366
0.6152344, -0.4072266, -0.8364258, 11.280488, 104.0243912, -28.3536587, -0.0493477
0.6186523, -0.4306641, -0.8466797, 12.9268293, 100.7926865, -28.9024391, -0.0503548
0.6396484, -0.4584961, -0.875, 17.2560978, 94.8780518, -28.6585369, -0.0448157
0.6577148, -0.4550781, -0.8920898, 20.1219521, 93.6585388, -28.6585369, -0.0458228
0.7148438, -0.4033203, -0.9335938, 26.7682934, 92.7439041, -28.4756107, -0.0475013
0.7827148, -0.3242188, -0.980957, 29.8170738, 93.0487823, -28.4146347, -0.0421302
0.8144531, -0.2783203, -1.0112305, 34.0243912, 95.3048782, -28.2926826, -0.0458228
0.8686523, -0.215332, -1.0888672, 34.3292694, 97.0731735, -28.0487804, -0.0520333
0.8867188, -0.1987305, -1.1225586, 31.341465, 100.4268341, -27.1341476, -0.064622
0.9072266, -0.2001953, -1.1416016, 28.5365868, 102.2561035, -26.4024391, -0.0679789
0.9130859, -0.2109375, -1.1171875, 22.3170738, 105.8536606, -23.9024391, -0.057908
0.9121094, -0.2485352, -1.0205078, 19.0243912, 109.3902435, -23.7195129, -0.0196384
0.9018555, -0.2670898, -0.965332, 18.2317085, 111.0975647, -23.9024391, 0.0313878
0.8378906, -0.2773438, -0.9135742, 18.9634151, 115.6707306, -24.1463413, 0.0673075
0.7924805, -0.2602539, -0.9345703, 19.6951218, 117.0731735, -23.7195129, 0.0844282
0.7070312, -0.2207031, -1.0258789, 19.1463413, 115.9146347, -21.7073174, 0.0797284
0.6884766, -0.1982422, -1.0664062, 17.6829281, 114.0853653, -20.1219521, 0.0609293
0.7167969, -0.2070312, -1.0512695, 12.0121956, 108.5975647, -18.1707325, 0.0313878
0.7993164, -0.265625, -0.9526367, 8.4146347, 107.3170776, -17.560976, 0.0166171
0.8291016, -0.2998047, -0.8876953, 3.2317073, 107.68293, -18.5975609, 0.0065461
0.8422852, -0.3657227, -0.7729492, 2.0731707, 109.0243912, -19.4512196, -0.0060426
0.8208008, -0.3852539, -0.7368164, 3.1707318, 109.6341476, -22.2560978, -0.01561
0.7441406, -0.402832, -0.7211914, 7.6829271, 105.3048782, -24.4512196, -0.0206455
0.7016602, -0.4042969, -0.7363281, 10.1219511, 101.9512253, -24.5731716, -0.0273594
0.6547852, -0.3999023, -0.7944336, 13.3536587, 94.8780518, -23.4756107, -0.0313878
0.6479492, -0.402832, -0.8188477, 14.2682934, 91.7682953, -22.6219521, -0.0323949
0.6708984, -0.418457, -0.831543, 15.7317076, 88.1707306, -22.439024, -0.036759
0.7216797, -0.4287109, -0.8017578, 16.280489, 86.7682953, -22.8048782, -0.0397803
0.7504883, -0.4345703, -0.7802734, 18.9024391, 85.6707306, -25.5487804, -0.0458228
0.7763672, -0.4208984, -0.7558594, 20.6097565, 85.6707306, -27.1341476, -0.0501869
0.7792969, -0.4047852, -0.78125, 24.3902435, 85.1219559, -29.4512196, -0.0547189
0.7680664, -0.3652344, -0.925293, 26.1585369, 85.1219559, -29.3292694, -0.0498512
0.765625, -0.3417969, -1.0214844, 26.9512196, 84.0853653, -27.6829281, -0.04448
0.8071289, -0.3095703, -1.1928711, 24.8170738, 83.4146347, -24.2073174, -0.0448157
0.8554688, -0.296875, -1.2211914, 22.8658543, 84.0243912, -22.6829281, -0.0480049
0.9853516, -0.2783203, -1.144043, 20.2439022, 89.3902435, -21.7682934, -0.0488441
1.0454102, -0.2685547, -1.0454102, 19.8780499, 94.2682953, -22.6219521, -0.0498512
1.0961914, -0.2368164, -0.828125, 20.8536587, 105.3658524, -25.9756107, -0.0438087
1.0092773, -0.2182617, -0.6943359, 21.2195129, 110, -28.0487804, -0.0411231
0.9267578, -0.2124023, -0.6821289, 20.4878044, 111.7073212, -30.060976, -0.0424659
0.7368164, -0.199707, -0.7504883, 19.0853672, 108.5365906, -29.2682934, -0.04448
0.6552734, -0.1953125, -0.8164062, 13.6585369, 98.5975647, -24.1463413, -0.0391089
0.5893555, -0.1923828, -0.934082, 10.5487804, 93.2926865, -20.7317085, -0.0357519
0.6049805, -0.1918945, -0.9604492, 4.8780489, 85.3658524, -14.5121956, -0.0453193
0.7070312, -0.2163086, -0.9179688, 1.9512196, 82.8658524, -11.8902445, -0.0679789
0.7802734, -0.2402344, -0.8544922, 1.6463414, 83.0487823, -12.8658543, -0.0827497
0.890625, -0.2963867, -0.706543, 2.3170731, 84.8780518, -17.0121956, -0.0844282
0.9140625, -0.3203125, -0.6625977, 2.5609756, 85.4878082, -19.0853672, -0.0877852
0.8896484, -0.3618164, -0.6318359, 3.2926829, 84.146347, -21.2195129, -0.0867781
0.8139648, -0.3769531, -0.706543, 3.3536587, 82.4390259, -20.9756107, -0.0783856
0.78125, -0.3720703, -0.7734375, 3.8414636, 78.0487823, -17.9878044, -0.0666361
0.7382812, -0.3334961, -0.8999023, 4.3292685, 76.646347, -15.6707325, -0.0505226
0.7509766, -0.3139648, -0.9404297, 5.3658538, 75.8536606, -12.0731707, -0.0439765
0.831543, -0.2949219, -0.9111328, 5.7926831, 76.4634171, -11.1585369, -0.0485084
0.8779297, -0.2983398, -0.8515625, 6.5853658, 78.4146347, -13.5365858, -0.04448
0.9389648, -0.3193359, -0.7172852, 6.6463418, 81.8292694, -18.0487804, -0.0344091
0.9345703, -0.3339844, -0.6704102, 7.0121951, 83.8414688, -20, -0.0209812
0.8735352, -0.347168, -0.6420898, 7.6219516, 84.5731735, -21.3414631, -0.0048676
0.8310547, -0.3500977, -0.652832, 7.9878049, 83.2926865, -21.0365868, 0.0139315
0.7734375, -0.3500977, -0.6923828, 9.5731707, 77.0731735, -18.5365849, 0.0271916
0.7631836, -0.3344727, -0.7578125, 10.4878054, 74.0853653, -17.0731716, 0.0327306
0.7841797, -0.3251953, -0.8027344, 11.8902445, 71.5853653, -15.1219511, 0.0394446
0.8256836, -0.3071289, -0.8891602, 12.1951218, 71.7073212, -14.9390249, 0.0392767
0.855957, -0.2871094, -0.9091797, 11.280488, 74.5731735, -14.9390249, 0.033402
0.9223633, -0.2539062, -0.8828125, 10.9756098, 76.3414688, -15.5487804, 0.0152743
0.9555664, -0.2485352, -0.8383789, 8.780488, 79.8170776, -18.0487804, -0.0035248
0.984375, -0.2529297, -0.7280273, 7.2560978, 82.0731735, -20.2439022, -0.0130922
0.9760742, -0.2617188, -0.6816406, 6.5853658, 83.4756088, -20.9146347, -0.0186313
0.9238281, -0.2822266, -0.6577148, 4.8170733, 84.2682953, -20.1219521, -0.0182956
0.8862305, -0.2871094, -0.6850586, 4.0243902, 84.146347, -18.8414631, -0.0250095
0.8217773, -0.2880859, -0.7529297, 1.7073171, 81.9512177, -15.7317076, -0.0263523
0.8076172, -0.2827148, -0.7807617, 0.7317073, 80.6097565, -14.1463413, -0.0176242
0.824707, -0.2797852, -0.7670898, 0.2439024, 78.5975647, -12.560976, -0.0095674
0.8701172, -0.2626953, -0.706543, 0.5487805, 78.2317123, -12.3780489, -0.0015106
0.8955078, -0.2597656, -0.671875, 1.8292683, 79.3292694, -14.0853662, 0.002182
0.9140625, -0.2539062, -0.6274414, 2.195122, 80.5487823, -15, 0.0008392
0.909668, -0.2568359, -0.6132812, 1.5243902, 81.0975647, -16.5243912, -0.0068818
0.8925781, -0.2666016, -0.6235352, -0.4268293, 79.146347, -16.0365849, -0.0236667
0.8876953, -0.2739258, -0.6479492, -2.195122, 77.4390259, -15.3658543, -0.0364233
0.8725586, -0.2924805, -0.7387695, -4.8170733, 75.3048782, -13.1707315, -0.0473335
0.8710938, -0.2929688, -0.7861328, -5.670732, 75.0609741, -11.5853662, -0.054551
0.8916016, -0.2709961, -0.8461914, -5.4878049, 76.5853653, -9.0853662, -0.0508583
0.9448242, -0.2216797, -0.831543, -5.2439027, 77.7439041, -8.6585369, -0.0468299
0.9741211, -0.1948242, -0.8027344, -4.390244, 80.6707306, -9.5121956, -0.0446479
1.0117188, -0.171875, -0.7329102, -4.9390244, 82.5, -10.7317076, -0.0377661
1.0136719, -0.1767578, -0.7050781, -8.3536587, 85.3658524, -12.7439032, -0.0283665
0.9804688, -0.2260742, -0.6640625, -11.280488, 85.6707306, -13.1707315, -0.0182956
0.9604492, -0.2602539, -0.6464844, -17.3170738, 84.0853653, -12.3170738, -0.0135958
0.9287109, -0.3266602, -0.621582, -20.4878044, 80.3658524, -10.9146347, -0.0058747
0.9169922, -0.3574219, -0.6264648, -20.6707325, 78.3536606, -10.7926836, 0.0011749
0.8847656, -0.3969727, -0.6811523, -18.4756107, 76.4024429, -9.8170738, 0.0075532
0.8701172, -0.402832, -0.7084961, -16.280489, 75.8536606, -9.3902445, 0.0095674
0.8701172, -0.3994141, -0.7304688, -12.0121956, 75.4268341, -7.8658538, 0.0105745
0.9106445, -0.3706055, -0.6704102, -9.7560978, 75.1219559, -8.0487804, 0.0052033
0.9316406, -0.3510742, -0.6196289, -5.4878049, 75.2439041, -8.5365858, 0.0011749
0.9545898, -0.315918, -0.519043, -3.3536587, 75.7926865, -9.8170738, -0.0005035
0.9609375, -0.3017578, -0.4926758, -1.1585366, 75.9146347, -11.7682934, -0.0095674
0.9257812, -0.2919922, -0.4799805, -1.097561, 74.6951218, -12.3170738, -0.0184634
