Application:, Trigno Discover (1.6.5)
Date/Time:, 05/02/2025 16:49:33
Collection Length (seconds):, 31.455
wrist (81457), , , , , , bicep (81139)
sensor mode: 609, , , , , , sensor mode: 40
ACC X (G), ACC Y (G), ACC Z (G), GYRO X (deg/s), GYRO Y (deg/s), GYRO Z (deg/s), EMG 1 (mV)
370.3704 Hz, 370.3704 Hz, 370.3704 Hz, 370.3704 Hz, 370.3704 Hz, 370.3704 Hz, 2148.1481 Hz
0.9824219, -0.1044922, -0.1889648, -7.1951222, -4.7560978, 0.5487805, -0.0048676
0.9829102, -0.1157227, -0.1923828, -8.4756098, -4.1463413, 0.8536586, -0.0035248
0.9833984, -0.1235352, -0.1870117, -8.9024391, -4.1463413, 1.3414634, -0.002182
0.9804688, -0.1279297, -0.184082, -9.1463413, -3.7195122, 2.4390244, -0.002182
0.9829102, -0.1367188, -0.1743164, -9.0853662, -3.6585367, 2.5, -0.0008392
0.9853516, -0.1396484, -0.1689453, -8.4146347, -3.5365853, 2.5, -0.0109102
0.984375, -0.1459961, -0.1689453, -8.0487804, -3.4146342, 2.3780489, -0.0162814
0.980957, -0.1430664, -0.1679688, -7.5, -2.9268293, 2.1341465, -0.01561
0.9667969, -0.1323242, -0.1704102, -8.2317076, -3.0487804, 2.4390244, -0.0109102
0.9536133, -0.1152344, -0.1708984, -8.5365858, -2.9268293, 3.1707318, 0.0011749
0.9423828, -0.1069336, -0.1635742, -10.060976, -2.6219513, 5, 0.0062104
0.9423828, -0.1123047, -0.1621094, -11.219512, -2.804878, 5.1219511, 0.0031891
0.9575195, -0.137207, -0.15625, -12.560976, -4.0853658, 4.2682929, 0.0058747
0.96875, -0.1645508, -0.1494141, -13.2317076, -4.8170733, 3.6585367, 0.0095674
0.9736328, -0.1738281, -0.1386719, -12.4390249, -5.670732, 2.5, 0.008896
0.9746094, -0.1860352, -0.1367188, -11.8292685, -5.670732, 1.8292683, 0.0045319
0.9746094, -0.1865234, -0.1352539, -9.3292685, -5.2439027, 2.0731707, 0.002182
0.9780273, -0.1821289, -0.1425781, -7.9878049, -5, 2.1341465, -0.0075532
0.9790039, -0.1816406, -0.1499023, -7.5, -4.7560978, 2.195122, -0.0146029
0.9746094, -0.1616211, -0.1640625, -7.2560978, -4.5121951, 2.195122, -0.0240024
0.9731445, -0.1547852, -0.1733398, -7.6219516, -4.8170733, 2.195122, -0.0323949
0.96875, -0.1425781, -0.1826172, -7.8658538, -5.0609756, 2.3780489, -0.0431373
0.9726562, -0.1376953, -0.1787109, -8.0487804, -5.7317076, 2.3780489, -0.0520333
0.9848633, -0.1313477, -0.168457, -7.4390244, -5.9756098, 1.9512196, -0.0609293
0.9926758, -0.1318359, -0.159668, -7.5, -5.8536587, 1.7682927, -0.0652934
0.9897461, -0.1328125, -0.1542969, -7.3780489, -5.3658538, 1.8292683, -0.0622721
0.9882812, -0.1254883, -0.1567383, -7.4390244, -5.2439027, 1.7682927, -0.0605936
0.9838867, -0.1293945, -0.1601562, -7.8048782, -5.4268293, 1.7682927, -0.0565652
0.9750977, -0.1347656, -0.1679688, -8.3536587, -5.609756, 1.7073171, -0.0542153
0.9663086, -0.1342773, -0.1669922, -8.719512, -6.0975609, 2.0121951, -0.057908
0.9643555, -0.1362305, -0.1704102, -8.719512, -6.890244, 2.4390244, -0.0622721
0.9643555, -0.1396484, -0.1723633, -8.719512, -6.9512196, 2.5, -0.0602579
0.9716797, -0.1469727, -0.1699219, -8.3536587, -6.890244, 2.3780489, -0.0636149
0.9697266, -0.1459961, -0.1665039, -8.0487804, -6.7682929, 2.195122, -0.0659648
0.9682617, -0.1367188, -0.1640625, -7.9878049, -6.9512196, 2.2560976, -0.0686503
0.9614258, -0.1328125, -0.1635742, -7.8048782, -7.1341467, 2.195122, -0.070161
0.9628906, -0.1289062, -0.1606445, -8.0487804, -7.1951222, 2.4390244, -0.0783856
0.9672852, -0.121582, -0.1640625, -7.9878049, -7.5609756, 2.6829269, -0.0807355
0.9667969, -0.1235352, -0.1674805, -8.3536587, -7.6219516, 2.8658538, -0.0820783
0.96875, -0.1259766, -0.1723633, -8.6585369, -7.8048782, 2.5609756, -0.0740215
0.9697266, -0.1264648, -0.1733398, -9.2682924, -7.6829271, 2.195122, -0.0743572
0.9711914, -0.1337891, -0.1743164, -10.1829271, -7.6219516, 2.4390244, -0.0743572
0.9711914, -0.1430664, -0.1674805, -10.3048782, -7.9878049, 2.5, -0.0683146
0.9711914, -0.1484375, -0.1591797, -9.3292685, -8.1097565, 2.804878, -0.0652934
0.9702148, -0.1494141, -0.1586914, -8.841464, -8.0487804, 2.9268293, -0.0599222
0.965332, -0.1489258, -0.1611328, -7.6219516, -8.1097565, 2.6829269, -0.0525368
0.9692383, -0.1474609, -0.1669922, -7.4390244, -7.9268293, 2.6829269, -0.0513619
0.9672852, -0.1523438, -0.1699219, -7.1341467, -7.9878049, 2.5, -0.0471656
0.9741211, -0.1591797, -0.1694336, -7.1951222, -7.9878049, 2.6829269, -0.0464942
0.9775391, -0.159668, -0.1655273, -6.9512196, -7.8658538, 2.4390244, -0.0438087
0.9760742, -0.1552734, -0.15625, -6.890244, -8.0487804, 2.195122, -0.0377661
0.980957, -0.1547852, -0.1542969, -6.3414636, -8.1707315, 1.8902439, -0.0302129
0.9824219, -0.1503906, -0.1572266, -5.609756, -8.1707315, 1.7682927, -0.0216526
0.9814453, -0.1445312, -0.1591797, -5.2439027, -7.8658538, 1.7682927, -0.0169528
0.9829102, -0.1401367, -0.1704102, -5.5487804, -8.0487804, 1.7073171, -0.0176242
0.9833984, -0.1396484, -0.1796875, -5.5487804, -8.0487804, 1.6463414, -0.01561
0.9858398, -0.1381836, -0.1860352, -6.4634147, -8.0487804, 1.6463414, -0.0149386
0.9838867, -0.1337891, -0.1855469, -6.5243902, -7.9268293, 2.0731707, -0.0169528
0.987793, -0.1328125, -0.1801758, -6.6463418, -7.7439027, 2.2560976, -0.0176242
0.9838867, -0.1313477, -0.1708984, -6.9512196, -7.6219516, 2.3780489, -0.0182956
0.9848633, -0.128418, -0.1708984, -6.8292685, -7.1951222, 2.3170731, -0.0206455
0.9799805, -0.1303711, -0.1665039, -7.0121951, -6.890244, 2.3170731, -0.0219883
0.984375, -0.1269531, -0.1728516, -7.6219516, -7.0121951, 2.0121951, -0.0229953
0.9790039, -0.1333008, -0.184082, -8.0487804, -7.0731707, 1.7073171, -0.018967
0.9760742, -0.1367188, -0.1889648, -8.5975609, -7.1951222, 1.8902439, -0.0203098
0.9780273, -0.1362305, -0.1953125, -9.3902445, -7.1341467, 1.9512196, -0.0270237
0.980957, -0.1357422, -0.1943359, -9.4512196, -6.6463418, 2.4390244, -0.030045
0.9755859, -0.1313477, -0.184082, -9.5731707, -6.6463418, 2.804878, -0.0270237
0.9873047, -0.1264648, -0.1679688, -9.2682924, -6.8292685, 3.1097562, -0.0240024
0.9897461, -0.1230469, -0.1665039, -9.0853662, -6.6463418, 2.6219513, -0.0260166
0.9897461, -0.1323242, -0.1723633, -9.0853662, -6.5243902, 2.4390244, -0.0193027
0.9882812, -0.1357422, -0.1767578, -9.6951218, -6.0975609, 1.8902439, -0.0028534
0.9804688, -0.1435547, -0.1757812, -10.4878054, -5.9756098, 2.2560976, 0.0085603
0.9785156, -0.1464844, -0.1728516, -10.7317076, -5.7926831, 2.5, 0.0172885
0.972168, -0.1459961, -0.1635742, -10.1829271, -5.7926831, 2.8658538, 0.008896
0.9760742, -0.1430664, -0.1674805, -9.7560978, -5.9756098, 2.804878, -0.0035248
0.9785156, -0.1337891, -0.1723633, -8.780488, -6.1585369, 2.804878, -0.0135958
0.9755859, -0.1254883, -0.1801758, -9.0243902, -6.2195125, 2.804878, -0.0236667
0.9746094, -0.1235352, -0.1787109, -9.8170738, -5.9146342, 2.9878049, -0.0461585
0.980957, -0.125, -0.1806641, -10.4878054, -6.0365853, 3.1707318, -0.0652934
0.9819336, -0.1279297, -0.1791992, -11.5853662, -5.609756, 3.6585367, -0.0757
0.9863281, -0.1342773, -0.1748047, -11.7682934, -5.9146342, 3.1097562, -0.073518
0.9902344, -0.144043, -0.1723633, -12.5, -6.1585369, 2.8658538, -0.051194
0.9829102, -0.1513672, -0.1635742, -12.7439032, -6.1585369, 2.6829269, -0.01561
0.9750977, -0.1499023, -0.1557617, -12.3780489, -6.2195125, 2.9268293, 0.024506
0.9711914, -0.1425781, -0.1484375, -11.0975609, -5.9756098, 3.5365853, 0.0491798
0.9750977, -0.1362305, -0.1503906, -10.5487804, -6.2195125, 3.5975611, 0.0683146
0.9790039, -0.1318359, -0.1572266, -9.5121956, -6.5243902, 3.4756098, 0.0632792
0.9750977, -0.1352539, -0.1625977, -9.7560978, -6.890244, 3.2317073, 0.054551
0.9760742, -0.1420898, -0.168457, -10.8536587, -6.9512196, 3.0487804, 0.0481727
0.9770508, -0.1464844, -0.15625, -11.4024391, -7.1951222, 3.1707318, 0.0448157
0.9785156, -0.144043, -0.152832, -11.280488, -7.0731707, 3.2317073, 0.0468299
0.9838867, -0.1459961, -0.1518555, -10.9146347, -7.5, 3.1707318, 0.0387732
0.984375, -0.1494141, -0.15625, -9.8170738, -7.7439027, 2.6829269, 0.0365911
0.9819336, -0.1474609, -0.1738281, -9.5731707, -7.7439027, 2.3170731, 0.0370947
0.980957, -0.1455078, -0.1796875, -9.5731707, -7.6829271, 2.3780489, 0.0360876
0.984375, -0.1464844, -0.1889648, -10.3658543, -7.5, 2.8658538, 0.0271916
0.9838867, -0.1474609, -0.1889648, -10.6707315, -7.5609756, 2.9878049, 0.0137636
0.9833984, -0.1479492, -0.1806641, -10.9146347, -7.1951222, 2.8658538, -0.0035248
0.9829102, -0.1416016, -0.1782227, -10.8536587, -7.0731707, 3.0487804, -0.0162814
0.9794922, -0.1367188, -0.1777344, -11.1585369, -6.7073174, 2.6829269, -0.030045
0.9814453, -0.1269531, -0.1811523, -10.8536587, -6.2195125, 2.9878049, -0.0384375
0.9794922, -0.1245117, -0.1777344, -11.4634151, -6.0975609, 2.8658538, -0.0449836
0.9799805, -0.1132812, -0.1669922, -11.7073174, -6.3414636, 2.8658538, -0.0468299
0.9765625, -0.112793, -0.1660156, -12.2560978, -6.7073174, 2.8658538, -0.047837
0.9819336, -0.1166992, -0.1625977, -13.1707315, -6.8292685, 2.9268293, -0.0572366
0.9750977, -0.1235352, -0.1665039, -13.7195129, -6.4024391, 2.804878, -0.0605936
0.9624023, -0.1328125, -0.1611328, -14.8780489, -6.0365853, 3.1097562, -0.0674754
0.9638672, -0.1313477, -0.1582031, -14.6951227, -6.0975609, 3.0487804, -0.0652934
0.9619141, -0.1298828, -0.15625, -14.2682934, -6.9512196, 2.9268293, -0.0605936
0.9692383, -0.1352539, -0.1538086, -13.9024391, -7.3170733, 3.0487804, -0.0693217
0.9716797, -0.1430664, -0.1542969, -13.7195129, -7.9878049, 2.6829269, -0.0760357
0.9819336, -0.1450195, -0.1533203, -13.9634151, -7.9878049, 2.5609756, -0.0787213
0.9799805, -0.1445312, -0.1547852, -13.841464, -7.5609756, 2.5609756, -0.0814069
0.987793, -0.1459961, -0.1625977, -13.9024391, -7.5, 2.5609756, -0.0760357
0.9873047, -0.1425781, -0.1679688, -13.4756098, -7.2560978, 2.3780489, -0.0850996
0.9848633, -0.1430664, -0.175293, -13.1097565, -7.0121951, 2.1341465, -0.0894636
0.9760742, -0.1401367, -0.1811523, -13.0487804, -7.3780489, 2.2560976, -0.0897993
0.9785156, -0.1362305, -0.1777344, -13.1707315, -7.4390244, 2.804878, -0.0894636
0.9785156, -0.1362305, -0.1704102, -12.9878054, -7.4390244, 2.9268293, -0.0861067
0.9819336, -0.1328125, -0.1723633, -12.6829271, -7.1951222, 2.9268293, -0.0810712
0.9863281, -0.1342773, -0.1801758, -12.6829271, -6.9512196, 2.7439024, -0.0736858
0.9838867, -0.1357422, -0.1850586, -13.1097565, -6.9512196, 2.1341465, -0.0659648
0.9790039, -0.1352539, -0.1831055, -13.4756098, -6.7682929, 2.195122, -0.0575723
0.9770508, -0.1347656, -0.1767578, -14.1463413, -6.8292685, 2.7439024, -0.0518654
0.9790039, -0.1279297, -0.1708984, -13.841464, -6.7073174, 3.0487804, -0.0451514
0.9819336, -0.125, -0.1679688, -13.5365858, -6.890244, 3.4146342, -0.0344091
0.987793, -0.1157227, -0.1694336, -13.4146347, -6.7073174, 3.1097562, -0.030045
0.9887695, -0.1230469, -0.171875, -13.6585369, -6.8292685, 3.0487804, -0.0323949
0.9902344, -0.1230469, -0.1767578, -14.3292685, -6.890244, 3.0487804, -0.0273594
0.987793, -0.1259766, -0.1762695, -14.6951227, -6.6463418, 3.0487804, -0.0226596
0.9921875, -0.1279297, -0.1733398, -15.2439032, -6.4634147, 3.0487804, -0.0176242
0.9897461, -0.1347656, -0.1689453, -15.5487804, -6.5243902, 3.1707318, -0.0132601
0.9936523, -0.1337891, -0.168457, -14.8170738, -6.4634147, 2.9268293, -0.0162814
0.9960938, -0.1396484, -0.1704102, -14.5731707, -6.4024391, 2.7439024, -0.0142672
0.9946289, -0.1396484, -0.1713867, -14.2682934, -6.280488, 2.8658538, -0.0151064
0.9951172, -0.144043, -0.1669922, -14.2073174, -6.2195125, 2.9268293, -0.011078
0.9863281, -0.1455078, -0.1650391, -14.0853662, -6.0975609, 2.804878, -0.008896
0.9848633, -0.1474609, -0.1694336, -14.2073174, -6.0975609, 2.6829269, -0.0057069
0.9804688, -0.1489258, -0.1704102, -14.3902445, -5.9146342, 2.9878049, -0.0015106
0.9785156, -0.1293945, -0.1767578, -14.4512196, -6.0365853, 2.804878, -0.0035248
0.9750977, -0.125, -0.1816406, -14.8780489, -6.1585369, 2.9878049, -0.0001678
0.9829102, -0.1201172, -0.1816406, -15.4268293, -6.3414636, 2.7439024, 0.0016785
0.984375, -0.1186523, -0.175293, -15.6707325, -6.5853658, 2.9878049, 0.0025177
0.9848633, -0.1162109, -0.1694336, -16.3414631, -6.4634147, 3.1707318, 0.0078889
0.9858398, -0.1118164, -0.1748047, -16.4634151, -6.0365853, 3.3536587, 0.0129244
0.9863281, -0.1142578, -0.1757812, -17.1341476, -5.7926831, 2.9878049, 0.0119173
0.9780273, -0.1289062, -0.1821289, -17.6219521, -5.609756, 3.1097562, 0.0129244
0.9814453, -0.1391602, -0.1845703, -18.4146347, -5.7926831, 2.9878049, 0.0129244
0.9819336, -0.1499023, -0.1860352, -18.5975609, -5.7926831, 3.4756098, 0.012253
0.980957, -0.1518555, -0.1826172, -18.3536587, -5.7317076, 3.4756098, 0.0125887
0.9833984, -0.1513672, -0.1791992, -16.9512196, -5.1219511, 3.4146342, 0.0068818
0.9829102, -0.144043, -0.1831055, -16.7682934, -5.0609756, 3.3536587, 0.0075532
0.9858398, -0.1342773, -0.2021484, -16.4024391, -4.5121951, 2.9268293, 0.0077211
0.9833984, -0.128418, -0.2104492, -16.7073174, -4.1463413, 2.8658538, 0.0045319
0.9829102, -0.1318359, -0.2104492, -17.3780499, -3.4756098, 2.9878049, 0.0008392
0.9790039, -0.1279297, -0.1953125, -17.439024, -3.4756098, 3.1097562, -0.0031891
0.9794922, -0.1337891, -0.1894531, -17.1951218, -3.2317073, 3.3536587, -0.0082246
0.9785156, -0.1333008, -0.1791992, -16.8292694, -2.8658538, 3.4146342, -0.0083925
0.9770508, -0.1381836, -0.1801758, -16.4634151, -2.0731707, 3.2317073, -0.0075532
0.9667969, -0.1435547, -0.1806641, -16.4024391, -1.1585366, 3.4756098, -0.005539
0.9599609, -0.1416016, -0.1835938, -16.4024391, -1.0365853, 3.9024391, -0.005539
0.9550781, -0.1333008, -0.1904297, -16.0365849, -1.2804878, 4.2682929, -0.0102388
0.9570312, -0.1269531, -0.1889648, -15.4878054, -1.3414634, 4.6951222, -0.0092317
0.96875, -0.1132812, -0.1850586, -14.4512196, -1.2804878, 5, -0.0102388
0.9814453, -0.1098633, -0.1899414, -14.1463413, -1.1585366, 4.6951222, -0.0129244
0.9829102, -0.1113281, -0.1977539, -14.0853662, -0.5487805, 5.0609756, -0.0109102
0.9829102, -0.1259766, -0.2050781, -14.6951227, -0.0609756, 5.0609756, -0.0083925
0.9799805, -0.1293945, -0.2099609, -15.5487804, 1.0365853, 5.5487804, -0.011078
0.9736328, -0.1342773, -0.2231445, -16.0365849, 1.1585366, 5.9146342, -0.0112459
0.9682617, -0.1357422, -0.2294922, -16.4024391, 2.0731707, 6.4634147, -0.012253
0.9711914, -0.1391602, -0.2407227, -15.9756098, 2.6219513, 6.5243902, -0.0135958
0.9702148, -0.1411133, -0.2426758, -16.0365849, 2.9878049, 6.8292685, -0.0179599
0.972168, -0.1396484, -0.2387695, -16.0975609, 3.3536587, 7.0731707, -0.0238346
0.972168, -0.1333008, -0.2421875, -16.2195129, 3.6585367, 7.4390244, -0.0290379
0.9790039, -0.1230469, -0.2392578, -17.0121956, 4.8170733, 8.1707315, -0.0283665
0.9824219, -0.1103516, -0.2270508, -17.7439022, 5.4268293, 8.5975609, -0.0283665
0.9863281, -0.1064453, -0.2182617, -18.9024391, 6.0365853, 8.4756098, -0.0327306
0.9824219, -0.105957, -0.2036133, -19.3902435, 5.9146342, 8.5975609, -0.0350805
0.984375, -0.112793, -0.1977539, -20.7317085, 5.0609756, 7.9268293, -0.0407874
0.9770508, -0.1386719, -0.1904297, -20.9756107, 4.2682929, 7.8658538, -0.0357519
0.9726562, -0.1489258, -0.1899414, -22.3780499, 3.2926829, 8.5365858, -0.0330663
0.965332, -0.1689453, -0.190918, -22.9878063, 2.5, 8.9634151, -0.0337377
0.9619141, -0.1728516, -0.2001953, -23.1707325, 2.2560976, 9.2682924, -0.0310521
0.9545898, -0.1772461, -0.2070312, -23.0487804, 1.402439, 9.3902445, -0.0283665
0.9560547, -0.1767578, -0.2109375, -22.9268303, 0.5487805, 9.3292685, -0.0246738
0.9663086, -0.1708984, -0.2045898, -22.6829281, -1.2804878, 8.5975609, -0.024506
0.9746094, -0.1625977, -0.1933594, -22.7439022, -2.1341465, 8.4756098, -0.0246738
0.9770508, -0.1630859, -0.1879883, -24.2073174, -4.0853658, 8.4756098, -0.0196384
0.9770508, -0.1606445, -0.1821289, -24.8170738, -4.4512196, 8.2317076, -0.0149386
0.9731445, -0.159668, -0.1748047, -26.4024391, -5.9146342, 8.2926826, -0.0124208
0.9589844, -0.1538086, -0.1660156, -26.8902454, -6.7073174, 8.780488, -0.008896
0.9516602, -0.1542969, -0.1679688, -27.3780499, -9.2073174, 9.2682924, -0.0075532
0.9526367, -0.1533203, -0.1655273, -27.9268303, -12.3170738, 9.2682924, -0.0099031
0.9560547, -0.1567383, -0.1728516, -28.2317085, -14.0853662, 9.0243902, -0.0112459
0.9555664, -0.1748047, -0.1801758, -28.9024391, -17.3780499, 8.4756098, -0.0135958
0.9609375, -0.1806641, -0.1860352, -29.2682934, -18.780489, 8.3536587, -0.0193027
0.9702148, -0.2041016, -0.2050781, -29.9390259, -20.6097565, 8.2317076, -0.0159457
0.9760742, -0.2133789, -0.2197266, -29.9390259, -21.4634151, 8.0487804, -0.0135958
0.9770508, -0.2084961, -0.2255859, -29.3292694, -23.0487804, 8.1097565, -0.0082246
0.9858398, -0.1899414, -0.2431641, -28.7195129, -23.5975609, 8.2317076, -0.0057069
0.9951172, -0.1757812, -0.2485352, -28.1097565, -25.060976, 8.2317076, -0.0001678
1.0063477, -0.1552734, -0.2504883, -27.9878063, -25.6707325, 8.4756098, 0.0018463
1.0048828, -0.1503906, -0.2436523, -28.2926826, -26.5853672, 8.5365858, 0.0005035
1.0058594, -0.1450195, -0.2270508, -29.2073174, -27.3170738, 8.9024391, -0.0045319
1.0004883, -0.1391602, -0.2192383, -29.3902454, -27.6219521, 9.3292685, -0.0082246
0.9921875, -0.140625, -0.2119141, -30.4268303, -28.841465, 9.3902445, -0.0102388
0.9858398, -0.1425781, -0.2114258, -30.8536587, -29.8780499, 9.3292685, -0.0162814
0.9741211, -0.1455078, -0.2314453, -31.9512196, -31.8902454, 9.1463413, -0.0159457
0.9711914, -0.15625, -0.2460938, -32.6829262, -32.9268303, 8.780488, -0.0130922
0.9677734, -0.1694336, -0.2578125, -34.4512215, -34.8170738, 8.841464, -0.0109102
0.9794922, -0.1855469, -0.2802734, -34.8170738, -35.6097565, 8.9634151, -0.0085603
0.9907227, -0.1884766, -0.2910156, -35, -36.7682953, 9.5121956, -0.0085603
1.0043945, -0.1865234, -0.3149414, -34.6951218, -36.5243912, 9.5121956, -0.0041962
1.0097656, -0.175293, -0.3183594, -34.3292694, -35.6097565, 9.6951218, -0.0058747
1.0195312, -0.1611328, -0.3227539, -34.9390259, -35.1829262, 9.9390249, -0.0058747
1.0219727, -0.15625, -0.3149414, -35.9756088, -35.1829262, 10, -0.0149386
1.0205078, -0.1459961, -0.3139648, -38.4756088, -35.3048782, 10.1219511, -0.0203098
1.015625, -0.1474609, -0.3085938, -40.2439041, -35.3658562, 10.3048782, -0.0219883
1.0126953, -0.15625, -0.3071289, -42.4390259, -35.9756088, 10.4268293, -0.0223239
1.0024414, -0.1669922, -0.3110352, -43.5975609, -36.2195129, 10.7926836, -0.0223239
1.0048828, -0.1733398, -0.3154297, -44.6341476, -37.3780479, 10.6707315, -0.0256809
1.0053711, -0.1821289, -0.3266602, -45.1829262, -37.6829262, 10.9146347, -0.0256809
1.0029297, -0.1835938, -0.331543, -45.6097565, -37.6829262, 11.0975609, -0.0283665
1.0087891, -0.1816406, -0.3266602, -45.9756126, -37.8048782, 11.1585369, -0.0323949
1.0048828, -0.1831055, -0.3242188, -46.5853653, -38.3536606, 11.7073174, -0.0397803
1.003418, -0.1733398, -0.3139648, -46.7682953, -39.4512215, 11.9512196, -0.0412909
1.0009766, -0.171875, -0.3071289, -47.1341476, -39.5121956, 12.1951218, -0.0407874
0.9916992, -0.1650391, -0.3046875, -48.4146347, -40.6707344, 12.3170738, -0.0438087
0.9873047, -0.1625977, -0.3037109, -49.1463432, -41.341465, 12.3780489, -0.0488441
0.9868164, -0.1464844, -0.3012695, -50.3048782, -43.2926826, 12.6829271, -0.047837
0.9912109, -0.1455078, -0.2998047, -51.1585388, -44.5121956, 12.6829271, -0.0446479
0.9946289, -0.1464844, -0.2924805, -52.1951218, -47.3170738, 12.4390249, -0.0374304
1.0092773, -0.1650391, -0.3037109, -52.6219521, -48.4756126, 12.3780489, -0.0337377
1.0146484, -0.1767578, -0.3012695, -53.1097565, -50.7317085, 12.560976, -0.0260166
1.0234375, -0.1948242, -0.2958984, -52.9878044, -51.341465, 12.6829271, -0.018967
1.0258789, -0.2001953, -0.2900391, -51.7073174, -52.7439041, 12.8048782, -0.014435
1.0200195, -0.2094727, -0.2856445, -49.6951218, -53.6585388, 12.9268293, -0.0072175
1.0175781, -0.2133789, -0.2861328, -49.2073174, -54.5121956, 12.8658543, -0.005539
0.9902344, -0.2192383, -0.3007812, -48.6585388, -55.2439041, 12.6219511, -0.0102388
0.9770508, -0.2177734, -0.3164062, -48.5365868, -55.6097565, 12.7439032, -0.0129244
0.949707, -0.2133789, -0.3398438, -49.2682953, -56.6463432, 14.0243902, -0.0135958
0.9394531, -0.1928711, -0.3491211, -49.2073174, -57.3780518, 14.5731707, -0.0152743
0.9443359, -0.184082, -0.3535156, -48.2317085, -58.7195129, 15.9756098, -0.0149386
0.965332, -0.1645508, -0.3642578, -47.8048782, -59.6951218, 15.9756098, -0.018967
0.980957, -0.1630859, -0.3623047, -47.2560997, -61.8902435, 15.9146347, -0.0226596
1.0063477, -0.1733398, -0.3535156, -47.5, -62.6219521, 15.3658543, -0.0283665
1.0141602, -0.184082, -0.3476562, -47.7439041, -63.9634171, 14.3292685, -0.0307164
1.0229492, -0.1977539, -0.3417969, -47.1341476, -64.3902435, 13.841464, -0.0340734
1.0234375, -0.2041016, -0.3422852, -46.341465, -64.8170776, 13.4146347, -0.0404517
1.0117188, -0.2143555, -0.362793, -44.3902435, -64.5121994, 13.5975609, -0.0407874
1.0024414, -0.2177734, -0.3764648, -43.7804871, -64.8780518, 14.0853662, -0.0421302
0.9882812, -0.2080078, -0.4033203, -42.7439041, -65.3048782, 14.8780489, -0.0417945
0.9868164, -0.1811523, -0.4194336, -42.8048782, -65.7317123, 15.3048782, -0.0448157
0.9916992, -0.171875, -0.4223633, -43.3536606, -66.6463394, 15.7317076, -0.0438087
1.0068359, -0.15625, -0.4155273, -44.3292694, -67.1951218, 15.4878054, -0.0394446
1.0136719, -0.1557617, -0.4125977, -46.0365868, -68.7804871, 14.4512196, -0.0407874
1.0224609, -0.1547852, -0.4052734, -47.7439041, -70, 13.4756098, -0.0381018
1.0249023, -0.1630859, -0.4013672, -48.5365868, -70.8536606, 13.1707315, -0.0391089
1.0317383, -0.1787109, -0.4135742, -49.6951218, -71.9512177, 12.7439032, -0.0350805
1.03125, -0.184082, -0.4179688, -50.1829262, -72.3780518, 12.4390249, -0.0357519
1.0273438, -0.1987305, -0.4428711, -51.2804909, -73.4146347, 12.5, -0.0411231
1.027832, -0.2104492, -0.4589844, -51.7682953, -73.7195129, 12.6829271, -0.047837
1.0258789, -0.2089844, -0.4604492, -52.5, -74.3902435, 13.4756098, -0.0458228
1.0288086, -0.2011719, -0.4580078, -52.6829262, -74.2682953, 13.9024391, -0.04448
1.0258789, -0.1928711, -0.4555664, -52.3780518, -73.5975647, 14.6341467, -0.0404517
1.0214844, -0.1689453, -0.4570312, -52.1951218, -73.4146347, 15.060976, -0.0313878
1.0141602, -0.1606445, -0.4604492, -52.6829262, -72.8048782, 15.4878054, -0.0209812
1.0014648, -0.1430664, -0.4726562, -53.9634171, -73.5365906, 16.0975609, -0.0203098
0.9946289, -0.1386719, -0.4731445, -54.2073174, -73.9634171, 16.3414631, -0.0194705
0.980957, -0.1298828, -0.465332, -55.6707344, -75.3048782, 17.1951218, -0.0151064
0.9824219, -0.1342773, -0.4594727, -55.9756126, -75.8536606, 17.2560978, -0.0109102
0.9819336, -0.1479492, -0.4467773, -56.4634171, -77.5609741, 17.1951218, -0.0075532
0.9858398, -0.1723633, -0.4550781, -56.4024391, -78.2317123, 16.8902435, -0.0015106
0.9873047, -0.1879883, -0.4697266, -56.5243912, -78.9634171, 16.3414631, 0.0038605
0.9887695, -0.2216797, -0.5053711, -56.4024391, -79.0243912, 16.3414631, -0.0008392
0.9873047, -0.2241211, -0.5249023, -55.5487823, -78.2926865, 17.560976, -0.0112459
0.9926758, -0.2080078, -0.5405273, -55.2439041, -77.9268341, 18.2317085, -0.0203098
1.0004883, -0.1918945, -0.5332031, -54.5121956, -77.2560959, 20.3658543, -0.0337377
1.019043, -0.1572266, -0.4960938, -54.8170738, -76.646347, 21.4634151, -0.0438087
1.0185547, -0.1469727, -0.4770508, -55.4268303, -76.7073212, 21.7073174, -0.0417945
1.0058594, -0.1347656, -0.4399414, -57.1951218, -78.1707306, 20.3658543, -0.0204776
0.9858398, -0.1357422, -0.4345703, -58.2317085, -79.2073212, 19.939024, 0.0125887
0.9487305, -0.1582031, -0.4243164, -59.8170738, -82.5609741, 19.4512196, 0.0468299
0.9174805, -0.199707, -0.4033203, -60.1219521, -84.8780518, 19.7560978, 0.0743572
0.902832, -0.2192383, -0.3955078, -60.4268303, -89.4512253, 20.2439022, 0.0840925
0.8862305, -0.2592773, -0.394043, -60.1219521, -91.2804871, 20.6707325, 0.0767071
0.8828125, -0.2685547, -0.4057617, -58.7195129, -94.8780518, 20.6707325, 0.064622
0.8813477, -0.2734375, -0.4365234, -57.68293, -96.5853653, 20.4268303, 0.0501869
0.8823242, -0.2587891, -0.4555664, -55.4268303, -99.0853653, 20, 0.0273594
0.8974609, -0.2294922, -0.4926758, -54.0243912, -102.3170776, 20.3048782, 0.0104067
0.9135742, -0.2114258, -0.5083008, -54.1463432, -103.5365906, 20.5487804, 0.0020142
0.9511719, -0.2026367, -0.5200195, -54.8170738, -106.646347, 20.060976, -0.0031891
0.9697266, -0.199707, -0.5195312, -54.6951218, -108.1707306, 19.1463413, -0.0078889
0.9931641, -0.2036133, -0.5273438, -54.3292694, -110, 17.8658543, -0.0099031
0.996582, -0.2011719, -0.5571289, -54.2073174, -109.8780518, 17.439024, -0.0102388
0.9916992, -0.1928711, -0.5712891, -54.0853653, -109.8170776, 17.5, -0.0068818
0.9838867, -0.1689453, -0.5966797, -54.2073174, -109.6951218, 18.1097565, -0.0099031
0.9863281, -0.1547852, -0.6083984, -55.3048782, -110.7317123, 18.780489, -0.0102388
0.9892578, -0.1391602, -0.6083984, -55.9756126, -111.7073212, 19.1463413, -0.0095674
0.9926758, -0.140625, -0.6064453, -57.7439041, -112.68293, 19.2073174, -0.0147707
1.0053711, -0.1611328, -0.6035156, -60.4878044, -113.9634171, 19.1463413, -0.017792
1.0043945, -0.1796875, -0.6040039, -61.341465, -114.6341476, 18.6585369, -0.0240024
0.9956055, -0.2182617, -0.6088867, -62.3170738, -115.3048782, 18.4756107, -0.0317235
0.9829102, -0.230957, -0.609375, -62.1951218, -115.5487823, 18.6585369, -0.0270237
0.9633789, -0.2451172, -0.5976562, -59.6951218, -115.4878082, 20.3658543, -0.0240024
0.9550781, -0.2407227, -0.5639648, -57.9268303, -115.8536606, 21.2195129, -0.0280308
0.956543, -0.2333984, -0.5512695, -54.6951218, -116.2804871, 22.2560978, -0.0263523
0.9633789, -0.2094727, -0.5571289, -53.841465, -116.7073212, 22.5, -0.0223239
0.96875, -0.1958008, -0.5698242, -53.1707344, -118.1097565, 21.7073174, -0.018967
0.9697266, -0.1787109, -0.6015625, -53.0487823, -119.2073212, 21.1585369, -0.0176242
0.9707031, -0.1762695, -0.6147461, -53.841465, -122.3170776, 19.3292694, -0.0105745
0.9804688, -0.1953125, -0.6333008, -54.4512215, -124.2682953, 18.7195129, -0.0095674
0.980957, -0.2080078, -0.6357422, -54.4512215, -124.5731735, 19.0853672, -0.0125887
0.9892578, -0.2197266, -0.6411133, -52.6219521, -124.2682953, 19.939024, -0.0139315
0.9921875, -0.21875, -0.6499023, -52.0731735, -123.9024429, 20.3658543, -0.01561
1.0019531, -0.2148438, -0.675293, -50.6097565, -123.4756088, 20.6097565, -0.0149386
1.0068359, -0.2050781, -0.6860352, -50.4268303, -123.7195129, 20.5487804, -0.014435
1.0083008, -0.2114258, -0.6791992, -51.4024391, -124.6951218, 19.2073174, -0.0176242
1.0092773, -0.2324219, -0.6445312, -52.0731735, -125.4268341, 18.8414631, -0.0095674
1.0043945, -0.2421875, -0.6254883, -52.5, -126.4024429, 18.1097565, -0.0041962
0.9863281, -0.2397461, -0.6049805, -52.4390259, -126.7682953, 17.8048782, -0.0041962
0.9750977, -0.2373047, -0.6166992, -50.7317085, -126.9512253, 17.3780499, -0.0008392
0.953125, -0.2172852, -0.6542969, -49.2682953, -129.0853729, 16.8902435, -0.0008392
0.9487305, -0.2148438, -0.6713867, -48.841465, -130.0609741, 16.4634151, -0.0048676
0.9506836, -0.2143555, -0.6918945, -49.1463432, -132.3170776, 16.8292694, -0.0052033
0.9589844, -0.2089844, -0.6899414, -48.7804871, -132.9268341, 17.1341476, -0.0162814
0.9731445, -0.1914062, -0.6796875, -48.4146347, -133.0487823, 17.6219521, -0.0290379
0.9829102, -0.1806641, -0.6762695, -47.6829262, -132.6829224, 17.6219521, -0.036759
0.9868164, -0.1665039, -0.6850586, -46.8902435, -131.5243988, 17.1951218, -0.0384375
0.9863281, -0.171875, -0.71875, -46.7073174, -131.646347, 16.7682934, -0.036759
0.9853516, -0.184082, -0.7338867, -47.6219521, -132.6829224, 15.9756098, -0.0337377
0.9829102, -0.2084961, -0.762207, -48.2926826, -133.1707306, 16.2195129, -0.0303807
0.9760742, -0.2167969, -0.7719727, -49.4512215, -133.5975647, 17.3780499, -0.0273594
0.9750977, -0.2109375, -0.7729492, -49.0243912, -132.7439117, 18.8414631, -0.0276951
0.9799805, -0.1948242, -0.7739258, -48.3536606, -131.5243988, 19.2682934, -0.0313878
0.9838867, -0.1513672, -0.777832, -48.4756126, -129.6951294, 19.1463413, -0.0317235
0.9868164, -0.1264648, -0.7817383, -49.3292694, -129.3292694, 18.7195129, -0.0310521
0.9892578, -0.0981445, -0.7783203, -52.8048782, -129.3292694, 17.560976, -0.0337377
0.9956055, -0.1103516, -0.7592773, -54.6951218, -130, 17.6219521, -0.0364233
0.9970703, -0.1357422, -0.7524414, -57.5609779, -130.9146423, 16.9512196, -0.0394446
0.9873047, -0.2021484, -0.7460938, -58.7804909, -131.5853729, 17.1341476, -0.0394446
0.9746094, -0.2324219, -0.7441406, -58.7195129, -132.3170776, 17.2560978, -0.0377661
0.9448242, -0.262207, -0.7407227, -58.2926826, -132.1341553, 17.5, -0.0382696
0.9296875, -0.2592773, -0.7363281, -56.2804909, -131.5853729, 17.439024, -0.0303807
0.9130859, -0.2265625, -0.7275391, -54.3902435, -132.3780518, 16.8902435, -0.0209812
0.9042969, -0.2084961, -0.7299805, -53.9024391, -133.2317047, 15.9146347, -0.0045319
0.9008789, -0.1767578, -0.7539062, -53.7804909, -135.36586, 14.8170738, 0.0025177
0.9091797, -0.1699219, -0.7724609, -54.2682953, -136.5853729, 14.0243902, 0.0102388
0.9194336, -0.1870117, -0.7963867, -55.7317085, -139.146347, 13.3536587, 0.0102388
0.9458008, -0.2216797, -0.7836914, -55.9756126, -140, 13.4756098, 0.0075532
0.9501953, -0.2446289, -0.7749023, -55.2439041, -140.36586, 13.5975609, 0.0031891
0.9541016, -0.2734375, -0.777832, -54.0853653, -139.7561035, 13.7195129, -0.0031891
0.9428711, -0.2705078, -0.7900391, -50.3048782, -138.2317047, 13.841464, -0.014435
0.9174805, -0.2250977, -0.8076172, -48.1707344, -137.7439117, 13.9634151, -0.0303807
0.90625, -0.1855469, -0.8017578, -46.4634171, -136.8902435, 13.9024391, -0.0357519
0.9003906, -0.1137695, -0.7871094, -47.1341476, -135.9756165, 12.6829271, -0.0404517
0.8950195, -0.0986328, -0.7817383, -47.9878044, -136.2804871, 12.0121956, -0.0377661
0.8720703, -0.1162109, -0.8022461, -51.1585388, -138.2926788, 10.6707315, -0.0347448
0.8671875, -0.1396484, -0.815918, -51.9512215, -139.9390259, 10.4268293, -0.0357519
0.8662109, -0.2021484, -0.8168945, -53.2926826, -143.7195129, 10.6707315, -0.0384375
0.8764648, -0.2338867, -0.7866211, -53.2926826, -144.2073212, 11.0975609, -0.0441444
0.8769531, -0.2290039, -0.7788086, -50.3658562, -142.3170776, 11.4634151, -0.051194
0.855957, -0.1884766, -0.7988281, -48.6585388, -141.0365906, 11.4634151, -0.0522011
0.8413086, -0.1572266, -0.8173828, -45.9756126, -139.8780518, 10.4878054, -0.0565652
0.8203125, -0.1210938, -0.8422852, -45.8536606, -140.6097565, 9.8780489, -0.0599222
0.8203125, -0.1171875, -0.8417969, -47.3780518, -142.5, 9.7560978, -0.0595865
0.8139648, -0.1469727, -0.8369141, -49.2682953, -143.9634247, 9.6341467, -0.0555581
0.8183594, -0.1733398, -0.8330078, -49.5731735, -144.5121918, 9.5121956, -0.0572366
0.8144531, -0.2109375, -0.8198242, -47.8048782, -144.8780518, 10.4268293, -0.0565652
0.8125, -0.2177734, -0.8242188, -46.4024391, -144.5731812, 10.3048782, -0.0585794
0.8066406, -0.2084961, -0.8574219, -43.9634171, -143.2317047, 10.2439022, -0.0652934
0.7875977, -0.1899414, -0.9111328, -43.1097565, -142.86586, 10.4268293, -0.0666361
0.7822266, -0.1762695, -0.9233398, -42.2560997, -142.9268341, 10.9756098, -0.0746929
0.7978516, -0.1660156, -0.9125977, -42.3780479, -142.9878082, 11.4024391, -0.0787213
0.8085938, -0.1552734, -0.9008789, -42.9878044, -142.0121918, 11.341464, -0.0770428
0.8134766, -0.1357422, -0.8852539, -42.7439041, -140.9756165, 11.0975609, -0.0777142
0.8066406, -0.125, -0.8842773, -42.6829262, -138.8414612, 10.4878054, -0.0693217
0.7885742, -0.1113281, -0.8867188, -42.8048782, -138.4146423, 10.3658543, -0.0679789
0.7807617, -0.1176758, -0.8959961, -42.9268303, -138.6585388, 10.4268293, -0.0659648
0.7587891, -0.1474609, -0.8974609, -43.7804871, -139.4512177, 11.4634151, -0.0572366
0.7539062, -0.1616211, -0.8911133, -44.0243912, -139.5121918, 12.5, -0.0565652
0.7387695, -0.1806641, -0.8583984, -43.1097565, -138.9634247, 13.4146347, -0.0525368
0.7275391, -0.1826172, -0.8481445, -42.5609779, -138.6585388, 13.4146347, -0.0431373
0.7143555, -0.1679688, -0.862793, -41.341465, -138.1707306, 12.9268293, -0.0411231
0.6928711, -0.1308594, -0.9208984, -40.9756088, -138.5975647, 12.6219511, -0.0387732
0.6918945, -0.1162109, -0.9394531, -42.0731735, -141.0365906, 12.8048782, -0.0377661
0.7167969, -0.1079102, -0.9414062, -43.1707344, -142.4390259, 13.0487804, -0.0327306
0.734375, -0.1181641, -0.9243164, -45.2439041, -144.0243988, 13.7195129, -0.0206455
0.7578125, -0.1489258, -0.8833008, -45.1829262, -143.3536682, 13.5365858, -0.0139315
0.7602539, -0.1655273, -0.8691406, -44.3292694, -142.3780518, 13.7195129, -0.0075532
0.7363281, -0.1943359, -0.8754883, -42.2560997, -140.9146423, 12.8048782, -0.005539
0.7231445, -0.2026367, -0.8911133, -41.2804871, -141.1585388, 12.6829271, -0.003357
0.6948242, -0.2128906, -0.9321289, -39.9390259, -142.5609741, 13.0487804, -0.0028534
0.6884766, -0.1962891, -0.9741211, -39.8780479, -142.86586, 13.2317076, -0.0005035
0.6904297, -0.1743164, -0.9838867, -40.2439041, -142.6829376, 13.3536587, -0.002182
0.7011719, -0.1303711, -0.9736328, -40.8536606, -142.6219482, 12.8048782, -0.0003357
0.703125, -0.1142578, -0.9575195, -41.9512215, -142.0121918, 11.1585369, -0.0008392
0.7050781, -0.128418, -0.9106445, -42.6219521, -141.9512177, 10.6707315, -0.0035248
0.6982422, -0.1401367, -0.8979492, -42.6219521, -142.2561035, 10.3658543, -0.0062104
0.6782227, -0.1762695, -0.9111328, -40.5487823, -142.9268341, 10.9146347, -0.0109102
0.6674805, -0.190918, -0.9458008, -39.5121956, -143.2926788, 10.9146347, -0.0102388
0.6567383, -0.2099609, -1.0097656, -37.8048782, -143.1707306, 12.1951218, -0.0129244
0.6582031, -0.2167969, -1.027832, -37.5, -143.1707306, 12.6219511, -0.0078889
0.6743164, -0.2026367, -0.9936523, -36.9512215, -142.8048859, 13.1097565, -0.008896
0.690918, -0.1606445, -0.9379883, -37.0731697, -142.0731812, 12.4390249, -0.0124208
0.6879883, -0.1401367, -0.9238281, -36.4634171, -139.7561035, 10.3048782, -0.0065461
0.6567383, -0.1132812, -0.9467773, -36.5243912, -139.2682953, 9.1463413, 0.0052033
0.6376953, -0.112793, -0.9711914, -37.0121956, -140.9756165, 8.841464, 0.0090639
0.6245117, -0.1318359, -0.9921875, -37.6219521, -142.1951294, 9.0853662, 0.0112459
0.6333008, -0.1542969, -0.9853516, -39.3292694, -144.0243988, 10.2439022, 0.0129244
0.6450195, -0.1723633, -0.9643555, -39.5731735, -142.7439117, 10, 0.0199741
0.6430664, -0.1743164, -0.96875, -38.7804871, -141.9512177, 9.6341467, 0.0179599
0.628418, -0.1489258, -1.0039062, -37.2560997, -140.4878082, 9.3902445, 0.0142672
0.6162109, -0.1230469, -1.034668, -37.1341476, -140.4268341, 9.0853662, 0.0006714
0.6225586, -0.0722656, -1.0732422, -38.7804871, -140.36586, 9.8170738, -0.0179599
0.6547852, -0.0625, -1.0473633, -40.4878044, -140.36586, 9.9390249, -0.0317235
0.668457, -0.0800781, -1.0126953, -43.5365868, -139.6951294, 9.5121956, -0.0392767
0.6665039, -0.1591797, -0.9458008, -44.4512215, -139.2073212, 9.2073174, -0.0417945
0.6474609, -0.1943359, -0.9243164, -42.7439041, -137.4390259, 9.5731707, -0.0317235
0.5878906, -0.2348633, -0.9091797, -40.7317085, -136.7073212, 9.5731707, -0.0082246
0.5576172, -0.2314453, -0.9169922, -34.9390259, -136.1585388, 10.1219511, 0.0310521
0.4995117, -0.206543, -0.9604492, -30.7317085, -135.9146423, 10, 0.0669718
0.4892578, -0.1835938, -0.9907227, -29.2073174, -136.1585388, 10, 0.085771
0.4897461, -0.1582031, -1.0366211, -29.0853672, -137.6219482, 10.3658543, 0.0918135
0.5117188, -0.1513672, -1.059082, -29.4512196, -138.9634247, 10.6707315, 0.0770428
0.5732422, -0.15625, -1.0566406, -30.7317085, -140.1829376, 10.8536587, 0.0495155
0.621582, -0.1655273, -1.0073242, -30.7317085, -139.3292694, 10.6707315, 0.0226596
0.6264648, -0.1669922, -0.9941406, -29.2073174, -134.6951294, 9.9390249, -0.0041962
0.5898438, -0.1635742, -1.0063477, -27.2560978, -131.8902435, 10, -0.0209812
0.5644531, -0.1577148, -1.0136719, -23.3536587, -129.6951294, 11.219512, -0.0317235
0.5317383, -0.1362305, -1.0039062, -21.8292694, -129.5121918, 12.0121956, -0.0411231
0.5166016, -0.1235352, -1.0009766, -21.3414631, -129.2682953, 12.3780489, -0.047837
0.4848633, -0.097168, -1.0063477, -22.2560978, -128.4756165, 11.7073174, -0.0569009
0.4638672, -0.0878906, -1.0126953, -23.2926826, -129.5121918, 11.4024391, -0.063447
0.4584961, -0.0913086, -1.0131836, -25.1829281, -132.5, 11.280488, -0.0654612
0.4550781, -0.0986328, -1.0004883, -26.1585369, -134.146347, 11.5853662, -0.0632792
0.4667969, -0.1171875, -0.9628906, -26.2195129, -135.2439117, 12.3780489, -0.0652934
0.4667969, -0.1362305, -0.9448242, -25.4878063, -135.36586, 12.4390249, -0.0663005
0.4584961, -0.1396484, -0.9438477, -23.5975609, -135, 12.560976, -0.0703288
0.4204102, -0.1435547, -0.9345703, -22.6829281, -135.6707306, 12.7439032, -0.0758679
0.4023438, -0.1328125, -0.9331055, -21.1585369, -136.5243988, 12.560976, -0.0753643
0.3725586, -0.1264648, -0.9350586, -19.5731716, -138.2317047, 12.2560978, -0.0726787
0.3623047, -0.1328125, -0.9472656, -18.780489, -139.4512177, 12.3170738, -0.0716716
0.3525391, -0.1650391, -0.984375, -18.1097565, -142.0121918, 13.3536587, -0.0760357
0.3583984, -0.1713867, -1.0068359, -17.7439022, -142.8048859, 13.841464, -0.0787213
0.3847656, -0.1669922, -1.0610352, -16.280489, -143.1707306, 15.060976, -0.0726787
0.4291992, -0.125, -1.0800781, -15.9756098, -143.2317047, 14.8170738, -0.0673075
0.4526367, -0.1035156, -1.0673828, -16.2195129, -141.8292694, 13.6585369, -0.057908
0.4711914, -0.0834961, -0.9907227, -17.2560978, -141.2195129, 12.6219511, -0.0525368
0.4667969, -0.0839844, -0.9541016, -19.0243912, -139.5121918, 10.7926836, -0.0498512
0.40625, -0.1025391, -0.9365234, -19.0243912, -138.7804871, 10.2439022, -0.0441444
0.3652344, -0.1064453, -0.9692383, -17.7439022, -138.2317047, 9.9390249, -0.0352483
0.2998047, -0.1132812, -1.0756836, -17.2560978, -140.1829376, 11.0365858, -0.0270237
0.2895508, -0.1088867, -1.1254883, -17.5, -141.0975647, 12.0121956, -0.0162814
0.3139648, -0.0942383, -1.1552734, -18.5365849, -143.4146423, 14.8170738, -0.0035248
0.3544922, -0.0859375, -1.1289062, -19.6951218, -143.5365906, 15.6097565, -0.0041962
0.4213867, -0.0625, -1.0229492, -20.7926826, -140.6097565, 14.4512196, -0.0005035
0.4233398, -0.0800781, -0.9570312, -20.7317085, -138.2317047, 12.9878054, 0.0075532
0.3901367, -0.1010742, -0.9462891, -20.4268303, -136.0975647, 11.7073174, 0.0152743
0.3208008, -0.1518555, -0.9594727, -20, -136.5853729, 11.8292685, 0.0219883
0.2875977, -0.1733398, -0.9716797, -18.9024391, -138.5975647, 12.2560978, 0.0226596
0.2363281, -0.1875, -1.0161133, -17.9268303, -139.146347, 12.560976, 0.0186313
0.2197266, -0.1787109, -1.0429688, -16.2195129, -139.3292694, 13.1707315, 0.0176242
0.2231445, -0.1391602, -1.09375, -15.3048782, -140.4878082, 13.6585369, 0.0125887
0.2456055, -0.1147461, -1.105957, -15.5487804, -140.8536682, 13.5365858, 0.0062104
0.3120117, -0.074707, -1.1103516, -16.6463413, -140.6707306, 14.0243902, -0.0015106
0.340332, -0.0629883, -1.1044922, -17.3780499, -139.5731812, 13.9024391, -0.0045319
0.3842773, -0.0771484, -1.0820312, -18.1707325, -136.5853729, 13.9024391, -0.0062104
0.3886719, -0.1235352, -1.0615234, -18.5975609, -134.8780518, 13.9634151, -0.0119173
0.3808594, -0.1391602, -1.043457, -18.7195129, -132.3170776, 13.9634151, -0.0135958
0.3344727, -0.1630859, -1.0214844, -18.1707325, -130.6707306, 13.841464, -0.0130922
0.2978516, -0.1665039, -1.0263672, -15.7926836, -128.1097565, 12.8658543, -0.0139315
0.2329102, -0.1557617, -1.0507812, -14.7560978, -127.3780518, 12.9878054, -0.0129244
0.2119141, -0.1401367, -1.0527344, -13.3536587, -128.3536682, 13.0487804, -0.0142672
0.2055664, -0.1186523, -1.0102539, -13.7195129, -131.0365906, 11.9512196, -0.0166171
0.2075195, -0.1157227, -0.9794922, -14.4512196, -131.8292694, 10.9146347, -0.0182956
0.2055664, -0.1303711, -0.9853516, -15.9146347, -131.8902435, 9.2073174, -0.0213169
0.1899414, -0.144043, -1.0258789, -15.5487804, -132.0731812, 8.9634151, -0.0243381
0.1762695, -0.1621094, -1.1000977, -14.5121956, -134.3902435, 10.9756098, -0.0204776
0.2211914, -0.159668, -1.0668945, -13.9024391, -135.7317047, 12.1341467, -0.0223239
0.2519531, -0.1459961, -1.0219727, -12.3780489, -134.3902435, 12.0731707, -0.0203098
0.2709961, -0.1318359, -0.9794922, -11.280488, -131.8902435, 10.8536587, -0.0243381
0.2539062, -0.1352539, -0.9746094, -9.5121956, -129.2073212, 9.1463413, -0.0223239
0.206543, -0.1503906, -0.9838867, -9.5121956, -129.7561035, 9.0853662, -0.0172885
0.1850586, -0.1499023, -0.9804688, -8.3536587, -132.6829224, 9.4512196, -0.0142672
0.1425781, -0.1308594, -0.9863281, -7.4390244, -132.7439117, 8.841464, -0.008896
0.1132812, -0.1079102, -1.0151367, -6.7073174, -132.1341553, 8.5975609, -0.0124208
0.0727539, -0.0522461, -1.081543, -6.9512196, -131.8292694, 10.1219511, -0.0172885
0.074707, -0.0263672, -1.1020508, -8.2926826, -133.1097565, 11.0365858, -0.0216526
0.1157227, 0.0019531, -1.0986328, -12.3170738, -135.6097565, 12.0731707, -0.0203098
0.1665039, -0.0146484, -1.0869141, -14.3902445, -135.36586, 12.0731707, -0.0250095
0.1879883, -0.0385742, -1.0966797, -17.5, -133.5975647, 13.4146347, -0.018967
0.2104492, -0.0952148, -1.1142578, -17.8048782, -132.6219482, 13.7195129, -0.0176242
0.2207031, -0.1162109, -1.112793, -17.8048782, -130.0609741, 15.7926836, -0.0172885
0.2348633, -0.1499023, -1.0898438, -17.3170738, -128.7195129, 16.2195129, -0.0129244
0.230957, -0.1469727, -1.0698242, -15.7317076, -124.4512253, 15.6707325, -0.0097353
0.1821289, -0.1123047, -1.0507812, -14.4512196, -119.2073212, 13.7195129, -0.012253
0.1435547, -0.0810547, -1.0517578, -14.5731707, -117.0731735, 12.8658543, -0.0104067
0.0766602, -0.0380859, -1.0595703, -15.5487804, -116.3414688, 11.5243902, -0.0070497
0.0527344, -0.0454102, -1.0473633, -16.1585369, -117.6219559, 11.7682934, -0.0082246
0.0375977, -0.0830078, -0.9907227, -18.7195129, -122.0121994, 12.3170738, -0.0139315
0.0424805, -0.1396484, -0.9267578, -18.8414631, -122.86586, 12.6219511, -0.0135958
0.0361328, -0.1630859, -0.9101562, -17.3170738, -122.4390259, 11.9512196, -0.01561
0.0068359, -0.1894531, -0.9052734, -15.7317076, -121.8902435, 11.7073174, -0.0149386
-0.0209961, -0.1884766, -0.9165039, -12.560976, -121.646347, 10.1829271, -0.0196384
-0.0639648, -0.1508789, -0.9575195, -11.0975609, -121.7682953, 9.8780489, -0.0193027
-0.0766602, -0.1293945, -0.9731445, -9.2073174, -124.4512253, 9.4512196, -0.0196384
-0.0654297, -0.0883789, -0.9824219, -9.0853662, -127.7439041, 9.6341467, -0.0231632
-0.0488281, -0.0693359, -0.9985352, -9.2682924, -128.9024353, 9.6951218, -0.0250095
-0.0068359, -0.0424805, -1.0400391, -10.4268293, -129.146347, 10, -0.0280308
0.0087891, -0.0341797, -1.0625, -11.4634151, -128.3536682, 10.5487804, -0.0263523
0.0424805, -0.0258789, -1.0649414, -14.2073174, -127.9878082, 11.8292685, -0.0250095
0.0688477, -0.0180664, -1.0234375, -15.3658543, -127.7439041, 12.1341467, -0.0280308
0.0708008, -0.0136719, -1.0141602, -17.9878044, -125.5487823, 11.8902445, -0.0283665
0.0356445, -0.0058594, -1.0625, -19.7560978, -124.0853653, 11.4634151, -0.0298772
0.0063477, -0.0048828, -1.09375, -23.0487804, -123.3536606, 12.560976, -0.0283665
-0.0107422, -0.0151367, -1.1240234, -24.8780499, -123.8414688, 13.6585369, -0.0240024
-0.0004883, -0.0239258, -1.1098633, -27.560976, -125.6097565, 15.9756098, -0.0209812
0.0429688, -0.0854492, -1.0566406, -27.560976, -125.1219559, 17.1341476, -0.0203098
0.0615234, -0.1274414, -1.0292969, -26.3414631, -123.9634171, 17.7439022, -0.0203098
0.0766602, -0.1972656, -0.9692383, -22.8048782, -121.4634171, 17.5, -0.0238346
0.0712891, -0.215332, -0.9433594, -20.6097565, -119.3292694, 16.5853653, -0.0243381
0.0029297, -0.2006836, -0.9501953, -15.7926836, -114.0853653, 14.0853662, -0.0236667
-0.105957, -0.1157227, -0.9995117, -13.9024391, -111.8902435, 13.4146347, -0.0253452
-0.1455078, -0.0654297, -1.0322266, -12.560976, -110.7926865, 12.8658543, -0.0223239
-0.1870117, 0.0126953, -1.0786133, -13.5975609, -111.9512253, 12.6219511, -0.0297093
-0.1757812, 0.0214844, -1.0756836, -18.1707325, -117.0731735, 12.7439032, -0.0283665
-0.109375, -0.0268555, -1.0268555, -21.3414631, -120.3048782, 13.2926836, -0.0280308
-0.0668945, -0.0654297, -0.9956055, -25.5487804, -124.5731735, 14.3902445, -0.0243381
-0.0024414, -0.1567383, -0.9736328, -23.9634151, -123.2926865, 14.6341467, -0.0176242
0.015625, -0.1938477, -0.9833984, -21.7682934, -120.7926865, 14.9390249, -0.0129244
0.0112305, -0.2099609, -1.0136719, -16.8292694, -115.4268341, 15, -0.0162814
-0.0063477, -0.1821289, -1.0229492, -15.2439032, -112.2561035, 14.3902445, -0.0109102
-0.0498047, -0.078125, -1.0068359, -15, -107.0121994, 12.2560978, -0.0063783
-0.1137695, 0.0180664, -0.9868164, -16.5243912, -105.3048782, 10.4268293, -0.0078889
-0.1503906, 0.0429688, -0.9667969, -21.280489, -106.4634171, 7.6829271, -0.0038605
-0.1938477, 0.0239258, -0.9233398, -24.4512196, -109.3902435, 7.4390244, 0.0078889
-0.2089844, -0.003418, -0.909668, -28.841465, -116.3414688, 8.9634151, 0.0219883
-0.2167969, -0.0649414, -0.8896484, -30.3658543, -119.0853653, 10.1829271, 0.0414588
-0.2163086, -0.0820312, -0.8974609, -30.5487804, -121.9512253, 11.8292685, 0.0475013
-0.2163086, -0.0874023, -0.9726562, -28.1097565, -121.7073212, 12.3780489, 0.0407874
-0.2148438, -0.0864258, -1.0209961, -26.8902454, -122.0731735, 13.4756098, 0.0251774
-0.1723633, -0.078125, -1.059082, -25.9756107, -123.5975647, 15.6097565, 0.0132601
-0.1367188, -0.0742188, -1.043457, -25.9756107, -124.3902435, 16.0975609, 0.0112459
-0.0673828, -0.0786133, -0.9716797, -25.7317085, -122.7439041, 15.8536587, 0.0052033
-0.0507812, -0.0859375, -0.9448242, -25.4878063, -120.18293, 14.8170738, -0.0109102
-0.0712891, -0.0834961, -0.9550781, -24.6951218, -114.3902435, 13.2317076, -0.0260166
-0.1411133, -0.0722656, -1.0039062, -24.7560978, -112.1341476, 12.8658543, -0.0263523
-0.1713867, -0.0654297, -1.0302734, -24.6951218, -110.6097565, 14.3902445, -0.018967
-0.2128906, -0.0341797, -1.043457, -24.8170738, -110.2439041, 15, 0.0005035
-0.2114258, -0.0205078, -1.0385742, -25.3048782, -109.8780518, 16.7073174, 0.0216526
-0.2011719, -0.0058594, -1.0253906, -27.4390259, -108.7804871, 17.1341476, 0.0340734
-0.1918945, -0.0200195, -1.0209961, -28.9024391, -108.4146347, 17.2560978, 0.0387732
-0.1635742, -0.074707, -1.0112305, -31.1585369, -108.6585388, 17.6219521, 0.0364233
-0.1513672, -0.1035156, -0.9995117, -31.341465, -108.9634171, 18.1097565, 0.0146029
-0.1352539, -0.1303711, -0.9951172, -31.0365868, -106.8902435, 17.6219521, -0.0117494
-0.1538086, -0.0927734, -1.0087891, -30.3048782, -104.6341476, 16.5853653, -0.0290379
-0.1738281, -0.0605469, -1.0107422, -29.2682934, -99.3902435, 15.4878054, -0.0411231
-0.2045898, -0.0351562, -0.9804688, -29.3292694, -97.9878082, 15.1829271, -0.0533761
-0.2119141, -0.0327148, -0.9511719, -30.3048782, -98.6585388, 14.2682934, -0.0558938
-0.2426758, -0.0527344, -0.8813477, -31.4634151, -99.6951218, 14.1463413, -0.0538796
-0.2583008, -0.0644531, -0.8671875, -32.9268303, -100.18293, 14.3902445, -0.0585794
-0.3051758, -0.050293, -0.8994141, -33.9024391, -99.9390259, 14.1463413, -0.0649577
-0.3383789, -0.0327148, -0.9345703, -34.0853653, -99.8780518, 14.1463413, -0.0649577
-0.3730469, 0.0024414, -0.96875, -35.9146347, -103.1097565, 14.3292685, -0.0760357
-0.3662109, -0.0019531, -0.9555664, -36.7073174, -105.3658524, 14.6341467, -0.0807355
-0.309082, -0.0615234, -0.887207, -37.5, -110.7317123, 15.4268293, -0.0861067
-0.2543945, -0.1401367, -0.8344727, -36.9512215, -112.1951218, 15.8536587, -0.0914778
-0.2441406, -0.1611328, -0.8564453, -35, -110.6707306, 15.3048782, -0.0916457
-0.2568359, -0.1386719, -1.0014648, -33.9634171, -108.1097565, 15, -0.0830854
-0.2749023, -0.1054688, -1.0668945, -32.2560997, -105.18293, 16.0365849, -0.0775463
-0.2597656, -0.0288086, -1.0708008, -32.5, -105.8536606, 16.8292694, -0.0699931
-0.2368164, 0.0043945, -1.0102539, -34.6341476, -107.5609818, 16.7073174, -0.0582437
-0.2084961, 0.0405273, -0.8891602, -37.7439041, -105.2439041, 14.7560978, -0.0518654
-0.2202148, 0.0341797, -0.8696289, -38.841465, -103.3536606, 14.3902445, -0.0431373
-0.2773438, -0.0097656, -0.9316406, -40.7926826, -101.2804871, 15.4268293, -0.0391089
-0.3076172, -0.0375977, -0.9746094, -41.5853653, -101.7073212, 17.1341476, -0.0323949
-0.3261719, -0.0805664, -1.0166016, -41.4024391, -104.7561035, 19.6951218, -0.0256809
-0.2963867, -0.0878906, -0.9760742, -40.5487823, -106.0365906, 20.7317085, -0.0263523
-0.2758789, -0.0859375, -0.9482422, -38.0487823, -104.0853653, 20.7317085, -0.0243381
-0.2612305, -0.0664062, -0.9570312, -36.8902435, -101.7682953, 20.060976, -0.0229953
-0.2719727, -0.050293, -0.9960938, -36.4634171, -97.0121994, 19.2682934, -0.0199741
-0.2929688, -0.0019531, -1.0537109, -37.6829262, -95.9146347, 19.0243912, -0.0182956
-0.2983398, 0.012207, -1.0463867, -40.7317085, -95.8536606, 18.9024391, -0.01561
-0.2807617, -0.0029297, -0.9731445, -42.3170738, -96.2804871, 18.9024391, -0.0115816
-0.2724609, -0.0253906, -0.9404297, -42.4390259, -95.18293, 19.2073174, -0.0102388
-0.2744141, -0.0751953, -0.9282227, -40.4268303, -91.2195129, 20.1219521, -0.0152743
-0.2875977, -0.0888672, -0.9438477, -39.0853653, -89.2073212, 21.280489, -0.0115816
-0.3071289, -0.0766602, -0.9770508, -37.3170738, -86.3414688, 21.8292694, -0.0015106
-0.3232422, -0.0234375, -0.9711914, -37.3170738, -84.7560959, 21.4024391, 0.002182
-0.3310547, -0.0068359, -0.9462891, -38.5975609, -81.9512177, 19.1463413, 0.0058747
-0.3388672, -0.0214844, -0.8588867, -39.5731735, -81.646347, 18.2926826, 0.0018463
-0.3364258, -0.0512695, -0.8168945, -41.2195129, -82.1341476, 16.9512196, -0.0001678
-0.3666992, -0.0859375, -0.8046875, -41.5243912, -82.6219559, 16.3414631, -0.0008392
-0.3950195, -0.0820312, -0.8271484, -40.4268303, -82.3170776, 15.3658543, -0.0075532
-0.4448242, -0.0444336, -0.8754883, -38.4146347, -82.8658524, 15.6707325, -0.0109102
-0.4536133, -0.0195312, -0.8808594, -37.6219521, -83.9634171, 15.5487804, -0.0182956
-0.4389648, 0.0048828, -0.84375, -38.2317085, -87.2560959, 15.4268293, -0.0229953
-0.4189453, 0.0039062, -0.8178711, -39.6341476, -88.2317123, 14.7560978, -0.0196384
-0.4057617, -0.0224609, -0.8037109, -41.4634171, -89.2682953, 13.0487804, -0.0223239
-0.4228516, -0.0415039, -0.8481445, -41.9512215, -89.3292694, 12.7439032, -0.0270237
-0.4287109, -0.0366211, -0.8710938, -42.3780479, -90.5487823, 13.1097565, -0.0270237
-0.4125977, -0.0322266, -0.8852539, -42.0121956, -91.2195129, 13.4146347, -0.0263523
-0.3964844, -0.0292969, -0.8662109, -40.2439041, -91.8902435, 13.4756098, -0.0243381
-0.3725586, -0.0205078, -0.8208008, -40.0609779, -90.9756088, 12.560976, -0.0238346
-0.3710938, -0.0161133, -0.8168945, -40.3658562, -88.9634171, 11.5243902, -0.0216526
-0.4077148, 0.0009766, -0.8540039, -41.6463432, -87.0121994, 10.3658543, -0.0196384
-0.4360352, 0.0170898, -0.8789062, -42.3780479, -87.3780518, 10.7317076, -0.0139315
-0.4648438, 0.050293, -0.8979492, -44.0853653, -89.7560959, 11.341464, -0.0142672
-0.4663086, 0.0620117, -0.8837891, -44.8780479, -90.3658524, 11.7682934, -0.0162814
-0.4545898, 0.0527344, -0.8491211, -45.4878044, -90.3048782, 11.8292685, -0.0075532
-0.4375, 0.0136719, -0.8198242, -45.4268303, -90.0609741, 11.6463413, -0.0031891
-0.434082, -0.0092773, -0.8144531, -45.1219521, -89.6951218, 12.3170738, 0.0052033
-0.4345703, -0.0283203, -0.8085938, -44.6951218, -89.0853653, 12.2560978, 0.0112459
-0.4370117, -0.0288086, -0.8037109, -42.2560997, -86.7073212, 12.1951218, 0.0125887
-0.4599609, 0.0014648, -0.8149414, -41.2195129, -84.9390259, 12.1341467, 0.0149386
-0.4702148, 0.0224609, -0.8374023, -39.3292694, -80.7317123, 12.3170738, 0.0125887
-0.4907227, 0.0478516, -0.8745117, -39.1463432, -77.0731735, 12.560976, 0.005539
-0.496582, 0.0419922, -0.862793, -39.8780479, -76.646347, 12.5, 0.0031891
-0.4848633, -0.0073242, -0.7788086, -40.6707344, -76.4024429, 12.3170738, 0.0003357
-0.4716797, -0.0244141, -0.7167969, -40.8536606, -75.6707306, 11.6463413, -0.0018463
-0.4873047, -0.0341797, -0.6318359, -40, -72.5609741, 9.1463413, -0.0062104
-0.5600586, -0.0078125, -0.6381836, -39.7560997, -70.6707306, 7.5609756, -0.0083925
-0.6049805, 0.0078125, -0.6655273, -39.8170738, -69.5731735, 6.3414636, -0.0139315
-0.6665039, 0.034668, -0.7182617, -40.6097565, -71.2195129, 6.7073174, -0.0263523
-0.6738281, 0.0302734, -0.7294922, -41.6463432, -77.4390259, 8.2926826, -0.0280308
-0.6289062, 0.0063477, -0.7290039, -40.7926826, -82.0731735, 9.8170738, -0.0206455
-0.6020508, 0, -0.7167969, -40.0609779, -82.5, 9.9390249, -0.0046998
-0.5429688, 0.0224609, -0.6860352, -40.0609779, -79.9390259, 8.5365858, 0.0125887
-0.5253906, 0.0317383, -0.6621094, -40.3048782, -77.6219559, 7.0731707, 0.0112459
-0.5239258, 0.0327148, -0.6347656, -42.5, -74.4512177, 4.2682929, 0.0078889
-0.5693359, 0.0253906, -0.6645508, -43.9024391, -73.7195129, 3.3536587, 0.0078889
-0.5961914, 0.0214844, -0.7001953, -44.3292694, -74.0853653, 3.4756098, 0.0090639
-0.6225586, 0.0263672, -0.7724609, -44.2073174, -75.1219559, 4.3292685, 0.0119173
-0.6113281, 0.0297852, -0.7895508, -42.8658562, -76.5853653, 7.0121951, 0.0045319
-0.5561523, 0.0297852, -0.7553711, -42.1341476, -76.9512177, 7.8048782, -0.0068818
-0.53125, 0.0317383, -0.7226562, -41.8292694, -75.3658524, 7.5609756, -0.0142672
-0.5053711, 0.0380859, -0.6728516, -42.6219521, -71.8292694, 6.1585369, -0.0152743
-0.5107422, 0.0463867, -0.6791992, -43.5975609, -70, 5.1219511, -0.0213169
-0.5595703, 0.0776367, -0.7631836, -47.1341476, -67.3170776, 4.8170733, -0.033402
-0.578125, 0.0991211, -0.8139648, -49.0853653, -66.9512177, 5.4878049, -0.0387732
-0.5800781, 0.0942383, -0.8735352, -54.7560997, -67.7439041, 8.6585369, -0.0473335
-0.5488281, 0.0395508, -0.8339844, -58.1097565, -68.7804871, 10.3048782, -0.0562295
-0.5239258, 0.0043945, -0.7529297, -59.9390259, -73.4146347, 10.6707315, -0.064622
-0.5009766, -0.0336914, -0.6655273, -56.0975609, -73.8414688, 9.0243902, -0.0686503
-0.5107422, -0.0292969, -0.6821289, -46.0975609, -71.3414688, 6.7682929, -0.0716716
-0.5361328, 0.0229492, -0.7709961, -43.9634171, -69.2073212, 7.0121951, -0.0753643
-0.5463867, 0.050293, -0.7993164, -45.4268303, -64.8780518, 7.9268293, -0.0757
-0.5493164, 0.0737305, -0.7851562, -50.3048782, -63.4756126, 6.6463418, -0.0716716
-0.5507812, 0.0620117, -0.7402344, -52.1341476, -63.9634171, 5.5487804, -0.068986
-0.559082, 0.0146484, -0.6513672, -52.3780518, -64.5731735, 4.3292685, -0.0605936
-0.5654297, -0.0102539, -0.6313477, -51.341465, -64.4512177, 3.9024391, -0.061265
-0.6069336, -0.0136719, -0.6728516, -48.7195129, -63.7195129, 4.7560978, -0.0673075
-0.6289062, 0.015625, -0.7568359, -48.1707344, -63.4146347, 5.0609756, -0.0753643
-0.6333008, 0.0332031, -0.7788086, -48.0487823, -64.0853653, 6.4634147, -0.0903029
-0.5991211, 0.0473633, -0.7358398, -48.9634171, -64.9390259, 6.4634147, -0.1028916
-0.578125, 0.0429688, -0.6914062, -49.5121956, -65.6707306, 5.9146342, -0.105745
-0.5478516, 0.015625, -0.6357422, -48.841465, -64.6341476, 5.3048782, -0.0961776
-0.5527344, 0.0117188, -0.6333008, -45.9756126, -60.7926826, 4.6341462, -0.0871138
-0.574707, 0.012207, -0.6650391, -43.0487823, -57.1341476, 4.7560978, -0.0780499
-0.59375, 0.0219727, -0.684082, -42.0731735, -55.7926826, 4.7560978, -0.0726787
-0.6186523, 0.0322266, -0.7167969, -41.1585388, -54.9390259, 5.7317076, -0.0694896
-0.6176758, 0.0341797, -0.7231445, -40.9146347, -55.0609779, 5.9756098, -0.0609293
-0.6118164, 0.0532227, -0.6914062, -39.8170738, -53.9634171, 5.670732, -0.0525368
-0.6064453, 0.0771484, -0.6723633, -39.8170738, -52.3170738, 5.5487804, -0.0498512
-0.6108398, 0.0844727, -0.675293, -40.7317085, -49.4512215, 5.3658538, -0.0471656
-0.6201172, 0.0854492, -0.7011719, -41.4634171, -48.7804871, 5, -0.0491798
-0.6220703, 0.0820312, -0.7124023, -42.0121956, -49.5731735, 5.1829271, -0.0495155
-0.6123047, 0.0732422, -0.6987305, -41.8292694, -50.7317085, 5.4268293, -0.0533761
-0.6044922, 0.0639648, -0.6767578, -40.3048782, -50.8536606, 5.9756098, -0.0626078
-0.5913086, 0.0410156, -0.6313477, -38.9024391, -48.7804871, 6.2195125, -0.0710002
-0.5883789, 0.0327148, -0.621582, -37.8048782, -47.1341476, 6.2195125, -0.0787213
-0.6132812, 0.0375977, -0.6259766, -36.5243912, -44.9390259, 6.6463418, -0.0760357
-0.6279297, 0.0478516, -0.6376953, -35.9756088, -44.1463432, 6.280488, -0.0592508
-0.6586914, 0.0820312, -0.6704102, -36.4634171, -44.7560997, 5.9146342, -0.0213169
-0.6738281, 0.1113281, -0.7148438, -37.1951218, -45.2439041, 6.0365853, 0.0193027
-0.6669922, 0.1181641, -0.7294922, -39.8780479, -46.5243912, 6.3414636, 0.0575723
-0.6357422, 0.1103516, -0.7255859, -41.341465, -47.1951218, 6.7073174, 0.0763714
-0.6147461, 0.0966797, -0.7104492, -43.0487823, -47.3170738, 6.6463418, 0.0736858
-0.5776367, 0.0644531, -0.6367188, -42.9878044, -46.4024391, 6.280488, 0.0616007
-0.5703125, 0.0541992, -0.5898438, -41.7073174, -42.8048782, 5.4268293, 0.0488441
-0.5859375, 0.0576172, -0.5224609, -39.6341476, -36.5853653, 4.0243902, 0.0276951
-0.6166992, 0.0639648, -0.5117188, -39.0853653, -33.9634171, 2.804878, 0.0186313
-0.706543, 0.0766602, -0.5297852, -38.1707344, -31.6463413, 2.1341465, 0.0099031
-0.7392578, 0.0776367, -0.5483398, -38.6585388, -32.8658562, 2.9268293, 0.0048676
-0.7670898, 0.0800781, -0.6088867, -39.6341476, -37.5, 4.0853658, -0.0008392
-0.7451172, 0.0756836, -0.6733398, -40.1219521, -40.0609779, 4.7560978, -0.0043641
-0.722168, 0.0708008, -0.6821289, -40.6707344, -43.6585388, 5.7317076, -0.005539
-0.6347656, 0.0561523, -0.644043, -39.9390259, -44.4512215, 5.9146342, -0.0028534
-0.5942383, 0.0551758, -0.5996094, -36.7682953, -42.1341476, 4.8780489, -0.002182
-0.5678711, 0.0527344, -0.5283203, -35.3658562, -39.0243912, 4.1463413, -0.0015106
-0.5810547, 0.050293, -0.5102539, -31.8902454, -30.8536587, 2.1341465, -0.0068818
-0.640625, 0.0537109, -0.5239258, -29.6341476, -25.3048782, 1.6463414, -0.0152743
-0.6762695, 0.0498047, -0.5478516, -28.7195129, -24.2682934, 2.3170731, -0.0209812
-0.7202148, 0.0405273, -0.6069336, -26.9512196, -26.0365868, 4.8780489, -0.0236667
-0.7182617, 0.0458984, -0.6245117, -26.2195129, -26.8292694, 5.7317076, -0.024506
-0.6982422, 0.0737305, -0.6391602, -24.4512196, -28.0487804, 5.609756, -0.0229953
-0.6611328, 0.097168, -0.5917969, -23.5975609, -27.4390259, 5.609756, -0.0258488
-0.6420898, 0.1088867, -0.5683594, -22.560976, -24.7560978, 5.1219511, -0.0240024
-0.6225586, 0.1279297, -0.5522461, -22.3780499, -22.439024, 4.8170733, -0.0250095
-0.6225586, 0.1279297, -0.5605469, -23.4146347, -16.9512196, 4.3292685, -0.0256809
-0.6450195, 0.1166992, -0.5732422, -24.2073174, -15.1219511, 4.2682929, -0.0253452
-0.6552734, 0.1030273, -0.5639648, -24.5121956, -13.780488, 4.8170733, -0.0238346
-0.6621094, 0.0810547, -0.5200195, -23.4146347, -14.6951227, 5, -0.0303807
-0.6621094, 0.0751953, -0.5, -22.3780499, -14.3292685, 5.3658538, -0.0303807
-0.6772461, 0.0874023, -0.4936523, -21.0365868, -12.6219511, 5.1829271, -0.0253452
-0.6928711, 0.1044922, -0.5092773, -21.6463413, -11.6463413, 4.9390244, -0.0229953
-0.715332, 0.1425781, -0.5600586, -24.4512196, -10.8536587, 4.4512196, -0.0196384
-0.7158203, 0.1513672, -0.6103516, -26.7682934, -11.1585369, 4.6951222, -0.0135958
-0.6987305, 0.1459961, -0.6157227, -30.5487804, -13.7195129, 5.1219511, -0.0172885
-0.6567383, 0.1240234, -0.5517578, -31.7073174, -14.7560978, 5.3048782, -0.0142672
-0.6333008, 0.1142578, -0.5004883, -32.0121956, -13.9024391, 3.9024391, -0.005539
-0.6191406, 0.0888672, -0.4282227, -31.4634151, -11.8902445, 3.1707318, -0.0058747
-0.6328125, 0.0810547, -0.4194336, -29.5731716, -6.4024391, 0.9146342, -0.0082246
-0.6894531, 0.074707, -0.4233398, -28.7195129, -3.4756098, 0.4268293, -0.0041962
-0.7177734, 0.0722656, -0.4243164, -27.9878063, -3.7804878, 0.3048781, -0.0058747
-0.7504883, 0.0761719, -0.4277344, -26.9512196, -6.7682929, -0.2439024, -0.0099031
-0.7563477, 0.0717773, -0.4360352, -26.280489, -8.719512, -0.4268293, -0.0095674
-0.7451172, 0.0615234, -0.4790039, -25.5487804, -11.8292685, 0.1219512, -0.0078889
-0.706543, 0.059082, -0.5517578, -25.3048782, -12.6829271, 0.8536586, -0.0008392
-0.6806641, 0.0654297, -0.5864258, -24.1463413, -12.3780489, 1.6463414, 0.0052033
-0.6240234, 0.090332, -0.6069336, -23.0487804, -11.6463413, 2.1341465, -0.0001678
-0.5922852, 0.1020508, -0.5947266, -19.7560978, -8.2317076, 2.2560976, -0.0031891
-0.5546875, 0.1303711, -0.5507812, -18.5365849, -5, 2.1341465, 0.0139315
-0.5556641, 0.1376953, -0.5317383, -16.8292694, 3.7195122, 1.5243902, 0.0317235
-0.5942383, 0.1289062, -0.5107422, -15.8536587, 11.6463413, 1.5243902, 0.0357519
-0.6186523, 0.1191406, -0.5029297, -15.1219511, 14.1463413, 1.6463414, 0.0320592
-0.6665039, 0.0996094, -0.4951172, -13.9634151, 15.3048782, 2.5609756, 0.0226596
-0.6894531, 0.0927734, -0.4946289, -13.1707315, 15.060976, 2.804878, 0.0317235
-0.7099609, 0.0854492, -0.484375, -11.8292685, 13.7195129, 3.5365853, 0.0466621
-0.7109375, 0.0908203, -0.472168, -11.1585369, 13.3536587, 3.5975611, 0.0614328
-0.7050781, 0.090332, -0.4663086, -10.6097565, 12.560976, 3.4756098, 0.0622721
-0.6958008, 0.090332, -0.4511719, -10.4878054, 12.1341467, 3.4146342, 0.051194
-0.6928711, 0.0957031, -0.4492188, -9.6951218, 12.0121956, 2.6219513, 0.0451514
-0.6787109, 0.1069336, -0.4609375, -9.6341467, 12.8048782, 1.9512196, 0.0431373
-0.6772461, 0.1088867, -0.4799805, -9.9390249, 14.5121956, 0.6097561, 0.033402
-0.6694336, 0.1049805, -0.5170898, -10.9146347, 15.5487804, 0.0609756, 0.0313878
-0.6611328, 0.0976562, -0.5297852, -11.219512, 15.2439032, -0.1829268, 0.0236667
-0.6225586, 0.0942383, -0.5522461, -11.8902445, 15.9146347, -0.6707317, 0.0124208
-0.6103516, 0.0942383, -0.5581055, -12.1341467, 17.1951218, -1.2195122, -0.0099031
-0.5883789, 0.0991211, -0.5541992, -12.8048782, 21.0365868, -2.804878, -0.0370947
-0.5869141, 0.0976562, -0.5166016, -13.1097565, 22.7439022, -3.2317073, -0.0501869
-0.5922852, 0.090332, -0.5078125, -12.7439032, 26.5243912, -4.1463413, -0.0659648
-0.6123047, 0.0805664, -0.5268555, -12.3780489, 28.2317085, -4.390244, -0.0726787
-0.6147461, 0.081543, -0.5517578, -12.1951218, 30.3658543, -3.9634147, -0.0741894
-0.6191406, 0.0874023, -0.6079102, -12.6219511, 31.0975609, -4.1463413, -0.0780499
-0.6171875, 0.0874023, -0.6166992, -13.1097565, 31.7073174, -3.2926829, -0.0867781
-0.5834961, 0.0830078, -0.590332, -12.5, 32.6829262, -2.8658538, -0.093492
-0.565918, 0.0791016, -0.5708008, -11.7682934, 34.0853653, -2.804878, -0.0971847
-0.5537109, 0.0839844, -0.5483398, -9.5121956, 39.3292694, -3.7804878, -0.0991989
-0.5546875, 0.0854492, -0.5449219, -8.719512, 42.5609779, -3.7195122, -0.1062486
-0.5732422, 0.0791016, -0.5517578, -6.3414636, 47.5609779, -2.9878049, -0.1200122
-0.5834961, 0.0600586, -0.5483398, -4.9390244, 48.4756126, -2.5609756, -0.1243763
-0.5834961, 0.043457, -0.546875, -1.3414634, 48.4146347, -1.2195122, -0.1270619
-0.5761719, 0.0146484, -0.550293, 0.3658537, 49.3902435, -0.6097561, -0.1238727
-0.578125, 0.012207, -0.5498047, 3.9024391, 52.2560997, -0.0609756, -0.1169909
-0.5761719, 0.0229492, -0.5512695, 5.3658538, 54.0243912, -0.2439024, -0.112459
-0.574707, 0.0341797, -0.5605469, 8.2926826, 57.0731735, -0.6707317, -0.1028916
-0.5776367, 0.059082, -0.6025391, 9.4512196, 59.0853691, -1.2804878, -0.0948348
-0.5727539, 0.0712891, -0.6293945, 9.3292685, 60.0609779, -1.5853659, -0.0896315
-0.5576172, 0.097168, -0.6494141, 7.3780489, 61.4024391, -2.2560976, -0.0983597
-0.5458984, 0.1069336, -0.6445312, 6.4024391, 62.5, -2.7439024, -0.1131304
-0.5375977, 0.1201172, -0.59375, 5.609756, 65.1219559, -4.2682929, -0.1188373
-0.5332031, 0.1103516, -0.5605469, 5.4878049, 66.7073212, -4.5731707, -0.1159838
-0.5341797, 0.0986328, -0.5566406, 5.5487804, 69.3902435, -5, -0.1109483
-0.5458984, 0.0800781, -0.5629883, 5.3048782, 70.3048782, -5.3658538, -0.096849
-0.5517578, 0.0703125, -0.5771484, 4.2682929, 71.0975647, -5.9146342, -0.0663005
-0.5649414, 0.0644531, -0.5932617, 3.4146342, 70.9756088, -6.0975609, -0.0229953
-0.5703125, 0.0610352, -0.5991211, 2.0731707, 70.2439041, -6.7682929, 0.0246738
-0.5688477, 0.0722656, -0.6074219, 1.5853659, 68.9024429, -7.0121951, 0.0679789
-0.5615234, 0.0771484, -0.6152344, 1.6463414, 68.5975647, -7.1951222, 0.0834211
-0.543457, 0.0869141, -0.6191406, 1.097561, 69.0853653, -7.7439027, 0.0703288
-0.5366211, 0.0893555, -0.6269531, 0.7317073, 69.6951218, -7.8658538, 0.0703288
-0.5209961, 0.0961914, -0.6274414, 1.0365853, 71.3414688, -8.1707315, 0.0616007
-0.5009766, 0.0947266, -0.6196289, 1.1585366, 72.2560959, -8.0487804, 0.0528725
-0.4975586, 0.0849609, -0.6166992, 2.195122, 73.7804871, -8.1097565, 0.0533761
-0.487793, 0.0571289, -0.6181641, 3.0487804, 74.6951218, -7.9878049, 0.0454871
-0.487793, 0.034668, -0.6225586, 6.5243902, 75.9146347, -6.6463418, 0.0458228
-0.4785156, -0.0288086, -0.644043, 8.841464, 76.3414688, -5, 0.040116
-0.4638672, -0.0458984, -0.6669922, 14.5731707, 77.3170776, -1.2195122, 0.0290379
-0.4301758, -0.0209961, -0.7177734, 19.8170738, 82.5, 1.0365853, 0.0172885
-0.4238281, 0.0131836, -0.7480469, 21.5853672, 86.4024429, 0.7317073, 0.0038605
-0.4160156, 0.0849609, -0.7885742, 22.9878063, 94.146347, -0.7926829, -0.0092317
-0.418457, 0.1030273, -0.7866211, 22.8048782, 96.7073212, -1.5243902, -0.0253452
-0.4155273, 0.1030273, -0.7573242, 20.9756107, 98.2926865, -2.7439024, -0.0327306
-0.4101562, 0.0854492, -0.7275391, 20.4878044, 98.2317123, -2.9268293, -0.0347448
-0.4135742, 0.0805664, -0.7172852, 19.5121956, 99.5121994, -2.5609756, -0.0364233
-0.4311523, 0.078125, -0.7070312, 19.5731716, 101.2804871, -2.3170731, -0.0276951
-0.4404297, 0.0771484, -0.6879883, 21.0365868, 104.6341476, -1.5243902, -0.0186313
-0.4570312, 0.0703125, -0.6318359, 22.3780499, 105.5487823, -1.3414634, -0.0005035
-0.4702148, 0.0571289, -0.6074219, 25.4878063, 105.8536606, -1.097561, -0.0082246
-0.4970703, 0.0395508, -0.5966797, 26.8292694, 105.9756088, -1.1585366, -0.0258488
-0.5053711, 0.0493164, -0.6201172, 26.2195129, 106.3414688, -1.5243902, -0.030045
-0.5268555, 0.0708008, -0.699707, 23.1707325, 104.8170776, -3.1097562, -0.0193027
-0.5244141, 0.078125, -0.737793, 20.7926826, 102.68293, -3.9634147, -0.0058747
-0.4941406, 0.0786133, -0.7446289, 16.9512196, 96.4634171, -6.4024391, -0.0028534
-0.4404297, 0.0556641, -0.6743164, 15.9146347, 93.2317123, -7.3780489, -0.0016785
-0.4067383, 0.0366211, -0.6313477, 17.1341476, 89.2073212, -10.060976, -0.0115816
-0.3730469, 0.0048828, -0.5585938, 18.780489, 89.0243912, -10.9756098, -0.0307164
-0.3725586, 0.0004883, -0.5532227, 22.5, 92.6219559, -13.3536587, -0.04448
-0.4013672, -0.0029297, -0.6010742, 24.2682934, 94.8170776, -14.4512196, -0.0595865
-0.4272461, -0.003418, -0.6328125, 27.1341476, 97.5, -15.7926836, -0.0652934
-0.4609375, -0.0068359, -0.659668, 30.1829281, 94.3292694, -16.2195129, -0.0626078
-0.4682617, -0.0039062, -0.6513672, 32.1341476, 91.7682953, -16.6463413, -0.0592508
-0.4589844, -0.0083008, -0.6450195, 36.9512215, 87.8658524, -16.9512196, -0.0562295
-0.4389648, -0.0039062, -0.6699219, 39.0853653, 87.0121994, -17.0121956, -0.0585794
-0.4272461, -0.0019531, -0.6865234, 43.5975609, 88.0487823, -17.0121956, -0.0592508
-0.4091797, 0.0063477, -0.690918, 45.3048782, 88.3536606, -17.0121956, -0.0562295
-0.3964844, -0.0039062, -0.6787109, 49.5121956, 89.2073212, -16.6463413, -0.0585794
-0.3671875, -0.0200195, -0.6879883, 52.0731735, 89.3902435, -16.7073174, -0.051194
-0.3525391, -0.0229492, -0.7216797, 55.7317085, 91.4634171, -16.2195129, -0.0485084
-0.3320312, -0.0170898, -0.8295898, 56.341465, 95.7317123, -15.3658543, -0.0485084
-0.3193359, -0.0097656, -0.8828125, 55.7926826, 97.7439041, -14.8780489, -0.0377661
-0.2871094, 0.0166016, -0.956543, 51.8902435, 99.9390259, -13.1097565, -0.0243381
-0.269043, 0.0253906, -0.972168, 49.5121956, 99.8170776, -12.2560978, -0.0196384
-0.2128906, 0.0454102, -0.925293, 46.9512215, 99.7561035, -10.6097565, -0.0085603
-0.1708984, 0.0786133, -0.8369141, 46.0975609, 100.6097565, -10.2439022, 0.0025177
-0.171875, 0.0976562, -0.7939453, 45.3048782, 106.4024429, -11.4634151, 0.0172885
-0.2226562, 0.1411133, -0.7470703, 44.5731735, 111.1585388, -12.6219511, 0.0381018
-0.2636719, 0.1430664, -0.7495117, 40.6707344, 119.3292694, -14.7560978, 0.0451514
-0.3452148, 0.1176758, -0.7910156, 37.7439041, 120.7926865, -15.1219511, 0.0542153
-0.371582, 0.0854492, -0.8173828, 31.0365868, 115.9756088, -14.5731707, 0.0488441
-0.3769531, 0.0170898, -0.8569336, 25.3048782, 106.1585388, -13.4146347, 0.0535439
-0.3554688, -0.003418, -0.8637695, 22.6219521, 101.8292694, -12.9878054, 0.0562295
-0.2788086, -0.0332031, -0.8544922, 20.2439022, 97.1951218, -13.5365858, 0.0471656
-0.2470703, -0.0385742, -0.8354492, 19.6951218, 96.7073212, -14.3292685, 0.0414588
-0.1972656, -0.0185547, -0.7709961, 19.939024, 98.6585388, -16.6463413, 0.0327306
-0.184082, 0.0146484, -0.7207031, 19.939024, 100.1219559, -18.1097565, 0.0240024
-0.1894531, 0.0214844, -0.7104492, 20.9756107, 103.2926865, -20.5487804, 0.0146029
-0.2158203, 0.0068359, -0.7036133, 21.5243912, 104.8170776, -21.0975609, 0.0025177
-0.2324219, -0.0151367, -0.7050781, 22.7439022, 105.6707306, -20.6097565, -0.0041962
-0.2519531, -0.0795898, -0.7138672, 24.2682934, 105.3658524, -20.060976, -0.0139315
-0.2573242, -0.1025391, -0.7304688, 28.0487804, 104.2682953, -18.9024391, -0.0283665
-0.2539062, -0.1269531, -0.7802734, 32.6219521, 105.8536606, -18.1097565, -0.0364233
-0.2509766, -0.125, -0.8032227, 35, 107.6219559, -18.1707325, -0.0424659
-0.2270508, -0.1166992, -0.8305664, 38.6585388, 110.5487823, -18.2926826, -0.0485084
-0.2158203, -0.1147461, -0.8276367, 40.7926826, 111.4634171, -18.2926826, -0.0458228
-0.1767578, -0.1157227, -0.7978516, 43.841465, 111.4634171, -19.0853672, -0.04448
-0.1420898, -0.1162109, -0.7636719, 45.2439041, 111.2804871, -20, -0.0428016
-0.1279297, -0.1137695, -0.7529297, 47.9878044, 112.7439041, -22.1341476, -0.0417945
-0.1157227, -0.1166992, -0.7836914, 49.0243912, 114.3902435, -23.0487804, -0.0488441
-0.1162109, -0.1186523, -0.8256836, 50.7317085, 119.2073212, -24.5121956, -0.0485084
-0.1196289, -0.1181641, -0.9389648, 50.8536606, 121.7682953, -24.5731716, -0.04448
-0.1147461, -0.1181641, -0.9824219, 50.6097565, 125.1219559, -23.4756107, -0.0446479
-0.074707, -0.1113281, -1.0039062, 50.4878044, 125.4878082, -21.6463413, -0.0399481
-0.0444336, -0.1098633, -0.9853516, 50.9756126, 125.0609818, -21.0975609, -0.0354162
-0.0029297, -0.1030273, -0.909668, 52.2560997, 126.1585388, -21.0975609, -0.0404517
0.0151367, -0.0927734, -0.8642578, 53.3536606, 127.7439041, -21.5853672, -0.0412909
0.0039062, -0.0517578, -0.777832, 54.0853653, 132.3170776, -23.4756107, -0.0364233
-0.0571289, -0.0024414, -0.7607422, 53.6585388, 134.7561035, -24.9390259, -0.0377661
-0.0947266, 0.0214844, -0.8032227, 50.1219521, 138.1707306, -26.9512196, -0.0253452
-0.1611328, 0.0371094, -0.9511719, 46.8292694, 138.7195129, -27.6219521, -0.0005035
-0.1782227, 0.0258789, -1.0214844, 37.4390259, 136.0975647, -27.1951218, 0.0146029
-0.1591797, -0.0341797, -1.0561523, 32.0121956, 132.0731812, -26.3414631, 0.0293736
-0.1220703, -0.0708008, -1, 23.4756107, 120.6097565, -23.780489, 0.040116
-0.015625, -0.1230469, -0.8217773, 22.9268303, 111.2195129, -23.0487804, 0.0454871
0.0288086, -0.1318359, -0.7509766, 24.9390259, 110.0609818, -23.9634151, 0.0273594
0.0522461, -0.1074219, -0.7456055, 29.6951218, 117.0731735, -26.8292694, 0.0198062
0.0332031, -0.0712891, -0.800293, 30.3658543, 123.2317123, -28.0487804, 0.0226596
-0.034668, -0.0053711, -0.965332, 26.0975609, 133.0487823, -29.1463413, 0.0562295
-0.0878906, 0.0380859, -1.0688477, 21.7682934, 134.146347, -28.7195129, 0.1072557
-0.0883789, 0.0424805, -1.0664062, 12.3780489, 129.0853729, -26.8292694, 0.149218
-0.0498047, 0.0341797, -0.9262695, 8.9024391, 124.2682953, -25.7317085, 0.1519036
-0.0175781, 0.0170898, -0.8320312, 6.4634147, 115.3048782, -25.2439022, 0.1485466
0.0288086, -0.0332031, -0.7084961, 7.6219516, 113.5975647, -25.4878063, 0.1347829
0.0366211, -0.065918, -0.7197266, 11.5853662, 119.4512253, -26.4634151, 0.1159838
0.0131836, -0.1357422, -0.8920898, 13.7195129, 130.9146423, -25.7317085, 0.0871138
-0.0024414, -0.1762695, -0.9956055, 13.5365858, 135.7317047, -24.6951218, 0.0520333
-0.0039062, -0.2436523, -1.1396484, 13.9634151, 139.0243988, -21.4634151, 0.0280308
0.0175781, -0.2680664, -1.1679688, 15.060976, 137.4390259, -19.8780499, 0.0072175
0.1225586, -0.2973633, -1.1645508, 19.6951218, 134.8780518, -17.5, -0.0129244
0.2568359, -0.2719727, -1.1035156, 22.560976, 135.5487823, -17.0121956, -0.0287022
0.3100586, -0.2480469, -1.0639648, 27.4390259, 142.86586, -19.1463413, -0.0404517
0.3549805, -0.171875, -0.9775391, 28.7195129, 149.0853729, -21.2195129, -0.0639506
0.3398438, -0.128418, -0.9541016, 29.1463413, 162.8048859, -27.6219521, -0.090135
0.2387695, -0.0527344, -0.9423828, 28.5365868, 168.2317047, -30.7926846, -0.1015488
0.1708984, -0.0366211, -0.9492188, 25.4268303, 173.3536682, -35.1219521, -0.1153124
0.0400391, -0.0395508, -0.9541016, 20.6097565, 168.7195129, -35.9146347, -0.1347829
-0.0063477, -0.0571289, -0.9384766, 18.1707325, 163.7195129, -35.1219521, -0.149218
-0.0581055, -0.0957031, -0.8725586, 15.6707325, 154.2682953, -32.6219521, -0.1532464
-0.0610352, -0.1108398, -0.8442383, 16.0975609, 151.1585388, -31.280489, -0.1576104
-0.0532227, -0.1225586, -0.8388672, 17.6829281, 149.8780518, -29.1463413, -0.1554284
-0.0239258, -0.1181641, -0.9267578, 18.4756107, 150.4268341, -28.7195129, -0.1532464
0.0009766, -0.1176758, -0.987793, 17.8048782, 149.3902435, -28.7195129, -0.1505608
0.0751953, -0.1259766, -1.081543, 15.8536587, 147.86586, -28.7195129, -0.1549248
0.1254883, -0.1337891, -1.1113281, 11.219512, 143.8414612, -28.3536587, -0.1589532
0.2290039, -0.1264648, -1.1103516, 9.4512196, 142.1341553, -27.3170738, -0.1433433
0.2749023, -0.1137695, -1.0800781, 7.1951222, 140.9756165, -25.2439022, -0.121355
0.3496094, -0.0688477, -0.9868164, 8.4146347, 144.6341553, -23.5365868, -0.1109483
0.3764648, -0.0444336, -0.9658203, 9.2682924, 148.4756165, -23.2317085, -0.1143053
0.3886719, -0.0336914, -1.0200195, 11.280488, 158.7195129, -24.4512196, -0.096849
0.3730469, -0.0507812, -1.0932617, 10.7926836, 163.5975647, -25.1219521, -0.0639506
0.3369141, -0.1333008, -1.2177734, 7.0731707, 166.9512177, -25, -0.030045
0.3291016, -0.2333984, -1.1958008, 5.0609756, 165.36586, -24.2073174, -0.0078889
0.3388672, -0.2739258, -1.1176758, 5.0609756, 157.2561035, -22.1341476, 0.0035248
0.3764648, -0.3120117, -0.8930664, 7.2560978, 153.2926941, -21.4634151, 0.0015106
0.3857422, -0.3012695, -0.8071289, 16.5243912, 153.1707306, -22.9878063, 0.0038605
0.3320312, -0.237793, -0.7880859, 22.439024, 157.86586, -24.8170738, 0.0058747
0.2788086, -0.199707, -0.8867188, 31.341465, 172.86586, -29.4512196, 0.0011749
0.1748047, -0.1308594, -1.2241211, 32.1951218, 185.0609741, -30.9756107, 0.0011749
0.1401367, -0.1079102, -1.4023438, 28.5975609, 187.012207, -30.1829281, 0.0048676
0.1855469, -0.1079102, -1.605957, 18.4146347, 179.6951294, -25.6097565, -0.002182
0.2602539, -0.1220703, -1.5976562, 13.6585369, 172.1951294, -22.6829281, -0.008896
0.4956055, -0.1411133, -1.4116211, 7.2560978, 161.2195129, -17.0121956, -0.0159457
0.7397461, -0.1103516, -1.1791992, 6.3414636, 161.3414612, -14.8170738, -0.0243381
0.8251953, -0.0737305, -1.1025391, 8.0487804, 177.0121918, -14.0853662, -0.0203098
0.8637695, 0.0019531, -1.0727539, 9.3292685, 189.8780518, -15.4878054, -0.0182956
0.8149414, 0.0283203, -1.1079102, 10.8536587, 214.0243988, -20.5487804, -0.0166171
0.6323242, 0.019043, -1.203125, 10.060976, 220.7926941, -22.3170738, -0.008896
0.5336914, -0.0087891, -1.2231445, 5.9146342, 220.8536682, -21.7682934, 0.0025177
0.3876953, -0.1088867, -1.1938477, 0.9756098, 211.7682953, -15.6707325, 0.0050355
0.3520508, -0.15625, -1.1508789, -0.3658537, 207.4390259, -12.1951218, 0.0117494
0.3349609, -0.2373047, -1.0229492, 0.6707317, 199.9390259, -8.3536587, 0.0112459
0.3393555, -0.2739258, -0.9482422, 2.804878, 196.5853729, -8.0487804, 0.0102388
0.3432617, -0.3134766, -0.8095703, 8.9634151, 190, -11.6463413, 0.0132601
0.3271484, -0.3134766, -0.7631836, 12.8658543, 187.012207, -14.5121956, 0.0099031
0.3081055, -0.3081055, -0.7915039, 19.5121956, 182.1951294, -19.5121956, 0.0132601
0.2675781, -0.2978516, -0.8725586, 22.3780499, 178.7195129, -21.0365868, 0.0193027
0.2568359, -0.2924805, -0.894043, 25.7926826, 168.2317047, -21.0365868, 0.0354162
0.300293, -0.2929688, -0.8457031, 26.7073174, 161.0975647, -19.8780499, 0.0421302
0.3461914, -0.2856445, -0.7910156, 29.5731716, 147.3780518, -17.560976, 0.0374304
0.4350586, -0.2358398, -0.7104492, 34.4512215, 141.4024353, -18.2317085, 0.0347448
0.4609375, -0.2001953, -0.7246094, 37.6219521, 141.4024353, -19.8170738, 0.0283665
0.4731445, -0.1430664, -0.8574219, 41.4634171, 142.7439117, -23.6585369, 0.0365911
0.4638672, -0.1313477, -0.9418945, 42.0121956, 141.1585388, -24.6341476, 0.0471656
0.4833984, -0.1474609, -1.0395508, 37.8048782, 132.86586, -23.9024391, 0.0193027
0.5771484, -0.1826172, -1.081543, 34.6341476, 127.6219559, -22.9878063, 0.0166171
0.637207, -0.1855469, -1.1049805, 27.0731716, 122.0731735, -22.1341476, 0.0370947
0.7270508, -0.140625, -1.206543, 24.0853672, 122.7439041, -23.2317085, 0.0458228
0.7495117, -0.1020508, -1.265625, 18.6585369, 128.2317047, -27.560976, 0.0347448
0.7724609, -0.0048828, -1.34375, 15.9756098, 130.5487823, -29.2682934, 0.0250095
0.7871094, 0.0200195, -1.3242188, 9.1463413, 132.1951294, -30.2439022, 0.0159457
0.8266602, 0.0126953, -1.203125, 2.2560976, 132.8048859, -28.5365868, 0.0078889
0.8486328, -0.0175781, -1.1396484, -0.6097561, 134.9390259, -28.1707325, -0.0115816
0.8354492, -0.1230469, -1.1142578, -1.8292683, 145.3048859, -28.780489, -0.0337377
0.7963867, -0.1801758, -1.1645508, -0.6707317, 151.8902435, -29.5121956, -0.0589151
0.6938477, -0.2949219, -1.2905273, 2.3170731, 160.2439117, -30, -0.0837568
0.6337891, -0.3754883, -1.2841797, 3.2317073, 160.4878082, -28.841465, -0.1005417
0.6357422, -0.3945312, -1.2109375, 3.9024391, 158.3536682, -26.6463413, -0.1089342
0.6650391, -0.3881836, -1.0297852, 4.6951222, 157.86586, -26.1585369, -0.0955062
0.6669922, -0.3583984, -0.9833984, 9.2073174, 164.2682953, -28.6585369, -0.0485084
0.6269531, -0.2539062, -1.0566406, 11.9512196, 169.7561035, -30.7926846, -0.0078889
0.5898438, -0.1870117, -1.152832, 13.4756098, 177.86586, -34.7560997, 0.023331
0.5522461, -0.0795898, -1.3041992, 5.8536587, 177.1341553, -35.7926826, 0.0508583
0.5634766, -0.0634766, -1.3076172, -0.7926829, 173.6585388, -34.9390259, 0.0703288
0.6469727, -0.1201172, -1.1386719, -12.5, 164.4512177, -31.1585369, 0.0619364
0.7011719, -0.1762695, -0.9985352, -15.3048782, 160.6097565, -29.0243912, 0.0345769
0.7929688, -0.2822266, -0.7094727, -11.219512, 158.9634247, -27.560976, 0.0105745
0.7641602, -0.3237305, -0.6000977, -5.7926831, 160.9756165, -28.2317085, -0.0102388
0.6894531, -0.309082, -0.6386719, 7.5, 168.4756165, -31.8292694, -0.0313878
0.4931641, -0.2402344, -0.8320312, 12.3780489, 170.9756165, -33.2926826, -0.0500191
0.4125977, -0.2163086, -0.9345703, 15.5487804, 167.6219482, -33.1707306, -0.0569009
0.3510742, -0.230957, -1.0405273, 13.5365858, 161.5243988, -30.9756107, -0.0619364
0.3823242, -0.2670898, -1.019043, 5.5487804, 143.3536682, -25.5487804, -0.0632792
0.5561523, -0.3564453, -0.8823242, 1.5853659, 127.6219559, -22.1951218, -0.0622721
0.6557617, -0.3886719, -0.8100586, 3.1097562, 123.8414688, -22.3780499, -0.0582437
0.8061523, -0.3876953, -0.7617188, 11.4024391, 125, -25.5487804, -0.0540475
0.84375, -0.3623047, -0.7919922, 17.0121956, 127.68293, -27.4390259, -0.043473
0.8515625, -0.2978516, -0.9008789, 24.6341476, 131.7682953, -29.0853672, -0.0340734
0.8466797, -0.2319336, -1.0307617, 25.8536587, 132.5, -28.4756107, -0.0273594
0.8466797, -0.2045898, -1.0913086, 23.4146347, 132.0731812, -25.9756107, -0.0223239
0.8608398, -0.1362305, -1.1855469, 20.7317085, 131.8902435, -24.6951218, -0.0303807
0.8740234, -0.1010742, -1.2216797, 13.7195129, 132.5, -23.4756107, -0.0493477
0.9013672, -0.0200195, -1.2119141, 9.3902445, 132.8048859, -23.2926826, -0.0466621
0.9179688, 0.012207, -1.1640625, 1.5243902, 132.5609741, -23.6585369, -0.0453193
0.9448242, 0, -1.0073242, -5.2439027, 131.2804871, -23.8414631, -0.0428016
0.9487305, -0.0419922, -0.9316406, -7.2560978, 131.0975647, -24.1463413, -0.04448
0.90625, -0.1689453, -0.8813477, -8.9024391, 133.0487823, -23.3536587, -0.051194
0.8657227, -0.2338867, -0.9155273, -8.2926826, 134.5121918, -23.1097565, -0.054551
0.7729492, -0.3374023, -1.0532227, -6.1585369, 137.1341553, -21.8902435, -0.0592508
0.7299805, -0.3837891, -1.1650391, -5.1219511, 137.3170776, -20.6097565, -0.0673075
0.7431641, -0.3876953, -1.184082, -4.4512196, 134.7561035, -17.3170738, -0.0715038
0.8393555, -0.3637695, -1.1469727, -4.5731707, 133.4756165, -16.0975609, -0.0666361
0.9038086, -0.3452148, -1.1118164, -4.2682929, 134.3292694, -15.4878054, -0.0639506
1.0029297, -0.296875, -1.050293, -4.0243902, 136.9512177, -16.4024391, -0.0733501
1.0307617, -0.2685547, -1.0273438, -3.3536587, 144.5731812, -20.2439022, -0.0710002
1.0166016, -0.215332, -0.9858398, -3.2926829, 150.0609741, -23.5975609, -0.0605936
0.987793, -0.1992188, -0.9501953, -3.7804878, 150.9146423, -25, -0.0421302
0.9047852, -0.1982422, -0.8730469, -4.390244, 149.6951294, -26.4024391, -0.0325628
0.8535156, -0.215332, -0.8408203, -4.2682929, 148.5975647, -26.3414631, -0.043473
0.7583008, -0.2568359, -0.8168945, -3.0487804, 144.7561035, -25.8536587, -0.0501869
0.6879883, -0.2944336, -0.831543, -2.3170731, 142.8048859, -25.5487804, -0.0384375
0.6704102, -0.2983398, -0.8476562, -0.8536586, 137.1341553, -24.6951218, -0.0169528
0.6743164, -0.2978516, -0.8520508, -0.7926829, 133.8414612, -24.5121956, 0.0011749
0.6972656, -0.2949219, -0.8413086, -0.4878049, 127.1341476, -24.8170738, 0.0182956
0.7651367, -0.2895508, -0.8222656, -0.4878049, 122.2561035, -25, 0.0240024
0.7983398, -0.2905273, -0.828125, -0.1219512, 120.9756088, -25.6097565, 0.0038605
0.8598633, -0.2832031, -0.8383789, 0.4268293, 120, -25.9146347, 0.0038605
0.8789062, -0.2773438, -0.8408203, 0.7317073, 119.8170776, -26.2195129, 0.033402
0.9033203, -0.2646484, -0.8105469, 1.5243902, 119.5121994, -26.7682934, 0.0730144
0.8964844, -0.2675781, -0.7578125, 2.3780489, 119.146347, -26.8902454, 0.0971847
0.8798828, -0.2680664, -0.7373047, 5, 117.68293, -27.8048782, 0.1018845
0.8232422, -0.2773438, -0.7192383, 6.7682929, 117.1341476, -28.1707325, 0.1070878
0.7924805, -0.2719727, -0.7231445, 9.8780489, 115.0609818, -28.780489, 0.1042344
0.7416992, -0.2207031, -0.7666016, 10.3048782, 114.0853653, -28.7195129, 0.0817426
0.7304688, -0.1918945, -0.7998047, 10.1219511, 111.2195129, -29.4512196, 0.0505226
0.7387695, -0.1591797, -0.8696289, 6.6463418, 106.0975647, -30.4268303, 0.0219883
0.7680664, -0.1601562, -0.8974609, 3.7195122, 103.1097565, -31.1585369, -0.0028534
0.8476562, -0.1855469, -0.9370117, -2.0731707, 98.1707306, -32.1341476, -0.0236667
0.8945312, -0.2109375, -0.9477539, -4.6951222, 96.8902435, -32.5, -0.0397803
0.9794922, -0.2539062, -0.9418945, -7.2560978, 97.9268341, -31.8292694, -0.0485084
1.0332031, -0.2626953, -0.9106445, -7.0121951, 100.18293, -31.7073174, -0.0582437
1.0390625, -0.2636719, -0.8984375, -4.3292685, 106.4024429, -31.5243912, -0.0814069
1.0263672, -0.2524414, -0.8735352, -2.3170731, 110.0609818, -31.6463413, -0.1055772
0.9995117, -0.2495117, -0.8686523, 0.9756098, 117.0731735, -31.4024391, -0.1331044
0.9228516, -0.2353516, -0.8564453, 2.5, 119.6951218, -31.0975609, -0.1472038
0.8881836, -0.2294922, -0.8530273, 4.3292685, 124.0243912, -30, -0.1601282
0.8276367, -0.2270508, -0.8608398, 5.1219511, 127.5609818, -29.0243912, -0.1616388
0.809082, -0.2333984, -0.8764648, 5.0609756, 128.9634247, -28.1707325, -0.1485466
0.7958984, -0.2529297, -0.9150391, 3.9634147, 130.2439117, -27.3780499, -0.1277333
0.8032227, -0.2661133, -0.9106445, 3.3536587, 129.9390259, -26.3414631, -0.1089342
0.8320312, -0.2753906, -0.8417969, 2.5, 128.7804871, -24.6951218, -0.0955062
0.8730469, -0.2661133, -0.7138672, 2.9268293, 128.1097565, -23.9634151, -0.0820783
0.8911133, -0.262207, -0.65625, 5.9756098, 129.0853729, -23.2317085, -0.0767071
0.894043, -0.234375, -0.5932617, 7.6829271, 129.5731812, -23.2926826, -0.0770428
0.8745117, -0.2133789, -0.5839844, 11.0975609, 130.0609741, -24.0243912, -0.0757
0.8232422, -0.1733398, -0.5996094, 11.8902445, 128.9634247, -24.7560978, -0.0686503
0.7963867, -0.1591797, -0.6191406, 11.0975609, 123.7804871, -25.3658543, -0.0538796
0.7797852, -0.1430664, -0.6660156, 7.3780489, 117.4390259, -24.3292694, -0.0505226
0.7910156, -0.1450195, -0.6870117, 5.1219511, 113.9024429, -23.780489, -0.0683146
0.8461914, -0.1762695, -0.6943359, 0.3658537, 107.6219559, -22.8048782, -0.0585794
0.8837891, -0.199707, -0.6787109, -0.9146342, 105, -22.8658543, -0.0391089
0.9487305, -0.2509766, -0.612793, -0.3658537, 101.4634171, -23.0487804, -0.0357519
0.9648438, -0.2705078, -0.5424805, 1.097561, 100.9756088, -23.0487804, -0.0290379
0.9594727, -0.2724609, -0.5249023, 5.9756098, 102.3780518, -22.2560978, -0.0209812
0.9140625, -0.2475586, -0.5571289, 8.780488, 103.1707306, -22.0121956, -0.0135958
0.8891602, -0.2299805, -0.6030273, 11.7073174, 103.3536606, -22.1951218, 0.0075532
0.8530273, -0.2016602, -0.6982422, 11.8902445, 101.9512253, -22.1341476, 0.0461585
0.8554688, -0.1914062, -0.7246094, 8.6585369, 97.3170776, -22.0121956, 0.1096056
0.8920898, -0.1958008, -0.7143555, 5.0609756, 91.5243912, -21.6463413, 0.1438468
0.9267578, -0.2084961, -0.6894531, 3.7804878, 89.2682953, -21.5243912, 0.1549248
1.0131836, -0.2338867, -0.6518555, 4.1463413, 87.8048782, -21.7073174, 0.1542535
1.0449219, -0.2397461, -0.6630859, 5.1829271, 89.3902435, -21.8292694, 0.1367971
1.074707, -0.2382812, -0.7133789, 6.890244, 94.5731735, -21.4634151, 0.1193408
1.0766602, -0.2226562, -0.7543945, 7.2560978, 97.1951218, -20.9756107, 0.0950027
1.0805664, -0.2094727, -0.7485352, 7.1951222, 99.0243912, -18.9634151, 0.0679789
1.0791016, -0.1958008, -0.6928711, 7.0121951, 98.4756088, -18.1707325, 0.0481727
1.0805664, -0.1992188, -0.6625977, 7.6829271, 96.9512253, -17.0731716, 0.0454871
1.0708008, -0.203125, -0.621582, 8.3536587, 96.646347, -16.7682934, 0.0441444
1.0576172, -0.1982422, -0.6176758, 9.8170738, 97.3170776, -16.4634151, 0.0730144
1.0239258, -0.1962891, -0.6279297, 10.7926836, 97.2561035, -16.7682934, 0.115816
1.0126953, -0.1992188, -0.6235352, 10.7926836, 96.8292694, -16.6463413, 0.1159838
0.9916992, -0.2041016, -0.6137695, 10.7926836, 93.9634171, -16.2195129, 0.1012131
0.9941406, -0.2060547, -0.6181641, 10.9756098, 93.0487823, -16.2195129, 0.1065843
1.0058594, -0.2041016, -0.6459961, 10.4878054, 91.9512253, -15.4268293, 0.1106126
1.0126953, -0.1733398, -0.6567383, 9.7560978, 92.1951218, -14.8170738, 0.1025559
1.0219727, -0.1557617, -0.6420898, 8.2926826, 93.1097565, -13.841464, 0.0800641
1.0449219, -0.1176758, -0.5766602, 8.2926826, 92.9268341, -13.4146347, 0.0414588
1.0517578, -0.1074219, -0.5322266, 8.5365858, 90.3048782, -13.5975609, -0.0062104
1.0478516, -0.1206055, -0.4506836, 8.9024391, 88.8414688, -14.2073174, -0.0498512
1.0395508, -0.1411133, -0.4150391, 9.3902445, 86.0365906, -14.5121956, -0.0918135
0.9921875, -0.1958008, -0.3808594, 10.060976, 83.2317123, -14.8780489, -0.1277333
0.9633789, -0.2167969, -0.3886719, 10.6707315, 81.5243912, -15.1219511, -0.1465324
0.9038086, -0.2490234, -0.4306641, 11.6463413, 77.3780518, -14.7560978, -0.1720455
0.8867188, -0.2519531, -0.4526367, 11.9512196, 75.6707306, -14.0853662, -0.1997406
0.8808594, -0.2299805, -0.4921875, 13.841464, 71.5853653, -12.8658543, -0.1962158
0.9238281, -0.1977539, -0.5322266, 14.7560978, 69.8780518, -12.6219511, -0.1764096
0.9599609, -0.1811523, -0.5478516, 15.9146347, 67.4390259, -12.8048782, -0.1505608
1.0424805, -0.1640625, -0.5605469, 16.3414631, 66.7073212, -13.3536587, -0.1277333
1.074707, -0.1635742, -0.5668945, 15, 67.8048782, -14.8780489, -0.1032273
1.1108398, -0.1625977, -0.5683594, 13.9634151, 68.7804871, -15.3658543, -0.0780499
1.1132812, -0.1645508, -0.5639648, 12.2560978, 71.2195129, -15.7926836, -0.0797284
1.0996094, -0.1582031, -0.5693359, 10.9146347, 72.8048782, -15.2439032, -0.0963455
1.0922852, -0.1518555, -0.5776367, 10.6707315, 73.3536606, -14.8170738, -0.1210193
1.0786133, -0.1386719, -0.6098633, 9.2073174, 74.8780518, -13.5365858, -0.1052415
1.0737305, -0.1347656, -0.6240234, 8.1707315, 75.6097565, -12.8658543, -0.0834211
1.0683594, -0.1367188, -0.640625, 6.0365853, 77.0731735, -11.9512196, -0.0652934
1.0717773, -0.1430664, -0.6176758, 5, 77.9268341, -11.7682934, -0.0666361
1.0737305, -0.1455078, -0.6025391, 3.7804878, 79.5731735, -11.5243902, -0.0753643
1.0683594, -0.1557617, -0.5629883, 3.2317073, 80.6707306, -11.7073174, -0.0891279
1.0576172, -0.1542969, -0.543457, 2.2560976, 82.4390259, -11.1585369, -0.1116197
1.0356445, -0.1479492, -0.5112305, 1.2804878, 82.8048782, -10.4878054, -0.1364614
1.0239258, -0.1450195, -0.5112305, -1.1585366, 83.3536606, -9.3902445, -0.1566033
1.0009766, -0.1347656, -0.5361328, -4.0243902, 83.8414688, -8.2926826, -0.1708705
0.9916992, -0.1259766, -0.5522461, -5.1829271, 83.5365906, -7.5609756, -0.1707027
0.9819336, -0.1074219, -0.5449219, -6.5853658, 81.5853653, -5.8536587, -0.1468681
0.9912109, -0.1010742, -0.5195312, -6.7682929, 80.3658524, -5.2439027, -0.0981918
1.015625, -0.0996094, -0.4404297, -5.8536587, 77.1951218, -5.4878049, -0.0386053
1.0385742, -0.1181641, -0.3579102, -4.7560978, 75.7926865, -5.5487804, 0.01561
1.0419922, -0.1293945, -0.331543, -3.1707318, 73.9024429, -5.9756098, 0.0414588
1.0292969, -0.1669922, -0.3212891, -2.6219513, 73.1097565, -5.8536587, 0.0386053
1.0136719, -0.1889648, -0.3286133, -3.1097562, 70.4268341, -5.9146342, 0.0344091
0.9731445, -0.2036133, -0.3554688, -3.5365853, 68.7195129, -5.7317076, 0.0320592
0.953125, -0.2119141, -0.3647461, -4.0853658, 63.6585388, -4.390244, 0.018967
0.9501953, -0.2060547, -0.3911133, -3.7195122, 58.2926826, -3.2317073, 0.0125887
0.9594727, -0.1958008, -0.4072266, -3.6585367, 55.7317085, -2.9878049, 0.018967
0.9990234, -0.1855469, -0.4272461, -3.1097562, 51.5243912, -2.5, 0.0166171
1.0219727, -0.1801758, -0.425293, -2.7439024, 49.8170738, -2.8658538, 0.0062104
1.0615234, -0.1674805, -0.4023438, -1.3414634, 47.8658562, -3.2926829, 0.0085603
1.0834961, -0.1777344, -0.3852539, -0.5487805, 47.1341476, -3.5365853, 0.0068818
1.0791016, -0.1889648, -0.3867188, 0.8536586, 47.1341476, -4.2682929, 0.005539
1.0527344, -0.2080078, -0.4067383, 1.7682927, 46.7682953, -4.1463413, 0.0057069
1.0361328, -0.2172852, -0.4116211, 2.5, 45.9146347, -3.1097562, -0.0050355
1.0073242, -0.2265625, -0.4057617, 3.2926829, 44.6951218, -2.5609756, -0.0018463
1.0039062, -0.2329102, -0.3959961, 5.4268293, 42.3780479, -2.0731707, -0.0005035
1.0014648, -0.2290039, -0.3969727, 8.4756098, 40.1219521, -1.8902439, 0.0025177
1.003418, -0.2260742, -0.402832, 9.5731707, 39.5731735, -2.5, 0.0065461
1.0136719, -0.2094727, -0.4282227, 10.6707315, 39.3902435, -2.9268293, 0.0018463
1.0205078, -0.2045898, -0.4345703, 10.6707315, 39.2682953, -3.2926829, 0.0038605
1.0288086, -0.1865234, -0.4521484, 10.3048782, 38.7195129, -2.6829269, 0.0065461
1.0410156, -0.1469727, -0.4506836, 10.6097565, 38.6585388, -2.6219513, 0.0095674
1.050293, -0.1293945, -0.4423828, 9.5731707, 37.5, -1.8292683, 0.0031891
1.0620117, -0.1054688, -0.4394531, 8.841464, 36.7682953, -1.5853659, -0.0048676
1.0654297, -0.1040039, -0.4443359, 7.3780489, 35.7926826, -2.0121951, -0.0028534
1.0522461, -0.1152344, -0.4541016, 6.7682929, 35.8536606, -2.5609756, 0.0142672
1.0405273, -0.1181641, -0.4663086, 4.5121951, 36.6463432, -1.2195122, 0.0421302
1.034668, -0.1132812, -0.484375, 2.3780489, 37.8048782, 0.2439024, 0.0347448
1.0288086, -0.1108398, -0.4936523, 1.7682927, 38.5975609, 0.3658537, 0.040116
1.0253906, -0.1103516, -0.4897461, 0.7317073, 39.0243912, 0.4268293, 0.0500191
1.0317383, -0.1176758, -0.4794922, 0.4268293, 38.7804871, 0.3658537, 0.0357519
1.0253906, -0.1308594, -0.4482422, 0.3658537, 38.5365868, 0.3658537, 0.0199741
1.0244141, -0.1445312, -0.4150391, 0.5487805, 39.0243912, 0.4878049, 0.0186313
1.0205078, -0.1430664, -0.4111328, 0.3048781, 40.4268303, 0.5487805, 0.0240024
1.0063477, -0.1376953, -0.4257812, 0.0609756, 41.0975609, 0.7317073, 0.0327306
0.9960938, -0.140625, -0.4345703, -1.2804878, 41.8902435, 0.7317073, 0.043473
0.9868164, -0.1474609, -0.4423828, -2.5, 40.9146347, 0.9146342, 0.0381018
0.987793, -0.1542969, -0.4287109, -4.1463413, 38.1707344, 1.1585366, 0.0179599
0.9995117, -0.1650391, -0.4018555, -3.8414636, 35.9146347, 1.5243902, 0.0102388
1.0009766, -0.1660156, -0.3911133, -3.7804878, 35.6707344, 1.7682927, 0.0125887
1.0048828, -0.168457, -0.3881836, -2.9268293, 36.0365868, 1.9512196, -0.0003357
1.0004883, -0.1733398, -0.4003906, -3.0487804, 36.341465, 1.8902439, -0.0206455
0.9960938, -0.184082, -0.4155273, -3.4756098, 35.6097565, 1.402439, -0.0354162
0.9829102, -0.1894531, -0.4008789, -3.9024391, 34.7560997, 1.8902439, -0.0726787
0.9814453, -0.1870117, -0.3833008, -3.9024391, 32.2560997, 2.5609756, -0.1085985
0.9858398, -0.1738281, -0.3564453, -3.2926829, 30.9756107, 2.9268293, -0.139147
0.9907227, -0.1665039, -0.3520508, -1.8292683, 29.2073174, 3.0487804, -0.1720455
0.9980469, -0.1616211, -0.3701172, -1.402439, 28.2317085, 2.5, -0.1995727
0.9990234, -0.1650391, -0.3818359, -2.804878, 26.6463413, 1.5853659, -0.200412
0.9951172, -0.1787109, -0.4013672, -5.3658538, 24.3902435, 1.402439, -0.1408255
0.9892578, -0.190918, -0.4023438, -6.0365853, 23.2317085, 1.7073171, -0.0283665
0.9873047, -0.2026367, -0.3798828, -6.7682929, 21.1585369, 2.804878, 0.0998703
0.984375, -0.206543, -0.3671875, -6.0365853, 20.3658543, 3.5365853, 0.1837949
0.9804688, -0.2036133, -0.3681641, -3.9024391, 20, 4.2682929, 0.1940337
0.9731445, -0.1806641, -0.3857422, -3.0487804, 19.8170738, 4.5121951, 0.1851377
0.9692383, -0.1723633, -0.3925781, -3.0487804, 18.9024391, 4.5121951, 0.1723812
0.9638672, -0.1547852, -0.4003906, -4.2073174, 18.2926826, 4.6341462, 0.1475395
0.9614258, -0.1489258, -0.3974609, -6.6463418, 16.0365849, 5.4878049, 0.0822461
0.9663086, -0.1323242, -0.3886719, -7.3170733, 15.060976, 6.4024391, -0.0099031
0.9760742, -0.128418, -0.3857422, -7.7439027, 13.2317076, 7.4390244, -0.0639506
0.996582, -0.1298828, -0.3935547, -7.8658538, 12.3780489, 7.6829271, -0.0955062
1.0004883, -0.140625, -0.4023438, -8.1097565, 11.8292685, 7.6219516, -0.10692
1.0004883, -0.1572266, -0.4077148, -9.6951218, 11.341464, 7.4390244, -0.1216907
0.9995117, -0.1625977, -0.4038086, -10.3658543, 10.7317076, 7.8658538, -0.1257191
0.9931641, -0.1733398, -0.3818359, -11.0975609, 9.7560978, 8.719512, -0.1203479
0.9819336, -0.1606445, -0.3691406, -11.0975609, 9.0853662, 9.2073174, -0.103563
0.9765625, -0.1616211, -0.3691406, -10.7317076, 7.7439027, 9.4512196, -0.0884565
0.9677734, -0.1611328, -0.3798828, -10.3658543, 7.1341467, 9.4512196, -0.0861067
0.9677734, -0.1655273, -0.3857422, -11.280488, 5.4268293, 8.780488, -0.0961776
0.9638672, -0.1826172, -0.3901367, -12.1951218, 4.4512196, 8.5365858, -0.0988632
0.9643555, -0.1928711, -0.3852539, -14.0853662, 2.4390244, 8.841464, -0.0995346
0.9702148, -0.2016602, -0.3706055, -13.7195129, 0.9146342, 9.2073174, -0.0938277
0.9775391, -0.203125, -0.3676758, -12.9878054, -0.0609756, 9.0243902, -0.0793927
0.9902344, -0.2055664, -0.3735352, -11.8292685, -1.3414634, 8.4756098, -0.0632792
0.9995117, -0.2124023, -0.3813477, -11.4634151, -1.8902439, 8.2317076, -0.0605936
1.0068359, -0.2226562, -0.3876953, -10.9756098, -2.9268293, 8.2317076, -0.0609293
1.0029297, -0.2182617, -0.3945312, -11.280488, -3.1097562, 8.3536587, -0.0602579
0.9941406, -0.2119141, -0.3999023, -11.5853662, -3.1707318, 8.6585369, -0.0619364
0.984375, -0.1850586, -0.4086914, -11.8292685, -3.2926829, 9.1463413, -0.0840925
0.9853516, -0.171875, -0.4145508, -11.7682934, -4.3292685, 9.7560978, -0.0988632
0.9926758, -0.1489258, -0.4121094, -11.9512196, -5.3658538, 9.6951218, -0.0985275
0.9995117, -0.1489258, -0.4130859, -13.5365858, -7.9268293, 9.8170738, -0.0914778
1.0063477, -0.1479492, -0.4145508, -15.9756098, -9.2073174, 9.3902445, -0.0773785
1.0048828, -0.1523438, -0.4179688, -17.5, -9.1463413, 9.4512196, -0.0666361
0.9926758, -0.1542969, -0.4208984, -19.8170738, -8.9634151, 10.1219511, -0.051194
0.984375, -0.1586914, -0.4194336, -20.1829281, -9.3292685, 10.7926836, -0.0448157
0.9804688, -0.1606445, -0.4003906, -20.6097565, -11.0365858, 11.8902445, -0.0404517
0.9736328, -0.1655273, -0.3828125, -20.4878044, -12.0121956, 12.1341467, -0.0313878
0.9790039, -0.1674805, -0.3720703, -20.3048782, -13.4756098, 12.4390249, -0.0236667
0.9658203, -0.1728516, -0.3647461, -20.6097565, -13.841464, 12.6219511, -0.0157778
0.9633789, -0.1708984, -0.362793, -21.3414631, -15.3658543, 12.8048782, -0.0109102
0.9584961, -0.1621094, -0.3696289, -22.1951218, -17.439024, 13.2317076, -0.0270237
0.9584961, -0.1572266, -0.378418, -22.439024, -19.0243912, 13.1707315, -0.0417945
0.9707031, -0.1552734, -0.4067383, -23.5975609, -21.7073174, 13.2926836, -0.0035248
0.9765625, -0.1591797, -0.4174805, -23.7195129, -22.8658543, 13.3536587, 0.0632792
0.9990234, -0.1645508, -0.4165039, -24.4512196, -24.4512196, 14.0243902, 0.1253834
1.0107422, -0.1591797, -0.3964844, -24.5731716, -24.6951218, 14.3902445, 0.1789273
1.019043, -0.1494141, -0.3881836, -24.3292694, -25, 14.6341467, 0.1690242
1.0112305, -0.1386719, -0.3852539, -23.9024391, -25, 14.5731707, 0.1448539
1.0073242, -0.1430664, -0.3842773, -24.0853672, -26.7073174, 14.0243902, 0.1300832
0.9907227, -0.15625, -0.3852539, -24.6951218, -27.6829281, 13.841464, 0.1052415
0.9868164, -0.1713867, -0.3779297, -26.8292694, -30.8536587, 14.0853662, 0.0797284
0.9853516, -0.199707, -0.3623047, -28.0487804, -34.5731697, 14.3902445, 0.0428016
0.984375, -0.2119141, -0.3554688, -27.8048782, -36.0975609, 14.3292685, -0.0115816
0.9897461, -0.2246094, -0.3510742, -26.3414631, -38.5975609, 14.0853662, -0.0983597
0.9887695, -0.2202148, -0.3535156, -25.6097565, -39.5121956, 14.0243902, -0.156939
1.0009766, -0.2094727, -0.371582, -23.9634151, -41.341465, 13.6585369, -0.1978943
1.0092773, -0.1977539, -0.3964844, -23.5365868, -42.2560997, 13.4756098, -0.2029297
1.0063477, -0.1914062, -0.4111328, -24.0853672, -43.841465, 13.6585369, -0.1089342
1.0102539, -0.1787109, -0.4321289, -24.3292694, -44.6341476, 13.7195129, 0.0132601
1.0131836, -0.1679688, -0.4370117, -25.1829281, -45.7926826, 14.3902445, 0.1059129
1.0205078, -0.1411133, -0.4389648, -25.1829281, -46.4634171, 14.6341467, 0.1755703
1.0175781, -0.1308594, -0.4335938, -25.8536587, -47.3170738, 14.8170738, 0.2072938
1.0087891, -0.1293945, -0.4272461, -27.2560978, -49.1463432, 14.7560978, 0.2052796
1.0043945, -0.1308594, -0.4223633, -28.2317085, -50.1219521, 14.8780489, 0.1832914
0.9985352, -0.1459961, -0.418457, -29.8780499, -52.2560997, 14.6341467, 0.1287404
1.0004883, -0.1542969, -0.4174805, -30.6707325, -53.7804909, 14.6341467, 0.0495155
1.0009766, -0.1791992, -0.4155273, -31.9512196, -56.2195129, 13.9024391, 0.0041962
1.0043945, -0.2036133, -0.4326172, -31.9512196, -57.3170738, 13.7195129, -0.0265202
1.0097656, -0.2158203, -0.4414062, -31.6463413, -59.0243912, 13.5365858, -0.0364233
1.0209961, -0.2177734, -0.4682617, -31.2195129, -59.2073174, 13.5975609, -0.0339055
1.027832, -0.2158203, -0.4829102, -30.1219521, -59.6341476, 13.9634151, -0.0297093
1.0351562, -0.2021484, -0.4912109, -29.6341476, -59.6341476, 14.1463413, -0.0360876
1.0410156, -0.1899414, -0.487793, -28.5365868, -60.0609779, 14.9390249, -0.0365911
1.0488281, -0.1669922, -0.4780273, -28.2317085, -60.1219521, 15.3048782, -0.023331
1.0498047, -0.1538086, -0.4736328, -28.4756107, -60.18293, 15.4268293, -0.01561
1.0415039, -0.1347656, -0.4863281, -29.3292694, -59.9390259, 14.6341467, 0.0016785
1.0307617, -0.1308594, -0.4956055, -30.5487804, -60, 14.5731707, 0.0330663
1.0068359, -0.1318359, -0.5058594, -33.1097565, -60.8536606, 14.7560978, 0.0558938
0.9931641, -0.1430664, -0.4916992, -34.3902435, -61.7682953, 15, 0.1099413
0.9902344, -0.1489258, -0.4736328, -35.3658562, -64.2073212, 15.6097565, 0.1448539
0.9868164, -0.1738281, -0.4267578, -35.0609779, -65.5487823, 15.9146347, 0.1649958
0.9838867, -0.1870117, -0.4077148, -34.3292694, -68.5365906, 15.7317076, 0.160296
0.9711914, -0.215332, -0.3837891, -33.5975609, -69.3292694, 15.5487804, 0.1334401
0.9550781, -0.2236328, -0.3857422, -32.3780479, -70.9756088, 15.8536587, 0.1122911
0.9267578, -0.2319336, -0.4042969, -31.280489, -72.9878082, 16.5853653, 0.0978561
0.9194336, -0.2314453, -0.4189453, -30.4268303, -74.5731735, 17.0731716, 0.072343
0.918457, -0.2045898, -0.4550781, -28.9634151, -78.0487823, 17.9268303, 0.0340734
0.9282227, -0.1914062, -0.4663086, -28.2926826, -80.5487823, 18.5975609, 0.0011749
0.9716797, -0.1665039, -0.480957, -28.1707325, -84.146347, 19.2073174, -0.0263523
1.0117188, -0.1533203, -0.4868164, -28.5975609, -85.6707306, 18.9024391, -0.043473
1.0224609, -0.152832, -0.4858398, -29.9390259, -87.68293, 17.9268303, -0.057908
1.027832, -0.1625977, -0.4765625, -30.4878063, -88.5365906, 17.7439022, -0.0720073
1.0205078, -0.1655273, -0.46875, -31.4024391, -90.5487823, 17.3780499, -0.0983597
0.9975586, -0.1728516, -0.4702148, -31.6463413, -92.1951218, 17.6219521, -0.1267262
0.9882812, -0.1748047, -0.4765625, -31.4024391, -95, 18.1707325, -0.1440146
0.9707031, -0.1787109, -0.4956055, -31.341465, -97.8048782, 18.780489, -0.1566033
0.9682617, -0.184082, -0.5097656, -31.4024391, -99.146347, 19.0853672, -0.1727169
0.9755859, -0.1943359, -0.5405273, -32.5609779, -100.9756088, 19.0853672, -0.1863127
0.9799805, -0.1972656, -0.5551758, -33.1097565, -101.8292694, 18.9024391, -0.1895018
0.9897461, -0.2011719, -0.5688477, -33.9634171, -103.9634171, 18.780489, -0.1889982
1.0019531, -0.2045898, -0.5532227, -34.0853653, -104.5731735, 19.0243912, -0.1895018
1.0087891, -0.2055664, -0.5454102, -33.0487823, -105.6097565, 19.3902435, -0.19823
1.0175781, -0.199707, -0.5419922, -32.3170738, -105.8536606, 19.3292694, -0.2146792
1.0234375, -0.2016602, -0.5483398, -31.280489, -106.4024429, 19.0853672, -0.2465705
1.0195312, -0.2109375, -0.5561523, -31.0365868, -106.4634171, 18.7195129, -0.2687266
1.0131836, -0.2236328, -0.5522461, -31.0975609, -107.6219559, 18.5365849, -0.2566415
1.0039062, -0.2412109, -0.5405273, -31.341465, -108.9024429, 18.5365849, -0.2200504
0.9970703, -0.2436523, -0.5419922, -30.9756107, -109.0243912, 18.3536587, -0.178088
0.9819336, -0.2421875, -0.5488281, -30.060976, -108.9634171, 18.0487804, -0.1448539
0.9711914, -0.2333984, -0.5605469, -29.1463413, -109.0243912, 18.2317085, -0.1294118
0.9501953, -0.2138672, -0.5864258, -27.9878063, -109.7561035, 18.9024391, -0.1228656
0.9541016, -0.1884766, -0.597168, -27.9268303, -110.6097565, 19.3292694, -0.1012131
0.9633789, -0.1748047, -0.590332, -28.4756107, -112.9878082, 20, -0.0780499
0.9902344, -0.1645508, -0.5654297, -28.841465, -114.146347, 20.3048782, -0.0595865
1.0058594, -0.1640625, -0.559082, -30.3658543, -115.4878082, 20.5487804, -0.0394446
1.0161133, -0.1679688, -0.5776367, -31.2195129, -116.0365906, 20.4878044, -0.01561
1.0200195, -0.168457, -0.590332, -33.5975609, -117.2561035, 19.8780499, -0.0008392
1.0200195, -0.1875, -0.597168, -35.5487823, -120.1219559, 18.9634151, 0.0124208
1.0229492, -0.1962891, -0.5927734, -36.2195129, -122.0121994, 18.9024391, 0.0271916
1.027832, -0.2143555, -0.597168, -36.9512215, -124.8170776, 18.8414631, 0.0454871
1.0273438, -0.2197266, -0.6015625, -36.7073174, -125.4878082, 18.9024391, 0.033402
1.027832, -0.2250977, -0.612793, -36.1585388, -125.7926865, 19.3902435, 0.0251774
1.0253906, -0.2236328, -0.6113281, -35.5487823, -126.4024429, 19.7560978, 0.0364233
1.0234375, -0.2167969, -0.597168, -35.1829262, -128.2317047, 20.3658543, 0.0446479
1.0229492, -0.2016602, -0.5800781, -35.0609779, -129.2073212, 20.4878044, 0.0710002
1.0180664, -0.1904297, -0.5981445, -34.6951218, -130.6707306, 20, 0.0991989
0.9995117, -0.1713867, -0.6762695, -35.1219521, -131.0365906, 20.1219521, 0.1106126
0.9951172, -0.1674805, -0.7148438, -36.6463432, -132.0731812, 20.6097565, 0.1233692
0.9995117, -0.1630859, -0.7436523, -39.2073174, -134.2682953, 22.1341476, 0.1858091
1.0166016, -0.1616211, -0.7304688, -39.9390259, -135.6707306, 22.8048782, 0.2086366
1.0551758, -0.1713867, -0.6958008, -40.8536606, -136.8292694, 24.0853672, 0.1673457
1.0717773, -0.1811523, -0.6948242, -41.341465, -135.7926788, 24.1463413, 0.1381399
1.0869141, -0.1923828, -0.7167969, -41.7073174, -134.5121918, 23.8414631, 0.1426719
1.081543, -0.2133789, -0.7211914, -42.0121956, -134.8780518, 23.5975609, 0.1037308
1.0703125, -0.2285156, -0.7055664, -42.9268303, -136.0975647, 23.0487804, 0.0716716
1.0478516, -0.2490234, -0.6665039, -42.7439041, -137.2561035, 23.0487804, 0.0760357
1.034668, -0.2568359, -0.644043, -40.9146347, -138.5975647, 23.9634151, 0.073518
1.0014648, -0.2485352, -0.6367188, -39.8170738, -139.0243988, 24.0853672, 0.0720073
0.9853516, -0.2436523, -0.637207, -36.9512215, -139.3902435, 24.0243912, 0.0810712
0.9604492, -0.2280273, -0.6601562, -35.4268303, -141.5243988, 23.9024391, 0.0894636
0.9580078, -0.2255859, -0.6665039, -35, -143.5975647, 23.780489, 0.0538796
0.9677734, -0.2324219, -0.6850586, -35.7317085, -147.5609741, 22.9268303, 0.0092317
0.9755859, -0.2426758, -0.7001953, -36.0365868, -149.3292694, 22.560976, -0.0454871
0.9931641, -0.2661133, -0.7358398, -36.8902435, -151.0365906, 21.8902435, -0.090135
1, -0.2788086, -0.7480469, -36.6463432, -151.4634247, 21.7073174, -0.110277
1.0043945, -0.2763672, -0.7460938, -35.9146347, -152.3780518, 21.6463413, -0.1186694
1.0126953, -0.2617188, -0.7460938, -35.0609779, -152.5609741, 21.7682934, -0.096849
1.0117188, -0.2524414, -0.7583008, -33.2317085, -152.0121918, 22.0121956, -0.0787213
1.0102539, -0.2270508, -0.7802734, -32.5609779, -151.4634247, 22.0121956, -0.0740215
1.0039062, -0.2236328, -0.7871094, -31.8902454, -150.9146423, 21.7682934, -0.0743572
0.9975586, -0.2241211, -0.7871094, -32.3170738, -151.7682953, 21.4024391, -0.0867781
0.9941406, -0.2275391, -0.7866211, -32.8658562, -152.2561035, 21.0365868, -0.1163195
0.9785156, -0.2338867, -0.7978516, -33.4146347, -152.4390259, 21.3414631, -0.1337758
0.9707031, -0.2353516, -0.8115234, -33.2926826, -152.1951294, 21.7682934, -0.1435111
0.9511719, -0.2250977, -0.8510742, -33.2317085, -151.4634247, 22.2560978, -0.1646601
0.9462891, -0.2124023, -0.8808594, -33.7804871, -151.2195129, 22.5, -0.1864805
0.9438477, -0.215332, -0.8823242, -35.1219521, -150.9756165, 23.5365868, -0.2042725
0.9506836, -0.2158203, -0.8603516, -35.6097565, -150.6707306, 23.9634151, -0.2076295
0.9570312, -0.215332, -0.8408203, -36.2804871, -150.1829376, 24.7560978, -0.1968872
0.9643555, -0.2270508, -0.8022461, -35.9756088, -150, 25.1219521, -0.1868162
0.9702148, -0.2319336, -0.7895508, -35.3658562, -149.8170776, 25.3658543, -0.1858091
0.9658203, -0.2338867, -0.7817383, -35.3658562, -150.2439117, 24.6951218, -0.1750668
0.9501953, -0.2280273, -0.7919922, -35.4268303, -150.5487823, 24.6951218, -0.1589532
0.9213867, -0.2080078, -0.8081055, -36.5853653, -151.5243988, 23.8414631, -0.1386435
0.9091797, -0.1967773, -0.8256836, -37.3780479, -152.6219482, 23.5365868, -0.1129625
0.890625, -0.1787109, -0.8618164, -39.7560997, -155.4878082, 23.1097565, -0.0887922
0.8847656, -0.1791992, -0.8701172, -41.0975609, -157.1951294, 23.4756107, -0.0704967
0.8876953, -0.190918, -0.8608398, -43.9634171, -160.0609741, 24.3902435, -0.0471656
0.9072266, -0.21875, -0.8227539, -44.9390259, -161.646347, 24.8170738, -0.0287022
0.9155273, -0.2314453, -0.8183594, -44.7560997, -163.1097565, 25.060976, 0.0077211
0.9243164, -0.2631836, -0.8256836, -43.9024391, -163.1097565, 25, 0.0317235
0.9223633, -0.277832, -0.8398438, -42.3780479, -163.4146423, 24.5731716, 0.04448
0.9086914, -0.2998047, -0.8662109, -41.7073174, -163.8414612, 24.5121956, 0.0179599
0.8969727, -0.3037109, -0.8686523, -41.2804871, -164.5731812, 24.4512196, -0.1139696
0.8842773, -0.2817383, -0.8662109, -39.3902435, -165, 24.3292694, -0.2767834
0.8769531, -0.2695312, -0.8637695, -37.9878044, -165.2439117, 24.0853672, -0.3546654
0.862793, -0.2524414, -0.8564453, -35.9146347, -166.3414612, 23.1097565, -0.3439231
0.8540039, -0.269043, -0.8413086, -35, -167.2561035, 22.6829281, -0.2781262
0.8491211, -0.2783203, -0.840332, -33.4756088, -169.0853729, 22.3780499, -0.115816
0.8334961, -0.3032227, -0.8579102, -32.9268303, -169.6951294, 22.560976, 0.0716716
0.8222656, -0.3022461, -0.8759766, -31.4024391, -169.7561035, 22.439024, 0.2207218
0.7983398, -0.2939453, -0.90625, -30.5487804, -169.9390259, 22.5, 0.3301595
0.7900391, -0.2841797, -0.9145508, -29.0243912, -170.2439117, 22.8658543, 0.3727932
0.7875977, -0.2651367, -0.9155273, -27.9268303, -170.9146423, 22.9268303, 0.3566796
0.7919922, -0.253418, -0.9155273, -28.2317085, -171.5243988, 22.6829281, 0.3137102
0.7954102, -0.2382812, -0.9199219, -29.2682934, -172.1951294, 22.3780499, 0.237171
0.796875, -0.2333984, -0.925293, -29.5121956, -171.9512177, 22.3780499, 0.1555962
0.7944336, -0.2270508, -0.9384766, -30, -171.5853729, 22.6829281, 0.109102
0.7910156, -0.2299805, -0.9228516, -29.6341476, -171.7073212, 22.9878063, 0.0844282
0.7885742, -0.2387695, -0.9018555, -29.2682934, -172.5, 23.4756107, 0.0582437
0.7773438, -0.2504883, -0.8720703, -29.0853672, -172.3170776, 24.0243912, 0.0441444
0.7651367, -0.2529297, -0.8842773, -27.8658543, -169.8780518, 24.6951218, 0.0287022
0.7270508, -0.230957, -0.9423828, -27.5, -168.2926941, 24.3902435, 0.0162814
0.7041016, -0.2143555, -0.9672852, -27.8658543, -167.4390259, 24.0853672, 0.0172885
0.6811523, -0.1948242, -0.9707031, -29.2682934, -170.2439117, 24.0853672, 0.0199741
0.6811523, -0.1967773, -0.9404297, -30.4878063, -172.6829376, 24.3292694, 0.023331
0.6928711, -0.1948242, -0.8867188, -32.4390259, -175.3048859, 24.2073174, 0.0209812
0.6938477, -0.2011719, -0.878418, -32.7439041, -175.1219482, 23.9024391, 0.0102388
0.6816406, -0.2099609, -0.9365234, -32.2560997, -172.5, 23.3536587, -0.0196384
0.652832, -0.2275391, -1.0327148, -32.3780479, -171.3414612, 23.4756107, -0.0273594
0.6513672, -0.2441406, -1.059082, -32.1951218, -172.3170776, 25.3658543, -0.0223239
0.6630859, -0.2788086, -1.0273438, -32.4390259, -173.6585388, 26.5243912, -0.0162814
0.6860352, -0.2954102, -0.987793, -31.8902454, -175.8536682, 28.780489, -0.0109102
0.7124023, -0.3051758, -0.9165039, -30.8536587, -175.6707306, 28.9634151, -0.0125887
0.706543, -0.2988281, -0.8964844, -27.3780499, -172.5, 28.0487804, -0.005539
0.6650391, -0.2602539, -0.9047852, -24.9390259, -168.8414612, 25.3048782, 0.01561
0.6328125, -0.2382812, -0.9311523, -23.9634151, -168.0487823, 24.1463413, 0.0360876
0.5654297, -0.2045898, -0.9980469, -24.4512196, -169.0853729, 23.2317085, 0.0179599
0.546875, -0.2011719, -1.0249023, -25.6707325, -171.1585388, 23.2926826, -0.0082246
0.5478516, -0.2050781, -1.0390625, -29.0243912, -176.9512177, 24.2073174, 0.0035248
0.5766602, -0.2529297, -1.0185547, -30.7317085, -179.5731812, 25.060976, 0.0330663
0.5957031, -0.2695312, -0.9946289, -31.5853672, -182.6829376, 26.2195129, 0.0785534
0.6210938, -0.293457, -0.9443359, -30.8536587, -182.9268341, 26.2195129, 0.1075914
0.6225586, -0.2915039, -0.9291992, -27.0121956, -180.7317047, 26.0365868, 0.0839246
0.5966797, -0.2587891, -0.9741211, -24.6341476, -178.7195129, 25.3048782, 0.0602579
0.5708008, -0.2416992, -1.0253906, -22.1951218, -175.6707306, 24.6341476, 0.0287022
0.534668, -0.2211914, -1.1279297, -22.8048782, -175.9146423, 26.1585369, 0.0176242
0.5317383, -0.2094727, -1.1494141, -24.6951218, -177.6219482, 27.1341476, 0.0213169
0.5742188, -0.1982422, -1.1308594, -28.2317085, -181.5853729, 29.2682934, 0.0290379
0.6035156, -0.1943359, -1.112793, -29.5121956, -182.3170776, 29.4512196, 0.0149386
0.6435547, -0.1879883, -1.0991211, -32.1341476, -180.3048859, 28.5365868, -0.0057069
0.6523438, -0.2109375, -1.1386719, -32.5, -178.1097565, 27.9268303, -0.0149386
0.6494141, -0.2338867, -1.1508789, -33.4756088, -175.4268341, 28.7195129, -0.0223239
0.6518555, -0.2895508, -1.1088867, -33.2926826, -175.4878082, 29.6951218, -0.0182956
0.6586914, -0.3115234, -1.0629883, -32.0731697, -176.8902435, 30, -0.0364233
0.6538086, -0.3417969, -0.9829102, -28.5365868, -174.7561035, 28.2317085, -0.0533761
0.628418, -0.347168, -0.9755859, -26.4024391, -172.1341553, 26.7073174, -0.0649577
0.5463867, -0.3300781, -1.0058594, -22.8048782, -166.646347, 24.6951218, -0.082414
0.5073242, -0.3066406, -1.0244141, -21.8902435, -165.4878082, 24.0243912, -0.0679789
0.4448242, -0.2426758, -1.0244141, -21.9512196, -168.2317047, 22.3780499, -0.0379339
0.4174805, -0.1982422, -0.987793, -23.0487804, -171.2804871, 21.6463413, -0.0350805
0.4101562, -0.1933594, -0.9746094, -25.4268303, -177.1341553, 20.6707325, -0.040116
0.4145508, -0.2197266, -0.9956055, -26.3414631, -179.3902435, 20.8536587, -0.0599222
0.4257812, -0.2373047, -1.0229492, -27.6829281, -181.646347, 23.0487804, -0.0941634
0.4545898, -0.2705078, -1.0742188, -27.3780499, -181.8902435, 24.3292694, -0.1279011
0.4848633, -0.284668, -1.0756836, -25.4268303, -182.6219482, 26.4024391, -0.1398184
0.5341797, -0.3173828, -1.0302734, -21.8292694, -183.5365906, 27.7439022, -0.1354543
0.5507812, -0.3237305, -0.9990234, -19.8780499, -182.86586, 27.6829281, -0.1156481
0.543457, -0.2958984, -1.0019531, -15.9756098, -176.5853729, 26.6463413, -0.0908064
0.5209961, -0.265625, -1.0263672, -14.5121956, -172.6219482, 26.1585369, -0.0505226
0.4604492, -0.1816406, -1.0888672, -13.6585369, -168.5975647, 25.8536587, -0.01561
0.4257812, -0.1308594, -1.09375, -14.8780489, -169.2682953, 25.6707325, 0.0129244
0.4233398, -0.121582, -1.0854492, -20.1829281, -173.4756165, 25.3658543, 0.0198062
0.4272461, -0.137207, -1.0898438, -23.4146347, -175.1829376, 25.3658543, 0.0068818
0.425293, -0.1552734, -1.1098633, -28.2926826, -175, 26.4024391, 0.0005035
0.4370117, -0.1899414, -1.1577148, -29.2682934, -173.5975647, 27.8658543, -0.0041962
0.4453125, -0.1982422, -1.1669922, -29.2073174, -170.6707306, 30.5487804, -0.0137636
0.4882812, -0.21875, -1.1411133, -26.6463413, -168.7804871, 32.8658562, -0.0263523
0.5087891, -0.2358398, -1.109375, -25.4878063, -167.3780518, 33.4756088, -0.0412909
0.5380859, -0.2890625, -1.0732422, -23.1097565, -163.2926941, 34.4512215, -0.0357519
0.5390625, -0.3173828, -1.0737305, -22.0731716, -159.8780518, 34.3902435, -0.0555581
0.5029297, -0.3144531, -1.1137695, -20.4268303, -151.4024353, 33.7804871, -0.0740215
0.4433594, -0.25, -1.1303711, -19.6951218, -147.8048859, 32.9878044, -0.1008774
0.4116211, -0.2114258, -1.1171875, -19.6341476, -145.6707306, 29.8780499, -0.1206836
0.3745117, -0.1567383, -1.0327148, -20.4878044, -147.0121918, 28.4146347, -0.1572747
0.3544922, -0.1469727, -1.0053711, -24.3902435, -150.3048859, 26.5853672, -0.1829557
0.3203125, -0.1645508, -1.0009766, -26.7682934, -151.1585388, 25.9756107, -0.2623484
0.3056641, -0.1806641, -1.0175781, -30.3048782, -151.2804871, 26.1585369, -0.3133745
0.2910156, -0.2099609, -1.0253906, -32.0731697, -152.4390259, 27.0121956, -0.303975
0.2871094, -0.2226562, -0.9995117, -31.8292694, -154.0853729, 27.0731716, -0.2445563
0.2856445, -0.2412109, -0.9248047, -30.6707325, -157.3780518, 25.6097565, -0.0978561
0.2792969, -0.2607422, -0.9086914, -29.3292694, -157.4390259, 25.1219521, 0.0527047
0.2529297, -0.2949219, -0.9599609, -27.0121956, -154.5121918, 26.0365868, 0.1596246
0.237793, -0.2861328, -1.0507812, -25.9146347, -153.3536682, 27.2560978, 0.2307927
0.2416992, -0.2700195, -1.0644531, -24.5731716, -154.5731812, 27.6829281, 0.2353246
0.2749023, -0.2299805, -1.0175781, -24.3902435, -156.8902435, 27.1341476, 0.2049439
0.2871094, -0.2119141, -0.9902344, -23.8414631, -161.1585388, 24.8170738, 0.1616388
0.2905273, -0.1831055, -1.0053711, -23.8414631, -160.9756165, 23.9024391, 0.0663005
0.2807617, -0.1655273, -1.0439453, -24.8170738, -156.4024353, 24.9390259, -0.0095674
0.2646484, -0.1181641, -1.0874023, -25.7317085, -153.3536682, 27.0121956, -0.0438087
0.2607422, -0.1098633, -1.0693359, -26.2195129, -154.2073212, 27.560976, -0.0676432
0.269043, -0.1357422, -0.9892578, -27.1341476, -158.2317047, 27.5, -0.0931563
0.2705078, -0.1645508, -0.9550781, -27.0121956, -159.5731812, 27.9268303, -0.1030594
0.2490234, -0.2358398, -0.9589844, -25.6097565, -157.5609741, 29.3902454, -0.093492
0.2089844, -0.2412109, -1.0576172, -24.2682934, -155, 30.8536587, -0.0223239
0.1884766, -0.2070312, -1.1118164, -21.6463413, -149.6341553, 32.3170738, 0.0616007
0.1708984, -0.1352539, -1.1616211, -20.8536587, -148.2926788, 32.0121956, 0.0817426
0.1811523, -0.105957, -1.1464844, -23.2317085, -151.0975647, 31.1585369, 0.0837568
0.2270508, -0.0898438, -1.0610352, -25.6707325, -153.9634247, 30.7926846, 0.0797284
0.2504883, -0.0942383, -1.019043, -31.7682934, -157.4390259, 30.4878063, 0.0562295
0.2685547, -0.1186523, -0.9990234, -35.1219521, -154.4512177, 29.5731716, 0.0193027
0.2524414, -0.1274414, -1.0195312, -35.9146347, -151.8292694, 29.0853672, -0.0522011
0.2001953, -0.1411133, -1.0576172, -36.1585388, -148.1707306, 29.2073174, -0.1384756
0.1757812, -0.1430664, -1.0571289, -36.2195129, -147.9268341, 29.3292694, -0.1623102
0.1455078, -0.1557617, -1.0073242, -35.6707344, -148.9634247, 29.7560978, -0.1562676
0.1381836, -0.1933594, -0.9477539, -35.3048782, -149.6341553, 29.4512196, -0.160296
0.1362305, -0.2182617, -0.9282227, -33.7804871, -149.7561035, 29.0243912, -0.1324331
0.1137695, -0.25, -0.9213867, -33.3536606, -149.4512177, 28.2926826, -0.0552224
0.0917969, -0.2426758, -0.9321289, -32.2560997, -147.0121918, 26.3414631, 0.023331
0.0371094, -0.1860352, -0.9487305, -31.341465, -145.7317047, 24.7560978, 0.0676432
0.0126953, -0.1494141, -0.9423828, -30.8536587, -145.5487823, 21.3414631, 0.1044022
-0.0161133, -0.1098633, -0.9331055, -31.5243912, -149.4512177, 18.9634151, 0.1300832
-0.0200195, -0.1186523, -0.9462891, -32.8048782, -151.8902435, 18.7195129, 0.0877852
-0.0097656, -0.1708984, -1.0073242, -34.2073174, -155.1829376, 22.0731716, 0.0426337
0.0180664, -0.2006836, -1.0234375, -34.5121956, -156.5243988, 24.2682934, 0.0226596
0.0893555, -0.2207031, -1.0004883, -32.9878044, -157.3170776, 25.9756107, 0.0172885
0.1396484, -0.190918, -0.9506836, -31.341465, -156.2195129, 24.9390259, 0.0164492
0.1367188, -0.1728516, -0.9389648, -27.8048782, -151.0975647, 20.8536587, -0.0102388
0.0942383, -0.1479492, -0.9609375, -26.8292694, -147.8048859, 20, -0.0464942
0.0712891, -0.1391602, -0.9775391, -27.2560978, -144.6341553, 20.2439022, -0.0728466
0.0375977, -0.1040039, -1.0083008, -28.4756107, -144.4512177, 20.6097565, -0.0780499
0.0185547, -0.0888672, -1.03125, -31.0975609, -145.4268341, 20.8536587, -0.0874495
-0.0087891, -0.0527344, -1.0820312, -34.4512215, -146.2195129, 21.1585369, -0.0822461
-0.0131836, -0.0424805, -1.0917969, -36.7073174, -146.5243988, 22.2560978, -0.0263523
0.0107422, -0.0297852, -1.0844727, -41.8292694, -147.9878082, 24.0853672, 0.0226596
0.0385742, -0.0424805, -1.074707, -44.3292694, -148.9024353, 24.5731716, 0.0045319
0.0898438, -0.097168, -1.0732422, -47.8658562, -149.5121918, 26.280489, -0.0720073
0.1245117, -0.1689453, -1.0800781, -48.9024391, -148.7804871, 27.1951218, -0.1646601
0.1337891, -0.1923828, -1.0712891, -48.841465, -145.6097565, 29.0243912, -0.2418708
