Application:, Trigno Discover (1.6.5)
Date/Time:, 05/02/2025 10:05:06
Collection Length (seconds):, 32.319
wrist (81457), , , , , , bicep (81139)
sensor mode: 609, , , , , , sensor mode: 40
ACC X (G), ACC Y (G), ACC Z (G), GYRO X (deg/s), GYRO Y (deg/s), GYRO Z (deg/s), EMG 1 (mV)
370.3704 Hz, 370.3704 Hz, 370.3704 Hz, 370.3704 Hz, 370.3704 Hz, 370.3704 Hz, 2148.1481 Hz
0.9506836, -0.2607422, -0.2236328, -19.4512196, -11.341464, 0.3658537, -0.0028534
0.956543, -0.2666016, -0.2202148, -18.5975609, -11.1585369, 0.1829268, -0.01561
0.9541016, -0.265625, -0.2202148, -17.7439022, -10.9756098, -0.1219512, -0.0223239
0.9560547, -0.2509766, -0.2197266, -16.6463413, -10.6097565, 0, -0.0337377
0.9526367, -0.2480469, -0.2192383, -16.4024391, -10.5487804, 0.2439024, -0.047837
0.9580078, -0.2363281, -0.2202148, -16.5853653, -10.7317076, 0, -0.0555581
0.9604492, -0.2324219, -0.2197266, -16.5853653, -10.7317076, -0.2439024, -0.0558938
0.9638672, -0.2246094, -0.2270508, -17.3170738, -11.0365858, -0.3658537, -0.0589151
0.9599609, -0.230957, -0.2387695, -17.8048782, -10.7926836, -0.7317073, -0.0834211
0.9506836, -0.2407227, -0.2607422, -18.1097565, -10.4268293, -0.0609756, -0.1062486
0.9521484, -0.2504883, -0.2670898, -18.2926826, -9.8170738, 0, -0.1143053
0.9526367, -0.2524414, -0.2592773, -17.1341476, -9.3292685, -0.3658537, -0.1055772
0.953125, -0.2514648, -0.2319336, -16.0365849, -8.719512, -0.8536586, -0.0874495
0.953125, -0.2456055, -0.2226562, -14.8780489, -7.4390244, -1.2804878, -0.0661326
0.9379883, -0.2294922, -0.2192383, -14.4512196, -6.2195125, -1.402439, -0.0372625
0.9360352, -0.2197266, -0.2299805, -14.0243902, -5.7926831, -1.402439, -0.018967
0.9291992, -0.1962891, -0.2509766, -13.7195129, -5.4268293, -1.2804878, 0.0011749
0.9321289, -0.1928711, -0.262207, -14.0853662, -5.7926831, -1.2195122, -0.0283665
0.9472656, -0.1972656, -0.2851562, -14.9390249, -5.9146342, -1.3414634, -0.1038987
0.9570312, -0.2016602, -0.2885742, -15.2439032, -5.3658538, -1.1585366, -0.1522393
0.9814453, -0.2182617, -0.2768555, -15.4878054, -3.9024391, -1.402439, -0.1539178
0.9951172, -0.2285156, -0.262207, -15.1829271, -2.0731707, -1.5853659, -0.1445182
0.9946289, -0.2270508, -0.2587891, -14.7560978, -0.8536586, -1.8292683, -0.1132982
0.9750977, -0.2231445, -0.2563477, -14.0853662, 0.4268293, -1.5853659, -0.0683146
0.9667969, -0.2099609, -0.2587891, -13.780488, 1.1585366, -1.097561, -0.0052033
0.940918, -0.1875, -0.2646484, -13.841464, 1.3414634, -0.6707317, 0.0488441
0.9331055, -0.1757812, -0.2670898, -14.6341467, 0.9756098, 0, 0.0897993
0.9301758, -0.1767578, -0.2583008, -15.6097565, 1.2804878, 0.4878049, 0.1317617
0.9311523, -0.1816406, -0.2519531, -16.4634151, 1.0365853, 0.8536586, 0.163653
0.9350586, -0.1914062, -0.246582, -17.1341476, 1.2804878, 0.5487805, 0.1891661
0.9316406, -0.1987305, -0.2451172, -17.1951218, 1.5853659, 0.4878049, 0.1938659
0.9243164, -0.1958008, -0.2504883, -17.3780499, 2.3780489, 0.7926829, 0.1676814
0.9296875, -0.1879883, -0.2563477, -17.560976, 2.9878049, 1.7073171, 0.1337758
0.9331055, -0.184082, -0.2626953, -18.6585369, 3.2926829, 2.3170731, 0.0965133
0.9414062, -0.1850586, -0.2724609, -20.1219521, 3.5975611, 2.9268293, 0.0649577
0.949707, -0.1889648, -0.2739258, -21.8292694, 3.2926829, 2.9878049, 0.0404517
0.9633789, -0.1938477, -0.2744141, -23.0487804, 3.2926829, 2.7439024, 0.0253452
0.9731445, -0.1943359, -0.2685547, -24.0853672, 2.9268293, 3.2317073, 0.0105745
0.9912109, -0.1953125, -0.2485352, -24.4512196, 3.1707318, 3.7804878, -0.0031891
1.0014648, -0.2026367, -0.2382812, -24.8780499, 3.7804878, 4.0853658, -0.0036927
1.0102539, -0.2158203, -0.2236328, -25.4268303, 4.4512196, 4.1463413, -0.0025177
1.0004883, -0.2270508, -0.2109375, -26.4024391, 4.8170733, 4.3292685, -0.0181277
0.9931641, -0.2314453, -0.2070312, -27.0121956, 4.9390244, 4.1463413, -0.026688
0.9780273, -0.2368164, -0.1811523, -27.0121956, 4.2073174, 4.6341462, -0.0270237
0.972168, -0.2382812, -0.1635742, -26.3414631, 3.2926829, 4.5731707, -0.0236667
0.9628906, -0.2387695, -0.1362305, -25.5487804, 1.9512196, 4.3292685, -0.021149
0.9619141, -0.2348633, -0.1289062, -24.7560978, 0.8536586, 3.7804878, -0.0216526
0.9570312, -0.2392578, -0.1362305, -24.8170738, -0.4268293, 3.1707318, -0.0203098
0.9511719, -0.246582, -0.1445312, -25.7317085, -1.7073171, 2.8658538, -0.0236667
0.9448242, -0.2675781, -0.1645508, -26.4024391, -3.1707318, 2.6219513, -0.0297093
0.9433594, -0.2773438, -0.1689453, -26.8902454, -4.7560978, 2.4390244, -0.0364233
0.953125, -0.2910156, -0.1674805, -25.6097565, -6.7073174, 1.8292683, -0.0458228
0.9726562, -0.2817383, -0.168457, -23.780489, -7.6829271, 1.5243902, -0.0622721
0.9770508, -0.2802734, -0.1728516, -22.3170738, -8.4756098, 0.6097561, -0.0753643
0.9882812, -0.2641602, -0.1889648, -21.7073174, -8.6585369, -0.1829268, -0.0770428
0.9921875, -0.2592773, -0.1904297, -21.5853672, -8.9634151, -0.6707317, -0.070161
0.996582, -0.253418, -0.1904297, -21.8292694, -9.6341467, -0.9756098, -0.0621042
0.9907227, -0.2504883, -0.1982422, -22.1341476, -10.2439022, -0.7317073, -0.0562295
0.9853516, -0.2426758, -0.2163086, -22.1341476, -10.8536587, -0.7926829, -0.054551
0.9804688, -0.2426758, -0.2236328, -22.3170738, -11.0365858, -0.6097561, -0.047837
0.9750977, -0.2260742, -0.237793, -22.0731716, -11.280488, -0.3048781, -0.0364233
0.9755859, -0.2163086, -0.2421875, -22.0121956, -11.4634151, 0.3048781, -0.0243381
0.9829102, -0.2060547, -0.2431641, -22.5, -11.280488, 0.2439024, -0.0391089
0.9863281, -0.2080078, -0.2504883, -22.9268303, -10.9756098, 0.1829268, -0.0699931
0.9902344, -0.2060547, -0.2587891, -24.0853672, -10.7926836, -0.1219512, -0.0787213
0.9916992, -0.2080078, -0.2607422, -25.3048782, -10.1829271, 0, -0.0814069
0.9921875, -0.2104492, -0.2553711, -26.280489, -10.060976, 0.4268293, -0.0659648
0.9941406, -0.2177734, -0.2460938, -26.4634151, -9.8780489, 1.097561, -0.0525368
0.9980469, -0.215332, -0.2407227, -25.9146347, -9.5121956, 1.5243902, -0.0475013
0.9936523, -0.2138672, -0.2387695, -25.1219521, -9.0243902, 1.5243902, -0.043473
0.9960938, -0.2089844, -0.2426758, -24.9390259, -8.4756098, 1.097561, -0.0310521
0.9858398, -0.215332, -0.2460938, -24.6951218, -7.6829271, 0.5487805, -0.033402
0.9794922, -0.2207031, -0.2451172, -24.3902435, -7.4390244, 0.6707317, -0.0458228
0.9814453, -0.2333984, -0.2294922, -24.5121956, -7.1341467, 0.8536586, -0.0840925
0.9731445, -0.2290039, -0.2070312, -24.5731716, -6.6463418, 0.9756098, -0.1747311
0.9682617, -0.230957, -0.2021484, -23.9024391, -6.6463418, 0.8536586, -0.2704051
0.9609375, -0.2290039, -0.1972656, -23.3536587, -7.1341467, 0.4878049, -0.3345235
0.956543, -0.2319336, -0.1977539, -22.8048782, -7.6829271, -0.0609756, -0.3382162
0.9506836, -0.2368164, -0.2089844, -22.7439022, -8.3536587, -0.3048781, -0.2220645
0.9458008, -0.2387695, -0.2163086, -22.3170738, -9.2073174, -0.1219512, 0.0038605
0.9511719, -0.2382812, -0.2216797, -21.6463413, -9.3902445, -0.4268293, 0.1985657
0.9570312, -0.2338867, -0.2197266, -20.6707325, -9.2073174, -0.6097561, 0.3100175
0.96875, -0.2348633, -0.2163086, -19.3902435, -9.0243902, -1.2195122, 0.3210956
0.9731445, -0.2392578, -0.2177734, -18.2926826, -8.9634151, -1.8902439, 0.2865187
0.9697266, -0.2426758, -0.2324219, -18.2317085, -8.719512, -2.1341465, 0.2319677
0.9619141, -0.2436523, -0.2353516, -18.1097565, -8.6585369, -1.8292683, 0.1623102
0.9594727, -0.2382812, -0.2348633, -18.1707325, -8.4146347, -2.0121951, 0.1139696
0.9560547, -0.2397461, -0.2285156, -17.8658543, -8.841464, -2.2560976, 0.0971847
0.9589844, -0.2368164, -0.2285156, -16.7073174, -8.841464, -2.0731707, 0.0884565
0.9604492, -0.2368164, -0.2353516, -16.1585369, -8.780488, -2.3780489, 0.0716716
0.9638672, -0.2314453, -0.2348633, -15.4268293, -8.841464, -2.3780489, 0.0458228
0.9697266, -0.2231445, -0.2333984, -15.1219511, -8.5365858, -2.3170731, 0.0323949
0.9692383, -0.2192383, -0.2299805, -14.8170738, -8.3536587, -2.5609756, 0.0213169
0.9760742, -0.2094727, -0.2246094, -14.6341467, -8.4146347, -2.195122, 0.0078889
0.9746094, -0.2041016, -0.222168, -15.1829271, -8.2317076, -2.5609756, 0.0005035
0.9677734, -0.2084961, -0.2143555, -15.7317076, -8.4146347, -2.6219513, -0.0085603
0.9492188, -0.2163086, -0.2158203, -16.0975609, -8.4146347, -2.4390244, -0.0135958
0.9418945, -0.2163086, -0.2172852, -16.4634151, -8.3536587, -2.195122, -0.0196384
0.9331055, -0.2138672, -0.2207031, -16.5853653, -8.4756098, -2.0121951, -0.0229953
0.9311523, -0.206543, -0.2241211, -16.3414631, -9.0243902, -1.7073171, -0.0386053
0.9350586, -0.2026367, -0.2236328, -15.6707325, -9.5731707, -1.6463414, -0.0515297
0.9399414, -0.203125, -0.2260742, -15.6707325, -9.8170738, -1.5243902, -0.0599222
0.9458008, -0.2094727, -0.2255859, -16.280489, -9.6951218, -1.8292683, -0.0676432
0.9482422, -0.2099609, -0.2197266, -16.9512196, -9.5731707, -2.0731707, -0.0636149
0.9521484, -0.2158203, -0.2133789, -17.1951218, -9.6341467, -2.0121951, -0.0552224
0.953125, -0.2158203, -0.2148438, -17.1341476, -9.8780489, -2.0731707, -0.0552224
0.9526367, -0.2226562, -0.2177734, -16.5853653, -10.6097565, -2.195122, -0.0538796
0.9521484, -0.2294922, -0.2211914, -15.5487804, -10.4878054, -2.1341465, -0.054551
0.9467773, -0.2226562, -0.2207031, -15.1829271, -10.060976, -1.5243902, -0.0703288
0.9379883, -0.2104492, -0.2241211, -15.3048782, -9.5731707, -1.097561, -0.0985275
0.934082, -0.2089844, -0.222168, -15.1219511, -9.0243902, -0.7926829, -0.1119554
0.9296875, -0.206543, -0.2172852, -15.4268293, -8.9024391, -1.0365853, -0.1062486
0.9248047, -0.2070312, -0.21875, -16.1585369, -8.9634151, -1.097561, -0.093492
0.9204102, -0.2177734, -0.2143555, -16.9512196, -9.2682924, -1.5853659, -0.0716716
0.918457, -0.2226562, -0.2119141, -17.1341476, -9.0243902, -1.3414634, -0.0538796
0.9160156, -0.2250977, -0.2050781, -16.7073174, -9.2073174, -1.1585366, -0.043473
0.9208984, -0.2270508, -0.2060547, -16.280489, -9.3902445, -1.402439, -0.0273594
0.9291992, -0.2211914, -0.2148438, -15.060976, -9.7560978, -1.5853659, -0.0082246
0.9414062, -0.2163086, -0.2299805, -15.1219511, -9.5731707, -1.5243902, 0.0092317
0.9487305, -0.2114258, -0.237793, -14.8780489, -9.6341467, -1.402439, 0.0208133
0.9633789, -0.2128906, -0.2504883, -15.4268293, -9.2682924, -1.4634147, 0.0307164
0.9677734, -0.2148438, -0.2514648, -16.0975609, -8.5975609, -1.402439, 0.0381018
0.9775391, -0.2119141, -0.2451172, -16.0365849, -7.6829271, -1.4634147, 0.0428016
0.9755859, -0.2124023, -0.2368164, -15.9756098, -7.2560978, -1.2195122, 0.0370947
0.9736328, -0.2138672, -0.2260742, -15.7317076, -6.5853658, -0.7926829, 0.0236667
0.9697266, -0.2075195, -0.2246094, -15.4268293, -6.280488, -0.6707317, 0.0119173
0.9643555, -0.2045898, -0.2192383, -15.3658543, -6.2195125, -0.2439024, 0.0036927
0.9624023, -0.2011719, -0.2265625, -15.7317076, -5.9756098, -0.1219512, 0.0043641
0.9589844, -0.2001953, -0.2250977, -16.4634151, -6.1585369, -0.1219512, -0.0075532
0.9648438, -0.2075195, -0.2163086, -16.9512196, -6.4634147, 0.1219512, -0.026688
0.9702148, -0.2114258, -0.2070312, -17.439024, -6.5853658, -0.1219512, -0.0345769
0.9707031, -0.2265625, -0.199707, -17.439024, -6.5853658, -0.3048781, -0.0379339
0.9672852, -0.2299805, -0.2021484, -17.2560978, -6.4024391, -0.1219512, -0.0370947
0.9599609, -0.2353516, -0.2148438, -17.0731716, -6.4634147, -0.3658537, -0.0354162
0.9599609, -0.2338867, -0.2211914, -16.7073174, -6.7073174, -0.3048781, -0.0357519
0.9643555, -0.2348633, -0.2294922, -15.9756098, -6.890244, 0.1219512, -0.0370947
0.96875, -0.2275391, -0.2294922, -15.1829271, -6.9512196, 0.4878049, -0.0471656
0.980957, -0.2192383, -0.2265625, -14.3902445, -6.280488, 0.9146342, -0.0552224
0.984375, -0.2143555, -0.2250977, -14.2073174, -5, 0.4268293, -0.0636149
0.9848633, -0.2021484, -0.2236328, -14.8780489, -4.0243902, 0.1219512, -0.0649577
0.9755859, -0.1928711, -0.2182617, -15.7317076, -3.2926829, 0.1219512, -0.0619364
0.9633789, -0.1889648, -0.2148438, -16.8902435, -3.1097562, 0.1219512, -0.054551
0.9350586, -0.1782227, -0.2158203, -17.7439022, -3.3536587, 0.5487805, -0.0522011
0.9321289, -0.1699219, -0.2177734, -18.4146347, -4.0853658, 0.9756098, -0.054551
0.9296875, -0.1689453, -0.2192383, -19.4512196, -4.3292685, 1.3414634, -0.0542153
0.9370117, -0.175293, -0.2226562, -20.3658543, -4.3292685, 1.097561, -0.0599222
0.9379883, -0.1875, -0.2124023, -21.8292694, -4.4512196, 0.7926829, -0.0569009
0.9433594, -0.2016602, -0.2021484, -22.560976, -4.6341462, 0.3048781, -0.0518654
0.9594727, -0.2143555, -0.175293, -22.3170738, -4.7560978, 0, -0.0397803
0.9643555, -0.222168, -0.1665039, -21.6463413, -4.7560978, -0.1219512, -0.0327306
0.9628906, -0.2294922, -0.1757812, -21.0365868, -4.8780489, -0.4878049, -0.030045
0.9516602, -0.2373047, -0.1796875, -20.8536587, -5.2439027, -0.3048781, -0.0337377
0.9467773, -0.2436523, -0.1801758, -20.7317085, -6.2195125, -0.1829268, -0.0283665
0.9414062, -0.2451172, -0.1767578, -20.3048782, -7.1341467, -0.1219512, -0.0251774
0.9404297, -0.2456055, -0.175293, -18.9634151, -7.8048782, -0.1829268, -0.04448
0.9433594, -0.2358398, -0.1767578, -17.3780499, -8.2317076, -0.4878049, -0.0753643
0.9404297, -0.2314453, -0.1875, -16.8292694, -8.1097565, -0.6097561, -0.0894636
0.9448242, -0.2172852, -0.2041016, -16.7073174, -8.2317076, -0.7926829, -0.0911421
0.9492188, -0.2138672, -0.2104492, -17.0731716, -8.9634151, -0.9146342, -0.0814069
0.9594727, -0.2094727, -0.206543, -17.6219521, -9.8780489, -1.0365853, -0.0622721
0.9658203, -0.2124023, -0.2050781, -17.5, -10.1829271, -0.8536586, -0.0357519
0.9707031, -0.2089844, -0.1977539, -17.560976, -10.1219511, -1.097561, -0.0149386
0.9707031, -0.2172852, -0.2050781, -17.7439022, -10.3658543, -1.4634147, 0.0065461
0.9628906, -0.215332, -0.2128906, -17.9268303, -10.4268293, -1.3414634, 0.0193027
0.9501953, -0.2075195, -0.2182617, -18.1097565, -10.3658543, -0.9756098, 0.0273594
0.9462891, -0.2050781, -0.2246094, -18.2926826, -10.6707315, -0.4878049, 0.0407874
0.9418945, -0.1918945, -0.2294922, -18.4146347, -10.4268293, 0.1219512, 0.0464942
0.9458008, -0.1855469, -0.2260742, -18.5975609, -10.3048782, 0.6707317, 0.0347448
0.9570312, -0.1801758, -0.2260742, -18.9634151, -10.060976, 0.6097561, 0.0280308
0.9609375, -0.1811523, -0.222168, -20.1219521, -9.5121956, 0.0609756, 0.0236667
0.956543, -0.1757812, -0.2275391, -21.8292694, -9.1463413, 0.3658537, 0.0072175
0.9570312, -0.1708984, -0.2265625, -23.2317085, -9.1463413, 0.4878049, -0.0085603
0.9521484, -0.1611328, -0.2236328, -24.3292694, -8.841464, 1.3414634, -0.0204776
0.9453125, -0.1411133, -0.2338867, -25.4878063, -7.9268293, 2.195122, -0.0246738
0.9423828, -0.137207, -0.2431641, -26.7073174, -7.2560978, 2.9878049, -0.023331
0.9506836, -0.1435547, -0.2602539, -28.2317085, -7.1341467, 3.1097562, -0.0256809
0.953125, -0.15625, -0.269043, -29.8170738, -6.6463418, 3.1707318, -0.0491798
0.9526367, -0.1826172, -0.2631836, -31.0975609, -6.1585369, 3.4756098, -0.0669718
0.953125, -0.1845703, -0.2519531, -31.7073174, -4.6951222, 4.1463413, -0.0793927
0.9414062, -0.1723633, -0.2255859, -31.6463413, -2.9268293, 4.4512196, -0.0814069
0.9423828, -0.1733398, -0.2109375, -31.8292694, -1.7073171, 4.7560978, -0.0800641
0.9375, -0.190918, -0.1977539, -33.2317085, -0.9146342, 4.2073174, -0.0780499
0.9360352, -0.1943359, -0.1918945, -34.5121956, -1.2195122, 3.8414636, -0.0750286
0.9267578, -0.2060547, -0.1977539, -35.5487823, -1.9512196, 4.1463413, -0.0686503
0.9301758, -0.2084961, -0.2026367, -35.7317085, -2.804878, 4.2073174, -0.0508583
0.9311523, -0.1972656, -0.2070312, -35.3658562, -3.6585367, 4.390244, -0.0203098
0.9428711, -0.1855469, -0.2055664, -34.7560997, -3.7804878, 4.5121951, 0.026688
0.9506836, -0.1845703, -0.2036133, -34.0853653, -3.7804878, 4.8780489, 0.0696574
0.9663086, -0.1967773, -0.1982422, -34.3902435, -3.7195122, 5.0609756, 0.0918135
0.9697266, -0.2114258, -0.1948242, -35.0609779, -3.1097562, 4.5731707, 0.0897993
0.9589844, -0.2265625, -0.199707, -35.2439041, -2.6829269, 4.390244, 0.0743572
0.9511719, -0.2265625, -0.2075195, -35.1829262, -2.7439024, 4.6341462, 0.0527047
0.9462891, -0.2285156, -0.2231445, -34.6341476, -3.0487804, 5.4878049, 0.0224918
0.9541016, -0.2338867, -0.2294922, -34.0243912, -3.7195122, 5.7317076, -0.0031891
0.9702148, -0.2451172, -0.2348633, -33.0487823, -4.0853658, 5.670732, -0.0162814
0.9853516, -0.2402344, -0.2387695, -31.7682934, -3.5365853, 5.3048782, -0.0231632
0.9912109, -0.2382812, -0.237793, -30.7926846, -2.7439024, 5, -0.0283665
1.0009766, -0.2441406, -0.2456055, -30.060976, -1.6463414, 4.6341462, -0.0364233
1.0053711, -0.2387695, -0.2436523, -29.8170738, -1.097561, 5, -0.0424659
1.0019531, -0.2329102, -0.2211914, -29.2073174, -0.7926829, 5.2439027, -0.0381018
1.0004883, -0.2299805, -0.2114258, -29.0243912, -0.3658537, 5.4268293, -0.0421302
0.9921875, -0.2172852, -0.1962891, -28.2317085, -0.2439024, 5.3658538, -0.0421302
0.9819336, -0.2163086, -0.1914062, -28.1097565, -0.5487805, 5.1219511, -0.0451514
0.9624023, -0.2329102, -0.1953125, -29.0243912, -1.097561, 5.1829271, -0.0370947
0.9545898, -0.2480469, -0.2045898, -29.6341476, -1.8292683, 4.9390244, -0.0337377
0.9521484, -0.2553711, -0.2124023, -29.6951218, -2.5, 5.1829271, -0.0394446
0.9550781, -0.2631836, -0.2231445, -28.841465, -2.3780489, 4.8170733, -0.0360876
0.9594727, -0.2539062, -0.2270508, -27.560976, -2.7439024, 4.6951222, -0.0339055
0.9741211, -0.2402344, -0.2202148, -26.1585369, -2.0121951, 3.9024391, -0.0310521
0.980957, -0.2270508, -0.2163086, -25.060976, -1.3414634, 3.2926829, -0.0263523
0.9760742, -0.2133789, -0.2070312, -24.8170738, -0.7926829, 2.6829269, -0.0203098
0.9765625, -0.2114258, -0.2060547, -24.8780499, -0.4268293, 2.5, -0.0135958
0.9648438, -0.2207031, -0.2021484, -25.4878063, -0.6707317, 2.6219513, -0.0075532
0.9619141, -0.2304688, -0.2045898, -26.0365868, -1.097561, 2.8658538, -0.0015106
0.9580078, -0.2602539, -0.2128906, -25.7926826, -1.5853659, 3.4146342, 0.0072175
0.9628906, -0.2695312, -0.2265625, -25.2439022, -1.8902439, 2.9268293, 0.0105745
0.9638672, -0.2670898, -0.2290039, -24.0243912, -1.5853659, 2.0731707, 0.0097353
0.9697266, -0.2382812, -0.2353516, -22.7439022, -0.7926829, 1.8292683, 0.0072175
0.9775391, -0.2275391, -0.2363281, -21.4634151, -0.3048781, 0.9146342, 0.0001678
0.9755859, -0.2099609, -0.2285156, -20.5487804, 0.1219512, 0.1219512, -0.005539
0.9785156, -0.2055664, -0.2260742, -20.9756107, 0.6097561, -0.2439024, -0.0102388
0.9711914, -0.2207031, -0.2285156, -21.280489, 0.9146342, 0.2439024, -0.0166171
0.9682617, -0.2333984, -0.234375, -21.2195129, 1.097561, 0.8536586, -0.0283665
0.9541016, -0.2485352, -0.234375, -21.5243912, 1.5243902, 1.3414634, -0.0438087
0.949707, -0.2524414, -0.2255859, -21.0365868, 1.7682927, 1.097561, -0.0877852
0.9516602, -0.2480469, -0.2133789, -19.2682934, 2.1341465, 0.4878049, -0.1183337
0.9541016, -0.2314453, -0.2041016, -17.3170738, 2.195122, -0.6097561, -0.1273976
0.9584961, -0.2260742, -0.2070312, -16.5243912, 1.8902439, -0.9756098, -0.1171588
0.9677734, -0.2211914, -0.21875, -16.3414631, 1.7682927, -1.097561, -0.1075914
0.9716797, -0.2255859, -0.2299805, -16.280489, 1.8292683, -0.9756098, -0.0904707
0.9790039, -0.2333984, -0.2392578, -16.3414631, 1.7073171, -1.097561, -0.0693217
0.9838867, -0.237793, -0.2348633, -15.9146347, 1.9512196, -1.097561, -0.0475013
0.9892578, -0.2387695, -0.2275391, -15, 2.3170731, -0.9146342, -0.0276951
0.9863281, -0.2338867, -0.2207031, -13.841464, 2.804878, -1.1585366, -0.0072175
0.9814453, -0.2231445, -0.2109375, -13.2926836, 3.2926829, -1.3414634, 0.0166171
0.9697266, -0.2148438, -0.2070312, -12.6219511, 2.7439024, -2.0121951, 0.0419623
0.9516602, -0.1728516, -0.1918945, -12.3780489, 1.7682927, -2.8658538, 0.0555581
0.9345703, -0.1796875, -0.1879883, -12.8658543, 0.5487805, -2.2560976, 0.0673075
0.9379883, -0.2021484, -0.1987305, -14.3292685, -0.3658537, -1.2195122, 0.0609293
0.9477539, -0.2407227, -0.2124023, -15.4878054, -0.9756098, -0.7926829, 0.0354162
0.9526367, -0.2490234, -0.2172852, -15.6707325, -1.3414634, -1.2804878, 0.0043641
0.9614258, -0.2514648, -0.2236328, -13.9634151, -1.2195122, -2.0731707, -0.0166171
0.9619141, -0.2480469, -0.2275391, -12.0121956, -0.9146342, -2.5609756, -0.026688
0.9741211, -0.2285156, -0.2314453, -10.6707315, -0.9146342, -2.9878049, -0.0323949
0.9794922, -0.2172852, -0.2319336, -10.3048782, -0.7317073, -3.1707318, -0.042298
0.9863281, -0.2109375, -0.2255859, -10.4878054, -0.4878049, -3.5975611, -0.0317235
0.9819336, -0.2006836, -0.2250977, -11.6463413, 0.1219512, -2.9878049, -0.0152743
0.9697266, -0.190918, -0.2109375, -12.6219511, 0.7926829, -2.7439024, -0.002182
0.965332, -0.1777344, -0.1987305, -12.6219511, 0.3658537, -2.1341465, 0.0142672
0.9609375, -0.1723633, -0.1923828, -12.3780489, -0.3048781, -2.0731707, 0.0287022
0.9643555, -0.1748047, -0.1992188, -12.8658543, -1.2804878, -2.4390244, 0.0332341
0.9672852, -0.1826172, -0.2036133, -13.5975609, -2.195122, -2.195122, 0.0407874
0.972168, -0.2070312, -0.2016602, -14.5731707, -2.6219513, -1.5853659, 0.0451514
0.9746094, -0.2182617, -0.1938477, -14.3292685, -2.7439024, -1.402439, 0.0468299
0.9760742, -0.2172852, -0.1811523, -13.4756098, -3.1097562, -1.6463414, 0.0360876
0.9716797, -0.2172852, -0.1826172, -12.1951218, -3.5975611, -2.195122, 0.0303807
0.9550781, -0.2075195, -0.2075195, -12.0121956, -3.9634147, -2.1341465, 0.0186313
0.9521484, -0.2075195, -0.2163086, -12.7439032, -4.2682929, -1.402439, -0.0105745
0.9521484, -0.1967773, -0.2163086, -12.9268293, -4.8780489, -1.0365853, -0.0360876
0.9584961, -0.1889648, -0.2075195, -12.560976, -4.6951222, -1.3414634, -0.0431373
0.9638672, -0.1826172, -0.2021484, -11.5853662, -4.7560978, -1.3414634, -0.0370947
0.9677734, -0.1831055, -0.2006836, -11.280488, -4.8170733, -1.6463414, -0.023331
0.9672852, -0.1879883, -0.2104492, -11.8292685, -4.7560978, -0.9146342, 0.0041962
0.9692383, -0.2050781, -0.2250977, -12.9268293, -4.5731707, 0, 0.021149
0.9692383, -0.206543, -0.230957, -13.5365858, -4.5731707, 0.6097561, 0.0280308
0.9770508, -0.1962891, -0.2202148, -13.1707315, -4.7560978, 0.5487805, 0.036759
0.9770508, -0.1923828, -0.2124023, -12.1341467, -4.4512196, 0.3048781, 0.040116
0.9736328, -0.1616211, -0.203125, -11.1585369, -4.4512196, 0.4268293, 0.036759
0.9716797, -0.1552734, -0.2036133, -11.5853662, -4.4512196, 0.9146342, 0.0240024
0.9667969, -0.159668, -0.2114258, -13.780488, -4.6951222, 1.6463414, 0.0005035
0.9633789, -0.1777344, -0.2163086, -15.6707325, -5.3658538, 2.3780489, -0.0250095
0.9628906, -0.1875, -0.2143555, -16.7682934, -5.670732, 2.8658538, -0.0458228
0.9589844, -0.190918, -0.2050781, -16.5853653, -5.9756098, 2.9268293, -0.0528725
0.9589844, -0.1875, -0.2026367, -15.5487804, -6.3414636, 2.804878, -0.064622
0.972168, -0.1894531, -0.2036133, -14.4512196, -6.7073174, 2.9878049, -0.0773785
0.9794922, -0.1923828, -0.206543, -14.4512196, -6.2195125, 2.9878049, -0.0767071
0.9824219, -0.1948242, -0.2060547, -14.9390249, -6.0975609, 3.0487804, -0.0726787
0.9814453, -0.1933594, -0.2075195, -15.1219511, -5.7317076, 3.2926829, -0.0592508
0.9711914, -0.1977539, -0.2050781, -15.060976, -5.9756098, 3.2317073, -0.0431373
0.9716797, -0.1992188, -0.2045898, -15.1219511, -6.280488, 3.2926829, -0.0276951
0.9677734, -0.2104492, -0.1977539, -14.7560978, -6.4024391, 3.1707318, -0.0109102
0.9672852, -0.21875, -0.1948242, -14.5121956, -6.2195125, 3.0487804, 0.0018463
0.9672852, -0.2167969, -0.1889648, -13.9634151, -6.8292685, 2.6829269, 0.0085603
0.9628906, -0.2158203, -0.175293, -13.3536587, -6.7073174, 2.2560976, 0.0045319
0.9560547, -0.2236328, -0.1738281, -13.1707315, -7.0121951, 2.2560976, -0.0041962
0.9472656, -0.2192383, -0.1811523, -13.0487804, -7.1341467, 2.3170731, -0.0068818
0.9418945, -0.21875, -0.1899414, -13.2926836, -7.1341467, 2.1341465, -0.0135958
0.9428711, -0.2060547, -0.1982422, -12.9268293, -7.6219516, 1.8902439, -0.0240024
0.9453125, -0.203125, -0.1987305, -12.9268293, -8.3536587, 1.0365853, -0.0317235
0.9526367, -0.206543, -0.1958008, -12.7439032, -8.719512, 0.8536586, -0.0446479
0.9560547, -0.2099609, -0.1982422, -13.2317076, -9.2073174, 0.9146342, -0.0458228
0.9599609, -0.2089844, -0.2021484, -13.4756098, -8.780488, 1.0365853, -0.0404517
0.9628906, -0.2075195, -0.215332, -13.780488, -8.719512, 1.4634147, -0.0357519
0.9604492, -0.1987305, -0.2226562, -13.9024391, -8.5975609, 1.2195122, -0.0347448
0.9638672, -0.1928711, -0.2314453, -13.9634151, -8.6585369, 1.5243902, -0.0337377
0.9667969, -0.1918945, -0.2314453, -14.3292685, -8.780488, 1.5853659, -0.0454871
0.9741211, -0.1918945, -0.2226562, -14.5121956, -8.9634151, 2.0121951, -0.061265
0.9814453, -0.1884766, -0.222168, -15.2439032, -8.4146347, 1.9512196, -0.0820783
0.9848633, -0.1806641, -0.2104492, -15.6707325, -7.9878049, 2.195122, -0.0887922
0.9863281, -0.1782227, -0.1987305, -15.4268293, -7.5, 2.1341465, -0.0733501
0.9794922, -0.1767578, -0.1845703, -15.5487804, -7.1951222, 2.4390244, -0.0397803
0.9780273, -0.1787109, -0.1831055, -15.7317076, -7.6219516, 2.804878, 0.0038605
0.9785156, -0.1704102, -0.1918945, -16.8292694, -7.9268293, 3.0487804, 0.0360876
0.9628906, -0.1777344, -0.2070312, -17.9878044, -8.1707315, 3.4756098, 0.0451514
0.9624023, -0.1777344, -0.2124023, -18.780489, -8.1707315, 3.9024391, 0.0370947
0.9672852, -0.175293, -0.2124023, -18.9634151, -8.2926826, 4.2073174, 0.018967
0.9736328, -0.1733398, -0.2055664, -18.2317085, -8.4146347, 4.2682929, -0.0035248
0.9804688, -0.1704102, -0.1918945, -17.0121956, -7.9878049, 4.390244, -0.0223239
0.9799805, -0.1723633, -0.184082, -16.3414631, -7.1341467, 4.9390244, -0.0310521
0.9672852, -0.1777344, -0.1772461, -16.7073174, -6.280488, 5.4268293, -0.0404517
0.9638672, -0.1733398, -0.1757812, -17.1341476, -5.8536587, 5.9146342, -0.0505226
0.9477539, -0.1708984, -0.1694336, -17.2560978, -6.0975609, 5.7926831, -0.0641184
0.9423828, -0.1787109, -0.1708984, -17.2560978, -6.9512196, 5.5487804, -0.0626078
0.9370117, -0.2075195, -0.1704102, -17.8658543, -7.5609756, 5.3658538, -0.061265
0.9414062, -0.2382812, -0.1733398, -17.5, -7.8048782, 5.609756, -0.0652934
0.9433594, -0.2397461, -0.1738281, -16.7073174, -7.8658538, 5.7926831, -0.0908064
0.9545898, -0.2202148, -0.1816406, -15.5487804, -7.8658538, 5.1829271, -0.110277
0.9609375, -0.2099609, -0.1845703, -13.9634151, -7.8048782, 4.3292685, -0.1240406
0.9628906, -0.1958008, -0.1967773, -13.0487804, -7.7439027, 3.8414636, -0.1210193
0.9697266, -0.1928711, -0.2050781, -12.8658543, -7.5, 3.9024391, -0.1059129
0.9804688, -0.2001953, -0.2177734, -13.0487804, -6.890244, 4.5121951, -0.0814069
0.9858398, -0.2041016, -0.2226562, -13.5975609, -6.4024391, 4.9390244, -0.0547189
0.9814453, -0.2138672, -0.2182617, -13.5975609, -5, 5.2439027, -0.0283665
0.9760742, -0.2163086, -0.2114258, -12.1951218, -3.4756098, 5.2439027, -0.012253
0.9609375, -0.215332, -0.1962891, -11.219512, -2.4390244, 5.2439027, -0.0028534
0.9443359, -0.1987305, -0.1796875, -10.1219511, -2.0731707, 4.8780489, 0.0031891
0.9428711, -0.1879883, -0.1738281, -9.5731707, -1.7682927, 4.5731707, -0.002182
0.9355469, -0.1791992, -0.1713867, -9.2073174, -1.7682927, 3.7804878, -0.0068818
0.9350586, -0.1845703, -0.171875, -9.3292685, -1.8292683, 3.1707318, -0.0043641
0.9360352, -0.2070312, -0.1860352, -9.4512196, -2.3170731, 3.2317073, -0.0050355
0.9458008, -0.215332, -0.1884766, -9.6341467, -2.0731707, 3.5975611, -0.0095674
0.9638672, -0.230957, -0.1928711, -9.0243902, -2.2560976, 3.5975611, -0.0052033
0.9707031, -0.2285156, -0.1972656, -7.6219516, -1.7682927, 3.2317073, -0.0028534
0.9775391, -0.2075195, -0.1962891, -5.7926831, -0.3048781, 2.6219513, -0.0018463
0.9775391, -0.1943359, -0.1923828, -5.2439027, 0.6707317, 2.0121951, -0.0023499
0.9604492, -0.1806641, -0.1826172, -5.3658538, 1.2804878, 1.5853659, -0.0072175
0.9467773, -0.1889648, -0.1791992, -6.4024391, 1.2195122, 2.2560976, -0.008896
0.9462891, -0.1987305, -0.1748047, -6.9512196, 0.8536586, 2.4390244, -0.0031891
0.9379883, -0.2158203, -0.1723633, -7.0731707, 0.6097561, 2.6829269, -0.0001678
0.940918, -0.2138672, -0.171875, -6.5243902, 0.2439024, 2.5609756, -0.0023499
0.9467773, -0.2124023, -0.168457, -5.5487804, 0.0609756, 2.2560976, -0.0005035
0.9516602, -0.2060547, -0.1660156, -4.8170733, -0.1829268, 1.9512196, -0.0068818
0.9619141, -0.1962891, -0.1582031, -4.2073174, -0.6707317, 1.7073171, -0.0109102
0.9658203, -0.1918945, -0.1577148, -4.2073174, -0.9146342, 1.4634147, -0.0099031
0.9658203, -0.1816406, -0.1650391, -4.5121951, -1.0365853, 1.402439, -0.0090639
0.9677734, -0.1713867, -0.1723633, -5.3048782, -1.2195122, 1.5243902, -0.0125887
0.9736328, -0.1591797, -0.175293, -5.4878049, -1.4634147, 1.7073171, -0.0191348
0.9746094, -0.1616211, -0.175293, -6.1585369, -2.0731707, 2.0121951, -0.0280308
0.9765625, -0.171875, -0.1728516, -6.4024391, -2.3780489, 2.4390244, -0.0485084
0.9804688, -0.1948242, -0.1733398, -6.9512196, -2.0121951, 3.0487804, -0.0659648
0.9794922, -0.2036133, -0.1796875, -7.0121951, -1.8292683, 3.4756098, -0.0733501
0.9682617, -0.2006836, -0.1796875, -6.890244, -1.3414634, 3.3536587, -0.0861067
0.9643555, -0.1982422, -0.1772461, -6.6463418, -1.097561, 2.9268293, -0.0891279
0.953125, -0.1943359, -0.1699219, -6.1585369, -1.3414634, 2.5609756, -0.0797284
0.9555664, -0.1948242, -0.159668, -5.4878049, -1.5243902, 2.195122, -0.0797284
0.9677734, -0.1855469, -0.144043, -5.3658538, -1.5853659, 1.7682927, -0.0961776
0.9667969, -0.1821289, -0.1367188, -4.8170733, -1.9512196, 1.2804878, -0.100206
0.9667969, -0.1806641, -0.1401367, -5.1829271, -2.1341465, 0.6707317, -0.0988632
0.9594727, -0.1948242, -0.1557617, -5.3658538, -2.6219513, 0.6707317, -0.1055772
0.9516602, -0.2089844, -0.1689453, -5.7317076, -2.7439024, 1.1585366, -0.0874495
0.9462891, -0.234375, -0.1923828, -5.670732, -2.9268293, 1.8902439, -0.0538796
0.9487305, -0.2338867, -0.1879883, -4.9390244, -2.8658538, 2.0731707, -0.0129244
0.9580078, -0.2172852, -0.1728516, -3.0487804, -2.3780489, 1.6463414, 0.0250095
0.9580078, -0.2045898, -0.1762695, -0.9146342, -1.5853659, 0.4268293, 0.0548867
0.9501953, -0.1796875, -0.1943359, -0.0609756, -1.097561, -0.3048781, 0.0703288
0.949707, -0.1782227, -0.1992188, -0.6707317, -1.1585366, -0.4878049, 0.0642863
0.9633789, -0.1811523, -0.206543, -2.7439024, -1.5243902, -0.0609756, 0.0166171
0.9716797, -0.1835938, -0.2026367, -4.1463413, -1.097561, 0.4268293, -0.0350805
0.9829102, -0.1757812, -0.1879883, -4.2073174, -0.4878049, 0.5487805, -0.0632792
0.984375, -0.1606445, -0.1645508, -4.0243902, 0.3658537, 0.5487805, -0.0699931
0.9848633, -0.1577148, -0.1591797, -3.7195122, 0.4878049, 0.6097561, -0.0622721
0.980957, -0.1694336, -0.1567383, -4.0243902, 0.2439024, 1.1585366, -0.0426337
0.9814453, -0.1757812, -0.1621094, -4.8780489, -0.3048781, 1.9512196, -0.0166171
0.9799805, -0.1835938, -0.1713867, -5.8536587, -0.4878049, 2.2560976, 0.0099031
0.9760742, -0.1835938, -0.1772461, -6.280488, -0.3658537, 2.3780489, -0.0058747
0.9760742, -0.1918945, -0.1738281, -6.3414636, -0.4268293, 2.6219513, -0.0280308
0.9794922, -0.1992188, -0.1757812, -5.8536587, -0.7926829, 2.4390244, -0.0167849
0.9892578, -0.1992188, -0.1704102, -5.3048782, -0.6097561, 2.195122, 0.0038605
0.9907227, -0.1962891, -0.1660156, -5.1829271, -0.3658537, 2.4390244, 0.0253452
0.9882812, -0.1972656, -0.1650391, -5.4268293, -0.3658537, 2.5, 0.043473
0.9829102, -0.1879883, -0.1557617, -5.9756098, -0.3658537, 2.195122, 0.0522011
0.9794922, -0.1855469, -0.1518555, -6.4634147, -0.4268293, 1.9512196, 0.0656291
0.9750977, -0.1899414, -0.1450195, -7.2560978, -0.9756098, 2.1341465, 0.0703288
0.9726562, -0.1962891, -0.1508789, -8.0487804, -1.3414634, 2.0731707, 0.0746929
0.9726562, -0.2128906, -0.1494141, -8.1707315, -2.2560976, 1.7682927, 0.0777142
0.9746094, -0.2197266, -0.1459961, -8.4756098, -2.8658538, 1.8292683, 0.0748608
0.980957, -0.222168, -0.1479492, -7.5609756, -2.8658538, 1.7073171, 0.0757
0.9819336, -0.2163086, -0.1420898, -6.890244, -2.8658538, 0.8536586, 0.0703288
0.9736328, -0.2001953, -0.1308594, -5.5487804, -2.4390244, 0.1219512, 0.0592508
0.9677734, -0.1889648, -0.1269531, -4.8780489, -2.8658538, -0.4268293, 0.04448
0.965332, -0.1962891, -0.1298828, -5, -3.6585367, -0.5487805, 0.0265202
0.9521484, -0.2050781, -0.1459961, -5.609756, -4.6341462, -0.8536586, 0.0112459
0.9472656, -0.2119141, -0.152832, -6.0975609, -5.3048782, -0.7926829, -0.0008392
0.9448242, -0.2075195, -0.1577148, -5.8536587, -5.7317076, -0.6707317, -0.0109102
0.9433594, -0.2026367, -0.1601562, -4.9390244, -5.609756, -0.7926829, -0.0196384
0.9428711, -0.1889648, -0.1577148, -3.7195122, -5.4878049, -1.1585366, -0.0292058
0.9487305, -0.1816406, -0.1567383, -3.0487804, -5.7926831, -1.4634147, -0.0446479
0.9560547, -0.1811523, -0.1689453, -3.0487804, -5.670732, -1.2804878, -0.0518654
0.9619141, -0.1855469, -0.1708984, -3.7195122, -5.4878049, -1.402439, -0.0619364
0.9711914, -0.1958008, -0.1767578, -4.8780489, -5.7317076, -0.8536586, -0.0639506
0.9667969, -0.1962891, -0.1723633, -5.4878049, -5.609756, -0.7926829, -0.0649577
0.972168, -0.1894531, -0.1738281, -4.8170733, -5.5487804, -0.7926829, -0.0820783
0.9814453, -0.175293, -0.1772461, -4.0243902, -5.3048782, -0.7317073, -0.0881209
0.9868164, -0.1782227, -0.1762695, -3.8414636, -5.7926831, -0.6097561, -0.0807355
0.9975586, -0.1875, -0.1738281, -4.7560978, -5.3048782, -0.5487805, -0.0814069
1.0014648, -0.1953125, -0.1699219, -5.4878049, -5.5487804, 0.1219512, -0.0733501
0.9951172, -0.2021484, -0.1518555, -5.8536587, -5.4878049, 0.3048781, -0.0609293
0.9907227, -0.203125, -0.1450195, -6.0975609, -5.5487804, 0.9146342, -0.0498512
0.9799805, -0.1962891, -0.1445312, -5.4878049, -5.609756, 1.097561, -0.0414588
0.9692383, -0.1806641, -0.1499023, -5, -6.0365853, 0.9146342, -0.0325628
0.9658203, -0.1450195, -0.1616211, -5.4878049, -7.0731707, 0.7926829, -0.0310521
0.972168, -0.1279297, -0.1625977, -6.5853658, -7.7439027, 0.6707317, -0.0354162
0.9780273, -0.1352539, -0.1572266, -7.9268293, -8.4146347, 1.1585366, -0.0431373
0.9916992, -0.1743164, -0.1533203, -9.9390249, -9.1463413, 1.8292683, -0.0446479
0.9926758, -0.1953125, -0.1523438, -11.341464, -9.2073174, 2.195122, -0.0491798
0.9916992, -0.2211914, -0.1474609, -11.5243902, -8.5365858, 2.5, -0.0626078
0.9833984, -0.2250977, -0.1450195, -10.4268293, -7.8658538, 2.804878, -0.0720073
0.9697266, -0.2070312, -0.1342773, -8.5365858, -7.5609756, 2.2560976, -0.0585794
0.9638672, -0.1972656, -0.1352539, -7.1951222, -7.8048782, 1.8902439, -0.0231632
0.9570312, -0.1816406, -0.1435547, -7.0121951, -8.3536587, 0.8536586, 0.0152743
0.9501953, -0.1791992, -0.1425781, -8.3536587, -9.2073174, 0.4878049, 0.0525368
0.9511719, -0.2001953, -0.1381836, -9.3902445, -9.7560978, 0.6097561, 0.0663005
0.9663086, -0.2246094, -0.128418, -9.3292685, -10.3048782, 0.9756098, 0.0585794
0.972168, -0.2285156, -0.125, -8.1097565, -10.4268293, 0.9146342, 0.0448157
0.96875, -0.2299805, -0.1308594, -6.280488, -10.6097565, 0.0609756, 0.0193027
0.9663086, -0.2265625, -0.1416016, -4.9390244, -10.060976, -0.4878049, -0.0008392
0.9628906, -0.2055664, -0.1679688, -4.6951222, -10.060976, -0.7317073, -0.0135958
0.965332, -0.1958008, -0.1777344, -4.9390244, -10.1219511, -1.1585366, -0.0310521
0.9697266, -0.1855469, -0.1889648, -5.7926831, -10.6097565, -1.2804878, -0.0424659
0.9677734, -0.1855469, -0.1879883, -5.8536587, -10.9146347, -1.4634147, -0.0471656
0.9760742, -0.1972656, -0.1831055, -6.4024391, -10.4878054, -1.2804878, -0.0505226
0.9750977, -0.2016602, -0.1787109, -6.6463418, -9.7560978, -0.7317073, -0.0458228
0.9711914, -0.2006836, -0.1777344, -6.3414636, -8.5365858, -0.8536586, -0.0412909
0.9570312, -0.1899414, -0.1757812, -6.1585369, -8.2317076, -0.8536586, -0.0374304
0.9550781, -0.1821289, -0.1757812, -5.9756098, -8.1097565, -1.3414634, -0.036759
0.956543, -0.1782227, -0.1699219, -5.5487804, -8.719512, -0.7926829, -0.0391089
0.9599609, -0.1772461, -0.1704102, -5.5487804, -9.5121956, -0.7926829, -0.0359197
0.9672852, -0.1904297, -0.1816406, -6.5853658, -9.4512196, -1.1585366, -0.0370947
0.9682617, -0.1943359, -0.1865234, -7.3780489, -8.5975609, -0.7926829, -0.0417945
0.9746094, -0.1972656, -0.1879883, -7.8048782, -8.4146347, -0.2439024, -0.0471656
0.980957, -0.1933594, -0.1855469, -7.7439027, -8.1097565, 0.1219512, -0.0532082
0.9775391, -0.1811523, -0.1791992, -7.1341467, -8.1097565, -0.2439024, -0.0525368
0.9794922, -0.1772461, -0.171875, -7.2560978, -7.7439027, 0, -0.0485084
0.9814453, -0.1796875, -0.1679688, -7.9268293, -7.1951222, -0.1829268, -0.0488441
0.9692383, -0.1870117, -0.1547852, -9.0243902, -6.9512196, -0.1829268, -0.047837
0.9677734, -0.1845703, -0.1533203, -9.5731707, -6.890244, -0.0609756, -0.0532082
0.9584961, -0.1860352, -0.1567383, -10.1219511, -7.2560978, 0.2439024, -0.0619364
0.9619141, -0.1855469, -0.1640625, -9.8780489, -7.8048782, 0.1829268, -0.0941634
0.9677734, -0.1796875, -0.1723633, -9.9390249, -8.1097565, 0.3658537, -0.1574426
0.9726562, -0.1811523, -0.1738281, -10.060976, -8.2317076, 0.5487805, -0.2066224
0.9819336, -0.1914062, -0.1772461, -10.3048782, -8.4146347, 0.3048781, -0.2220645
0.9819336, -0.1855469, -0.1767578, -10.9146347, -7.5, 0.5487805, -0.2096437
0.980957, -0.1796875, -0.1870117, -11.219512, -6.4634147, 0.9756098, -0.1660029
0.9755859, -0.1787109, -0.1845703, -11.219512, -5.7317076, 0.6707317, -0.1062486
0.9697266, -0.1855469, -0.1630859, -10.7317076, -5.7926831, 0.8536586, -0.0374304
0.9589844, -0.1870117, -0.1499023, -10.3658543, -5.9756098, 0.7317073, 0.0130922
0.9521484, -0.1879883, -0.1469727, -9.6951218, -6.2195125, 0.6707317, 0.0404517
0.9355469, -0.1914062, -0.152832, -10, -6.0365853, 0.6097561, 0.0592508
0.925293, -0.1962891, -0.1669922, -10, -5.9756098, 0.6707317, 0.0652934
0.9223633, -0.2011719, -0.1689453, -10.3658543, -6.1585369, 0.4878049, 0.0683146
0.9267578, -0.206543, -0.1645508, -9.5121956, -6.7682929, 0.3048781, 0.0622721
0.9467773, -0.2084961, -0.1489258, -8.3536587, -7.5, -0.1219512, 0.0488441
0.9545898, -0.2050781, -0.1479492, -6.9512196, -7.6829271, -0.4878049, 0.0354162
0.972168, -0.1972656, -0.1557617, -6.3414636, -7.1951222, -0.9146342, 0.0271916
0.9716797, -0.1948242, -0.1577148, -6.3414636, -6.7073174, -0.6707317, 0.0229953
0.9682617, -0.1943359, -0.1586914, -6.890244, -6.4634147, -0.7926829, 0.0273594
0.9711914, -0.1899414, -0.1503906, -6.5853658, -7.1341467, -0.4878049, 0.0370947
0.9736328, -0.1992188, -0.1459961, -6.1585369, -7.9878049, -0.4878049, 0.0505226
0.9760742, -0.2026367, -0.1513672, -5.609756, -8.1097565, -0.6097561, 0.0574044
0.9750977, -0.203125, -0.1567383, -5.3048782, -8.0487804, -0.2439024, 0.0666361
0.9692383, -0.2045898, -0.1503906, -4.8780489, -7.6829271, -0.1829268, 0.0777142
0.9667969, -0.199707, -0.1474609, -3.9634147, -7.8048782, -0.4878049, 0.0788891
0.9619141, -0.1889648, -0.1464844, -3.4756098, -7.8658538, -0.5487805, 0.0733501
0.9604492, -0.1835938, -0.152832, -2.804878, -8.0487804, -0.9146342, 0.0614328
0.9570312, -0.1777344, -0.1699219, -3.2317073, -8.4146347, -1.1585366, 0.0323949
0.9560547, -0.1782227, -0.1791992, -4.5731707, -9.0243902, -0.9146342, 0.0003357
0.956543, -0.1679688, -0.1855469, -5.670732, -9.0243902, -0.9756098, -0.0169528
0.9584961, -0.1713867, -0.1796875, -6.0975609, -8.9634151, -0.5487805, -0.0377661
0.965332, -0.1694336, -0.1728516, -6.1585369, -9.0853662, -0.3658537, -0.0535439
0.9741211, -0.1879883, -0.1699219, -5.9756098, -8.9024391, -0.3048781, -0.0500191
0.9711914, -0.1943359, -0.1679688, -5.5487804, -8.2926826, -0.3048781, -0.04448
0.9643555, -0.2094727, -0.1767578, -5.7317076, -8.1707315, -0.1829268, -0.0283665
0.9624023, -0.2138672, -0.1796875, -6.1585369, -7.3780489, 0.1829268, -0.0112459
0.9550781, -0.2016602, -0.1733398, -5.8536587, -7.2560978, 0.0609756, 0.0065461
0.9580078, -0.1948242, -0.1694336, -5.2439027, -7.0731707, -0.0609756, 0.0218204
0.9672852, -0.1850586, -0.1708984, -4.8780489, -7.0121951, -0.4878049, 0.0310521
0.9746094, -0.184082, -0.1777344, -5.5487804, -7.1951222, -0.7926829, 0.036759
0.9931641, -0.1948242, -0.1782227, -6.890244, -7.2560978, -0.6097561, 0.0391089
1.0180664, -0.2119141, -0.1669922, -7.7439027, -7.0731707, -0.7317073, 0.0340734
1.0249023, -0.2211914, -0.1557617, -8.2926826, -7.5, -0.2439024, 0.0307164
1.0283203, -0.2363281, -0.1445312, -7.7439027, -7.1951222, -0.4268293, 0.0223239
1.0288086, -0.2358398, -0.1396484, -6.9512196, -7.3170733, -0.3658537, 0.0129244
1.0175781, -0.2363281, -0.1328125, -6.3414636, -6.9512196, -0.5487805, -0.0048676
1.0097656, -0.2348633, -0.1342773, -5.9756098, -7.3780489, -0.7317073, -0.0424659
0.9926758, -0.2275391, -0.1396484, -5.4268293, -7.5609756, -0.8536586, -0.0877852
0.9931641, -0.2270508, -0.1381836, -5.0609756, -8.3536587, -1.402439, -0.117998
0.9907227, -0.230957, -0.1323242, -4.6341462, -8.9024391, -1.7682927, -0.1307546
0.9926758, -0.2353516, -0.1303711, -3.9634147, -9.3292685, -2.1341465, -0.1327687
0.9882812, -0.2421875, -0.125, -2.3780489, -9.3292685, -2.5, -0.1223621
0.9902344, -0.2338867, -0.1245117, -1.0365853, -9.3292685, -2.804878, -0.0941634
0.9882812, -0.2270508, -0.1235352, 0, -9.0243902, -2.6829269, -0.0642863
0.9814453, -0.2124023, -0.1386719, 0.6707317, -9.1463413, -3.0487804, -0.033402
0.9814453, -0.2011719, -0.1484375, 0.7317073, -9.6951218, -3.4756098, -0.0028534
0.972168, -0.1879883, -0.1567383, 0.4268293, -10.2439022, -3.5365853, 0.026688
0.96875, -0.1806641, -0.1557617, 0, -10.7317076, -3.3536587, 0.0412909
0.9575195, -0.1376953, -0.159668, -0.3048781, -11.219512, -2.804878, 0.0406195
0.9570312, -0.1201172, -0.1645508, -0.6097561, -11.219512, -2.195122, 0.0223239
0.9609375, -0.1142578, -0.1806641, -2.3170731, -11.1585369, -1.1585366, -0.0028534
0.9672852, -0.1245117, -0.1904297, -4.5121951, -10.9756098, -0.7317073, -0.0166171
0.9702148, -0.1542969, -0.2021484, -6.6463418, -11.0975609, -0.3658537, -0.0256809
0.9755859, -0.1796875, -0.1933594, -7.5, -11.341464, 0, -0.0223239
0.9780273, -0.190918, -0.1865234, -7.1341467, -11.1585369, 0.0609756, -0.0075532
0.9799805, -0.2094727, -0.1772461, -5.4878049, -10.3048782, 0.2439024, 0.0112459
0.9824219, -0.2133789, -0.1777344, -4.3292685, -8.6585369, 0.3658537, 0.0287022
0.9794922, -0.2104492, -0.184082, -3.2926829, -7.4390244, 0.7317073, 0.0387732
0.9770508, -0.1982422, -0.1757812, -3.2317073, -6.890244, 0.6097561, 0.0360876
0.9731445, -0.1816406, -0.1660156, -2.6829269, -7.1951222, 0.2439024, 0.026688
0.972168, -0.1757812, -0.1650391, -2.2560976, -7.6829271, -0.0609756, 0.0203098
0.9648438, -0.1665039, -0.1689453, -2.1341465, -8.0487804, 0.6097561, 0.0090639
0.9658203, -0.1694336, -0.1791992, -3.2317073, -7.9268293, 1.3414634, -0.0015106
0.965332, -0.175293, -0.1821289, -3.9024391, -7.2560978, 2.1341465, -0.0162814
0.9599609, -0.1826172, -0.1757812, -4.6341462, -7.0121951, 2.4390244, -0.0337377
0.9638672, -0.1850586, -0.1640625, -4.6341462, -6.9512196, 2.4390244, -0.04448
0.9667969, -0.1923828, -0.1606445, -4.0853658, -7.0731707, 2.3170731, -0.0558938
0.9638672, -0.1933594, -0.159668, -3.8414636, -7.1951222, 2.195122, -0.0565652
0.9594727, -0.1958008, -0.1606445, -3.7804878, -7.1951222, 2.195122, -0.0552224
0.9619141, -0.1972656, -0.1552734, -4.0243902, -7.1341467, 2.2560976, -0.0535439
0.9575195, -0.199707, -0.1542969, -3.2317073, -7.0731707, 2.5, -0.0508583
0.9609375, -0.1933594, -0.1523438, -2.8658538, -6.9512196, 2.2560976, -0.0411231
0.9624023, -0.1899414, -0.1694336, -2.0731707, -6.7073174, 2.3780489, -0.0394446
0.9658203, -0.1894531, -0.1738281, -2.6829269, -6.7073174, 2.195122, -0.0414588
0.9697266, -0.1923828, -0.1845703, -3.2317073, -6.5853658, 2.4390244, -0.043473
0.9726562, -0.1972656, -0.1748047, -4.0243902, -6.8292685, 2.6219513, -0.0464942
0.9775391, -0.1962891, -0.1640625, -4.2682929, -6.5853658, 2.6219513, -0.0471656
0.9814453, -0.2060547, -0.159668, -4.390244, -6.7682929, 2.6219513, -0.0454871
0.9760742, -0.2041016, -0.159668, -4.2073174, -6.4634147, 2.6219513, -0.0562295
0.9697266, -0.2060547, -0.1655273, -4.4512196, -6.4024391, 2.804878, -0.0783856
0.9648438, -0.203125, -0.1713867, -5, -6.7682929, 2.7439024, -0.0955062
0.9614258, -0.1962891, -0.1630859, -5.3048782, -7.0731707, 2.6219513, -0.096849
0.9594727, -0.1938477, -0.1557617, -5.4268293, -7.9878049, 2.1341465, -0.093492
0.9609375, -0.1982422, -0.1518555, -5.5487804, -8.780488, 1.7073171, -0.0753643
0.956543, -0.2041016, -0.1577148, -5.609756, -8.6585369, 2.0121951, -0.0481727
0.9555664, -0.2158203, -0.171875, -5.8536587, -8.9024391, 2.1341465, -0.0287022
0.9541016, -0.2089844, -0.1845703, -5.9756098, -8.6585369, 2.195122, -0.0085603
0.9550781, -0.2026367, -0.1816406, -5.8536587, -8.719512, 2.195122, 0.0072175
0.965332, -0.1938477, -0.1767578, -5.3048782, -8.4756098, 2.2560976, 0.0090639
0.9726562, -0.1948242, -0.1723633, -4.6951222, -8.780488, 1.8292683, 0.0082246
0.9741211, -0.1943359, -0.1645508, -4.5121951, -8.4756098, 1.4634147, 0.0023499
0.9726562, -0.1958008, -0.1645508, -5, -8.1707315, 1.2804878, -0.0083925
0.9663086, -0.2001953, -0.1757812, -6.1585369, -7.9878049, 1.402439, -0.0310521
0.9609375, -0.1958008, -0.1821289, -7.2560978, -8.0487804, 1.8292683, -0.0575723
0.9462891, -0.1796875, -0.1748047, -8.4756098, -8.1707315, 2.3170731, -0.0741894
0.9384766, -0.1850586, -0.1674805, -9.3292685, -8.4756098, 2.0731707, -0.0726787
0.9448242, -0.1875, -0.1689453, -9.6341467, -8.719512, 2.0121951, -0.0451514
0.9448242, -0.2001953, -0.1616211, -10.1219511, -8.9634151, 1.8292683, -0.0001678
0.9477539, -0.2075195, -0.1635742, -10.4268293, -8.9634151, 1.5243902, 0.0250095
0.9521484, -0.2133789, -0.1645508, -10.7317076, -8.719512, 1.2195122, 0.023331
0.9555664, -0.2182617, -0.1674805, -10.2439022, -8.6585369, 0.9146342, 0.0052033
0.9541016, -0.2070312, -0.1650391, -9.8170738, -8.4146347, 1.097561, -0.0417945
0.9492188, -0.2001953, -0.1630859, -9.6951218, -8.3536587, 0.6707317, -0.0928206
0.9599609, -0.1875, -0.1547852, -9.2073174, -8.4146347, 0.7926829, -0.1082628
0.9628906, -0.1855469, -0.152832, -9.3292685, -8.5975609, 0.4878049, -0.0981918
0.9550781, -0.1772461, -0.1508789, -10.1829271, -8.719512, -0.1219512, -0.0780499
0.9394531, -0.1860352, -0.1542969, -11.219512, -8.2317076, 0.3048781, -0.0438087
0.9331055, -0.1914062, -0.1582031, -11.9512196, -8.4756098, 0.5487805, -0.0115816
0.9306641, -0.1977539, -0.1689453, -12.4390249, -9.0243902, 1.1585366, 0.0078889
0.9350586, -0.1943359, -0.1748047, -12.560976, -9.3902445, 0.6707317, 0.0216526
0.9453125, -0.1831055, -0.1782227, -11.7682934, -9.8170738, 0.5487805, 0.0223239
0.9536133, -0.1816406, -0.1762695, -11.6463413, -9.6341467, 0.3048781, 0.0196384
0.9697266, -0.1845703, -0.1796875, -11.9512196, -9.7560978, 0, 0.0092317
0.9760742, -0.1850586, -0.1757812, -12.1951218, -9.8780489, -0.3048781, 0.0092317
0.9892578, -0.1923828, -0.1738281, -12.6219511, -9.3292685, -0.1829268, 0.0216526
0.9926758, -0.1953125, -0.1738281, -13.0487804, -8.6585369, 0.1829268, 0.0280308
0.9907227, -0.2021484, -0.1625977, -12.9878054, -7.9268293, 0.7317073, 0.0213169
0.9794922, -0.2001953, -0.1577148, -12.8048782, -7.8048782, 0.9146342, 0.0193027
0.9692383, -0.1933594, -0.1577148, -12.8048782, -7.4390244, 1.097561, 0.0099031
0.9599609, -0.1816406, -0.1547852, -12.7439032, -8.1707315, 1.3414634, -0.008896
0.9526367, -0.1782227, -0.159668, -12.6219511, -8.2926826, 1.2804878, -0.0337377
0.9501953, -0.1772461, -0.1650391, -12.6829271, -8.5365858, 1.5243902, -0.0609293
0.9482422, -0.1816406, -0.1625977, -13.3536587, -8.5975609, 1.6463414, -0.0807355
0.9550781, -0.1777344, -0.1577148, -13.9634151, -8.5975609, 1.8292683, -0.0770428
0.9570312, -0.1723633, -0.152832, -14.0853662, -8.4756098, 1.8902439, -0.056733
0.956543, -0.1738281, -0.1503906, -14.3292685, -8.1097565, 1.2195122, -0.0290379
0.9570312, -0.1738281, -0.1547852, -14.7560978, -8.1707315, 1.4634147, 0.0011749
0.9545898, -0.1826172, -0.1567383, -15.9146347, -8.6585369, 1.7073171, 0.0313878
0.9584961, -0.1958008, -0.1577148, -16.7682934, -8.719512, 2.2560976, 0.0548867
0.9584961, -0.1962891, -0.1577148, -16.7682934, -8.719512, 2.3170731, 0.0699931
0.9575195, -0.1918945, -0.1518555, -15.2439032, -9.0243902, 2.1341465, 0.0797284
0.9604492, -0.1928711, -0.1547852, -13.2926836, -9.3292685, 1.7682927, 0.076875
0.9667969, -0.1923828, -0.1582031, -12.3780489, -9.0243902, 1.3414634, 0.0763714
0.9663086, -0.1958008, -0.15625, -11.8902445, -7.8048782, 1.4634147, 0.0696574
0.9775391, -0.2041016, -0.1411133, -12.1951218, -7.0731707, 1.4634147, 0.0605936
0.9716797, -0.2070312, -0.1333008, -12.3780489, -6.0975609, 1.402439, 0.0414588
0.9589844, -0.1938477, -0.1259766, -12.0121956, -6.2195125, 1.2804878, 0.0246738
0.9511719, -0.1889648, -0.1230469, -11.4634151, -7.2560978, 1.1585366, 0.0104067
0.9418945, -0.1689453, -0.1376953, -11.5853662, -8.1707315, 1.1585366, 0.0005035
0.9453125, -0.1708984, -0.152832, -12.3170738, -8.2926826, 1.0365853, -0.0068818
0.9511719, -0.1723633, -0.1552734, -13.3536587, -8.841464, 0.8536586, -0.0082246
0.9614258, -0.1826172, -0.1611328, -13.841464, -9.0243902, 0.7317073, -0.0105745
0.972168, -0.1845703, -0.1625977, -13.2317076, -8.9634151, 1.2804878, -0.0218204
0.9838867, -0.1870117, -0.1660156, -13.0487804, -8.4756098, 0.9146342, -0.0273594
0.9902344, -0.1860352, -0.1621094, -12.560976, -7.6219516, 1.097561, -0.0283665
0.9873047, -0.1865234, -0.1591797, -12.3780489, -7.0731707, 1.1585366, -0.0350805
0.9897461, -0.1884766, -0.1552734, -12.6829271, -6.5853658, 1.5243902, -0.0441444
0.9833984, -0.1860352, -0.1503906, -12.560976, -6.7073174, 1.7682927, -0.0471656
0.9785156, -0.1806641, -0.1455078, -12.2560978, -7.1951222, 2.3170731, -0.047837
0.972168, -0.1826172, -0.1494141, -12.2560978, -7.0731707, 2.2560976, -0.0453193
0.9667969, -0.1738281, -0.1708984, -12.1341467, -6.7682929, 1.9512196, -0.0404517
0.9663086, -0.175293, -0.1845703, -12.3780489, -6.6463418, 1.8292683, -0.0411231
0.9707031, -0.1767578, -0.2070312, -12.3780489, -6.4024391, 1.8292683, -0.0498512
0.9804688, -0.1816406, -0.2099609, -12.8658543, -6.1585369, 2.1341465, -0.0518654
0.9956055, -0.1801758, -0.199707, -12.3780489, -5.4268293, 2.4390244, -0.0493477
1.0009766, -0.1772461, -0.1875, -11.341464, -4.5121951, 2.3780489, -0.0448157
1.0039062, -0.1708984, -0.1567383, -10.1829271, -2.9878049, 2.3780489, -0.0464942
1.0004883, -0.1669922, -0.1455078, -9.4512196, -1.7073171, 2.4390244, -0.0505226
0.9838867, -0.1601562, -0.1376953, -9.4512196, -1.097561, 2.9268293, -0.0449836
0.9785156, -0.1621094, -0.1347656, -10.2439022, -2.0731707, 2.5609756, -0.04448
0.9824219, -0.1660156, -0.1459961, -10.8536587, -3.1097562, 2.5, -0.0501869
0.996582, -0.1884766, -0.1713867, -12.1341467, -4.2682929, 2.3170731, -0.0525368
1.0048828, -0.2070312, -0.1845703, -12.6829271, -5.2439027, 1.8902439, -0.054551
1.0283203, -0.237793, -0.2016602, -12.6829271, -5.5487804, 1.2804878, -0.0607614
1.0371094, -0.253418, -0.1958008, -11.8902445, -5.609756, 0.8536586, -0.0585794
1.0424805, -0.2675781, -0.1772461, -10.3658543, -4.7560978, 0.3048781, -0.0565652
1.0322266, -0.2729492, -0.1582031, -8.780488, -3.6585367, -0.1829268, -0.0535439
0.9936523, -0.2695312, -0.1030273, -7.2560978, -2.9878049, -0.2439024, -0.0515297
0.9707031, -0.2587891, -0.0722656, -6.4024391, -2.8658538, -0.3048781, -0.0411231
0.9272461, -0.2368164, -0.0292969, -5.9756098, -4.5731707, -0.8536586, -0.0293736
0.90625, -0.2226562, -0.0107422, -5.4878049, -9.0243902, -1.6463414, -0.0226596
0.8803711, -0.2060547, 0.0097656, -6.280488, -13.841464, -2.804878, -0.0209812
0.8857422, -0.2001953, 0, -7.2560978, -18.6585369, -3.2317073, -0.0328985
0.8935547, -0.1982422, -0.0112305, -8.5365858, -23.1097565, -3.4146342, -0.0491798
0.9331055, -0.2041016, -0.050293, -9.6341467, -27.3780499, -3.5365853, -0.0595865
0.9584961, -0.2050781, -0.0712891, -10.4268293, -30.4268303, -2.9878049, -0.0652934
0.996582, -0.2036133, -0.1044922, -10.7926836, -32.3170738, -2.804878, -0.0652934
1.015625, -0.1943359, -0.1254883, -10.7317076, -32.9878044, -2.5, -0.0619364
1.043457, -0.1674805, -0.1713867, -11.219512, -33.5975609, -2.3170731, -0.0548867
1.0541992, -0.1503906, -0.2011719, -11.8292685, -34.2682953, -1.402439, -0.0493477
1.0664062, -0.1342773, -0.2739258, -13.5365858, -34.0853653, -0.8536586, -0.0458228
1.0708008, -0.1362305, -0.3071289, -17.3780499, -34.2073174, 0.6097561, -0.0421302
1.0722656, -0.1547852, -0.340332, -19.939024, -32.8048782, 1.8292683, -0.0330663
1.0654297, -0.1806641, -0.3354492, -21.7073174, -31.2195129, 3.1707318, -0.0251774
1.0571289, -0.1831055, -0.3232422, -21.9512196, -28.780489, 4.2073174, -0.0263523
1.0307617, -0.1738281, -0.284668, -21.9512196, -26.7073174, 5.2439027, -0.0270237
1.0117188, -0.1665039, -0.2646484, -21.4024391, -24.5121956, 6.1585369, -0.0253452
0.9760742, -0.1391602, -0.2514648, -21.6463413, -23.0487804, 6.7682929, -0.0258488
0.9555664, -0.1313477, -0.2553711, -23.1707325, -22.3780499, 7.3170733, -0.0364233
0.9438477, -0.1352539, -0.2890625, -25.1829281, -22.8658543, 7.4390244, -0.0458228
0.9487305, -0.1523438, -0.3076172, -27.0121956, -23.4756107, 7.3780489, -0.043473
0.9833984, -0.1962891, -0.3144531, -28.3536587, -23.7195129, 7.5609756, -0.0377661
0.9995117, -0.2216797, -0.3056641, -27.9878063, -22.0121956, 8.4756098, -0.0256809
1.0292969, -0.2324219, -0.2685547, -25.5487804, -19.2682934, 8.841464, -0.0377661
1.0351562, -0.2109375, -0.237793, -22.7439022, -16.5853653, 8.780488, -0.0540475
1.0249023, -0.1977539, -0.2265625, -20.1219521, -14.8170738, 8.5365858, -0.0609293
0.9921875, -0.1801758, -0.2148438, -18.9634151, -13.9634151, 8.6585369, -0.0619364
0.9765625, -0.1831055, -0.2124023, -18.7195129, -14.3292685, 9.3902445, -0.0659648
0.9448242, -0.1860352, -0.2133789, -19.6951218, -15.2439032, 10.5487804, -0.0582437
0.9360352, -0.1860352, -0.2197266, -20.7926826, -16.3414631, 11.4634151, -0.064622
0.9233398, -0.1870117, -0.2226562, -21.0365868, -17.3170738, 11.9512196, -0.0686503
0.9238281, -0.1855469, -0.2216797, -20.9146347, -18.7195129, 11.7073174, -0.0592508
0.9277344, -0.190918, -0.2167969, -20.7317085, -20.8536587, 11.0365858, -0.04448
0.9355469, -0.2001953, -0.2045898, -21.4634151, -23.2926826, 10.8536587, -0.021149
0.9370117, -0.2148438, -0.1870117, -21.7682934, -24.5731716, 10.9146347, -0.0099031
0.9384766, -0.2270508, -0.1821289, -21.5853672, -25.8536587, 10.8536587, -0.0102388
0.9394531, -0.2314453, -0.1860352, -21.5853672, -27.0121956, 10.4878054, -0.0092317
0.9326172, -0.2348633, -0.2148438, -21.3414631, -28.780489, 10.2439022, 0.0018463
0.9321289, -0.2333984, -0.2255859, -20.7317085, -30.3658543, 10.4268293, -0.0015106
0.9526367, -0.2353516, -0.2304688, -20.2439022, -32.8048782, 10.3658543, -0.0112459
0.9628906, -0.2436523, -0.2197266, -18.6585369, -34.7560997, 10.1219511, -0.0243381
0.9824219, -0.246582, -0.1835938, -17.0731716, -36.4634171, 9.3292685, -0.0219883
0.9863281, -0.2480469, -0.171875, -16.0975609, -37.8048782, 8.2317076, -0.0072175
0.9663086, -0.2578125, -0.1708984, -15.8536587, -39.5121956, 7.5, 0.0218204
0.9418945, -0.2583008, -0.1962891, -17.8658543, -41.8902435, 7.1341467, 0.0323949
0.8930664, -0.25, -0.2783203, -20, -44.4512215, 8.2926826, 0.023331
0.8774414, -0.2387695, -0.3349609, -21.5243912, -47.0121956, 10.1829271, 0.0159457
0.8916016, -0.2333984, -0.3383789, -21.5243912, -49.3902435, 12.0731707, -0.0001678
0.9477539, -0.2250977, -0.3256836, -20.4268303, -50.7317085, 12.560976, -0.0048676
0.9765625, -0.2255859, -0.3198242, -19.2073174, -50.6097565, 11.7073174, -0.0001678
1.0151367, -0.2456055, -0.3271484, -18.8414631, -49.2682953, 10.1219511, 0.0058747
1.0141602, -0.2509766, -0.3408203, -20.1219521, -47.9878044, 9.4512196, 0.0087282
0.9975586, -0.2583008, -0.3608398, -21.4634151, -47.9878044, 9.6951218, -0.0015106
0.9848633, -0.2592773, -0.3637695, -22.0731716, -48.7804871, 10.6707315, -0.0142672
0.9746094, -0.2348633, -0.3598633, -20.9146347, -49.3292694, 12.6829271, -0.0276951
0.9770508, -0.2172852, -0.3588867, -19.6341476, -49.8780518, 13.6585369, -0.0270237
0.9731445, -0.1762695, -0.3623047, -19.2682934, -50.1829262, 13.7195129, -0.0137636
0.972168, -0.1591797, -0.3774414, -19.7560978, -50.2439041, 13.7195129, 0.0065461
0.9702148, -0.1542969, -0.3740234, -21.5853672, -50.7926826, 13.6585369, 0.0199741
0.9755859, -0.1621094, -0.3544922, -23.8414631, -51.5243912, 13.9634151, 0.0253452
0.9775391, -0.175293, -0.3388672, -26.7073174, -52.8658562, 14.1463413, 0.023331
0.9833984, -0.1992188, -0.300293, -27.9878063, -54.3292694, 14.3292685, 0.0223239
0.984375, -0.2177734, -0.2880859, -29.5121956, -55.9756126, 14.3292685, 0.0307164
0.9833984, -0.2558594, -0.2788086, -30.1219521, -57.9878044, 13.7195129, 0.0387732
0.9799805, -0.2734375, -0.2861328, -30.6097565, -60.4268303, 13.2317076, 0.0414588
0.9731445, -0.3100586, -0.3256836, -30.6097565, -63.1097565, 12.9268293, 0.043473
0.9648438, -0.3237305, -0.3481445, -29.7560978, -64.1463394, 13.2926836, 0.0438087
0.9726562, -0.3271484, -0.3886719, -27.8658543, -64.2073212, 13.4146347, 0.0475013
0.9892578, -0.2915039, -0.4013672, -26.0365868, -63.4756126, 13.4756098, 0.0352483
1, -0.2651367, -0.4023438, -24.0243912, -62.8658562, 13.3536587, 0.0250095
1.0185547, -0.2041016, -0.3818359, -22.9878063, -62.2560997, 13.2317076, 0.0199741
1.0288086, -0.1816406, -0.3720703, -23.2317085, -62.68293, 12.8048782, 0.0176242
1.0253906, -0.1699219, -0.3569336, -24.7560978, -63.9024391, 11.7073174, 0.0132601
1.0200195, -0.1743164, -0.3564453, -26.9512196, -65.4268341, 10.9146347, 0.0065461
0.987793, -0.1992188, -0.375, -29.0243912, -67.0121994, 10.5487804, 0.0045319
0.96875, -0.215332, -0.3886719, -30, -67.8658524, 10.6707315, 0.0028534
0.9375, -0.2358398, -0.4145508, -29.7560978, -67.68293, 11.7682934, -0.0031891
0.9316406, -0.2431641, -0.4243164, -28.3536587, -67.7439041, 12.9268293, -0.0109102
0.9296875, -0.2416992, -0.4291992, -27.560976, -67.3170776, 14.0853662, -0.018967
0.9418945, -0.2167969, -0.4282227, -26.7073174, -66.8902435, 15.060976, -0.0256809
0.9511719, -0.2041016, -0.4233398, -27.0121956, -66.4634171, 15.8536587, -0.0303807
0.9672852, -0.171875, -0.434082, -28.3536587, -66.4634171, 16.280489, -0.0323949
0.9697266, -0.1601562, -0.4570312, -29.9390259, -66.6463394, 16.7073174, -0.0317235
0.9790039, -0.1474609, -0.4951172, -32.5609779, -67.3170776, 17.0731716, -0.0320592
0.9902344, -0.1479492, -0.5087891, -34.9390259, -67.9268341, 18.2317085, -0.0340734
1.0058594, -0.1577148, -0.5185547, -37.5, -68.2317123, 19.0853672, -0.0350805
1.0107422, -0.1669922, -0.5126953, -39.6951218, -67.6219559, 20, -0.0337377
1.0161133, -0.1875, -0.4926758, -41.0975609, -66.6463394, 21.4634151, -0.0323949
1.0136719, -0.1962891, -0.4780273, -42.1951218, -66.4024429, 21.7682934, -0.0357519
0.9863281, -0.2177734, -0.456543, -42.5, -66.5243912, 22.0731716, -0.0290379
0.9619141, -0.2392578, -0.4296875, -43.2926826, -66.8902435, 22.3780499, -0.0236667
0.9516602, -0.2475586, -0.418457, -43.7804871, -67.8048782, 22.1341476, -0.0270237
0.9438477, -0.2573242, -0.4072266, -43.7804871, -69.3902435, 22.6829281, -0.0256809
0.9428711, -0.2612305, -0.4047852, -43.7804871, -70.9146347, 22.8048782, -0.0276951
0.9458008, -0.2529297, -0.4204102, -43.4146347, -72.2560959, 22.9878063, -0.0307164
0.9516602, -0.2519531, -0.4389648, -43.2317085, -73.0487823, 23.2926826, -0.0327306
0.9663086, -0.2456055, -0.4648438, -43.2317085, -73.4146347, 23.4756107, -0.0350805
0.9775391, -0.25, -0.4716797, -43.3536606, -73.1707306, 24.0853672, -0.0354162
1.003418, -0.2441406, -0.4584961, -43.9024391, -72.8658524, 23.780489, -0.0384375
1.0048828, -0.2470703, -0.4443359, -44.7560997, -72.9878082, 23.7195129, -0.0399481
0.9956055, -0.2519531, -0.4389648, -45.4878044, -73.7804871, 23.4146347, -0.0370947
0.9692383, -0.2626953, -0.4306641, -46.4024391, -74.9390259, 23.4146347, -0.040116
0.9594727, -0.2641602, -0.4213867, -46.8902435, -76.646347, 23.5365868, -0.0374304
0.9433594, -0.2724609, -0.4179688, -46.5243912, -78.1707306, 23.5365868, -0.0431373
0.9423828, -0.2768555, -0.4257812, -46.4634171, -79.6341476, 23.5365868, -0.0547189
0.9443359, -0.2871094, -0.4648438, -45.6097565, -80.9756088, 23.4756107, -0.0694896
0.9506836, -0.293457, -0.4951172, -44.8780479, -81.3414688, 23.0487804, -0.0847639
0.9775391, -0.2983398, -0.5341797, -44.0243912, -81.8902435, 22.2560978, -0.0881209
0.9892578, -0.2993164, -0.5297852, -43.3536606, -81.2804871, 21.6463413, -0.0762036
1.0200195, -0.3017578, -0.4799805, -42.1951218, -80.6707306, 20.6707325, -0.0669718
1.0205078, -0.3061523, -0.4379883, -41.0975609, -80.7317123, 20.060976, -0.0565652
1.0014648, -0.3022461, -0.4306641, -40.6097565, -81.5853653, 19.6341476, -0.0528725
0.9580078, -0.2910156, -0.4311523, -40.1829262, -83.7195129, 19.3292694, -0.0438087
0.934082, -0.2885742, -0.440918, -39.8780479, -85.8536606, 19.4512196, -0.0290379
0.9135742, -0.2827148, -0.4711914, -39.9390259, -88.4756088, 19.8170738, -0.0540475
0.9121094, -0.2807617, -0.4897461, -40.4268303, -90.1219559, 20.3048782, -0.0991989
0.9375, -0.2866211, -0.5131836, -40.4268303, -91.2195129, 20.6097565, -0.1290761
0.9511719, -0.2895508, -0.519043, -40.3658562, -91.8292694, 20.3658543, -0.145861
0.9760742, -0.300293, -0.5078125, -39.5731735, -92.5609741, 19.3292694, -0.1431754
0.9819336, -0.296875, -0.4990234, -38.9634171, -92.9268341, 18.5365849, -0.1317617
0.9765625, -0.2807617, -0.5068359, -38.1707344, -93.2317123, 18.5365849, -0.0881209
0.9526367, -0.2480469, -0.5341797, -38.5365868, -93.6585388, 19.1463413, -0.0332341
0.9443359, -0.2338867, -0.5571289, -39.5731735, -94.146347, 20.9146347, 0.0105745
0.9467773, -0.2036133, -0.5883789, -40.8536606, -95.0609741, 22.3170738, 0.0535439
0.9575195, -0.1972656, -0.5957031, -42.5, -95.2439041, 22.8048782, 0.0904707
0.984375, -0.2089844, -0.6201172, -44.8170738, -95.1219559, 22.560976, 0.1225299
0.9946289, -0.2211914, -0.6323242, -47.5, -95.1219559, 22.1951218, 0.1374685
1.0043945, -0.2685547, -0.6376953, -50.1829262, -95.4268341, 21.8292694, 0.1374685
1.0043945, -0.2954102, -0.6259766, -52.0731735, -95.9146347, 22.0731716, 0.131426
0.9951172, -0.328125, -0.5839844, -51.5853653, -96.2804871, 22.7439022, 0.1132982
0.9897461, -0.3339844, -0.5639648, -49.4512215, -96.0365906, 23.5365868, 0.0978561
0.9677734, -0.3217773, -0.5405273, -46.8292694, -95.9756088, 24.6341476, 0.079057
0.9399414, -0.2788086, -0.5493164, -45.4878044, -96.5853653, 25.4878063, 0.0605936
0.9316406, -0.25, -0.5527344, -45.9756126, -97.6219559, 26.4634151, 0.040116
0.9360352, -0.2055664, -0.5532227, -47.1341476, -99.4512253, 26.5853672, 0.0280308
0.9467773, -0.1977539, -0.5566406, -48.5365868, -101.8292694, 26.1585369, 0.0105745
0.9570312, -0.2143555, -0.5727539, -50.6707344, -103.7804871, 25.4878063, 0.0018463
0.9584961, -0.2280273, -0.5810547, -52.5609779, -105, 25.1829281, -0.0041962
0.9477539, -0.2734375, -0.5859375, -53.841465, -106.0975647, 25.060976, -0.0028534
0.9482422, -0.293457, -0.5756836, -54.0243912, -106.8292694, 25.2439022, -0.0117494
0.9448242, -0.3183594, -0.5449219, -53.6585388, -107.6219559, 24.9390259, -0.01561
0.9399414, -0.3330078, -0.5307617, -51.7682953, -108.7804871, 24.8170738, -0.0216526
0.9189453, -0.3359375, -0.5361328, -50.4878044, -110.18293, 24.3292694, -0.0310521
0.9042969, -0.3261719, -0.5678711, -49.3902435, -112.1341476, 23.6585369, -0.0332341
0.8989258, -0.3212891, -0.5883789, -48.4756126, -113.9024429, 23.1707325, -0.0431373
0.9140625, -0.3237305, -0.6240234, -48.1707344, -115.7317123, 22.9268303, -0.0515297
0.925293, -0.3256836, -0.6352539, -48.4146347, -116.5853653, 22.6219521, -0.0498512
0.9570312, -0.328125, -0.644043, -48.1097565, -116.7073212, 22.0731716, -0.0485084
0.9643555, -0.3251953, -0.6464844, -47.6219521, -116.7682953, 21.5853672, -0.0404517
0.9746094, -0.3198242, -0.6674805, -47.0121956, -116.3414688, 20.9756107, -0.0364233
0.9702148, -0.3188477, -0.6884766, -46.5853653, -115.9756088, 20.7317085, -0.0384375
0.9580078, -0.3129883, -0.6987305, -46.7682953, -115.7317123, 20.7317085, -0.0397803
0.9467773, -0.3110352, -0.6982422, -47.3780518, -115.6097565, 21.5853672, -0.047837
0.9248047, -0.2773438, -0.6904297, -47.2560997, -114.5731735, 22.5, -0.0575723
0.9101562, -0.2426758, -0.7036133, -47.0121956, -114.2073212, 22.8048782, -0.068986
0.9091797, -0.2373047, -0.7124023, -47.1951218, -114.6951218, 23.1707325, -0.0780499
0.9243164, -0.2602539, -0.7158203, -48.3536606, -115.9756088, 23.2926826, -0.0800641
0.9345703, -0.2817383, -0.706543, -49.5121956, -117.3780518, 23.3536587, -0.0981918
0.949707, -0.3120117, -0.6777344, -50.5487823, -118.1097565, 23.0487804, -0.1183337
0.9458008, -0.3232422, -0.6704102, -50.1829262, -118.1097565, 22.8048782, -0.1272297
0.925293, -0.3237305, -0.6821289, -49.2073174, -118.5365906, 22.6219521, -0.1324331
0.9135742, -0.3154297, -0.7001953, -48.2317085, -119.146347, 22.3780499, -0.1173266
0.8984375, -0.2983398, -0.7368164, -47.7439041, -120.4268341, 22.6829281, -0.1003738
0.8984375, -0.2929688, -0.7553711, -48.5365868, -121.3414688, 22.9878063, -0.085771
0.9150391, -0.3027344, -0.7529297, -49.0243912, -121.2804871, 22.9878063, -0.0834211
0.9355469, -0.3203125, -0.7387695, -49.5731735, -121.4024429, 22.7439022, -0.0787213
0.9335938, -0.3300781, -0.7426758, -49.3292694, -121.646347, 22.5, -0.0837568
0.9213867, -0.3413086, -0.7387695, -48.5975609, -121.7073212, 22.3780499, -0.1089342
0.9101562, -0.3442383, -0.7324219, -47.9268303, -122.1951218, 22.8048782, -0.1005417
0.894043, -0.3217773, -0.7167969, -46.341465, -122.4390259, 23.1707325, -0.064622
0.8881836, -0.3061523, -0.7138672, -45.1829262, -122.6219559, 23.1707325, -0.0313878
0.8710938, -0.2661133, -0.7192383, -44.3902435, -123.0487823, 23.0487804, 0.0196384
0.8608398, -0.2451172, -0.7255859, -44.5121956, -124.2682953, 22.8048782, 0.0740215
0.8505859, -0.2338867, -0.7568359, -45.8536606, -125.8536606, 22.6829281, 0.1028916
0.8452148, -0.2338867, -0.7744141, -47.5, -128.2926788, 23.4756107, 0.1149767
0.8486328, -0.2529297, -0.8017578, -49.1463432, -129.2682953, 24.3292694, 0.1132982
0.8608398, -0.2792969, -0.8100586, -50.0609779, -129.4512177, 24.8780499, 0.1082628
0.8701172, -0.2963867, -0.8046875, -49.7560997, -128.9024353, 25.060976, 0.1065843
0.8764648, -0.328125, -0.7773438, -49.1463432, -127.9878082, 24.9390259, 0.0983597
0.875, -0.3344727, -0.7583008, -48.0487823, -127.9878082, 24.6341476, 0.0840925
0.8554688, -0.3291016, -0.7265625, -46.9512215, -128.0487823, 24.0853672, 0.061265
0.8369141, -0.3261719, -0.7241211, -45.4878044, -128.9634247, 22.8658543, 0.0466621
0.7871094, -0.3183594, -0.7651367, -44.7560997, -130.5487823, 21.8292694, 0.0394446
0.769043, -0.315918, -0.800293, -44.6341476, -132.6829224, 21.6463413, 0.0099031
0.7592773, -0.3071289, -0.8686523, -44.8170738, -134.0243988, 22.3170738, -0.0256809
0.7739258, -0.2998047, -0.887207, -45, -134.6951294, 23.1707325, -0.0501869
0.8286133, -0.2924805, -0.8647461, -45.1829262, -133.7195129, 23.3536587, -0.0642863
0.8671875, -0.2944336, -0.8388672, -44.8780479, -132.0731812, 22.9878063, -0.0686503
0.8735352, -0.2954102, -0.8291016, -44.4512215, -130.6707306, 22.8048782, -0.0626078
0.8510742, -0.2709961, -0.8334961, -44.0243912, -130.1219482, 22.3780499, -0.0491798
0.8300781, -0.2568359, -0.8466797, -43.7804871, -130.2439117, 22.1951218, -0.0377661
0.8022461, -0.2480469, -0.859375, -43.7804871, -131.2804871, 22.2560978, -0.0263523
0.7958984, -0.2602539, -0.8608398, -44.4512215, -132.3170776, 22.6829281, -0.0125887
0.777832, -0.3032227, -0.8535156, -45.9756126, -132.6219482, 22.9878063, -0.0095674
0.7719727, -0.3198242, -0.8491211, -46.4634171, -132.7439117, 22.9268303, -0.008896
0.7436523, -0.3300781, -0.8544922, -45.7926826, -133.0487823, 22.9878063, -0.0159457
0.7338867, -0.3188477, -0.8530273, -42.9268303, -132.86586, 23.2926826, -0.0256809
0.734375, -0.2558594, -0.8540039, -40.9146347, -132.6219482, 23.2317085, -0.0325628
0.7338867, -0.2084961, -0.8769531, -40.2439041, -131.5853729, 23.1097565, -0.0370947
0.7392578, -0.2016602, -0.9082031, -41.8292694, -131.8292694, 22.8658543, -0.0431373
0.7519531, -0.2231445, -0.956543, -45.0609779, -132.8048859, 24.0853672, -0.047837
0.769043, -0.253418, -0.9506836, -48.4146347, -134.146347, 25.1219521, -0.0451514
0.8061523, -0.3173828, -0.8823242, -49.5731735, -134.9390259, 25.7926826, -0.0297093
0.8144531, -0.3461914, -0.8364258, -48.7804871, -134.4512177, 25.1219521, -0.0099031
0.7910156, -0.3652344, -0.7768555, -46.0365868, -133.1097565, 23.4146347, 0.0045319
0.7495117, -0.3554688, -0.7758789, -42.6219521, -132.86586, 21.5853672, 0.0219883
0.6577148, -0.315918, -0.8344727, -39.5121956, -134.5121918, 21.0365868, 0.036759
0.6240234, -0.2866211, -0.8789062, -38.5365868, -138.7804871, 21.5243912, 0.043473
0.6162109, -0.2612305, -0.9462891, -39.3292694, -141.2804871, 22.3170738, 0.0441444
0.6762695, -0.2744141, -0.956543, -40.9756088, -142.2561035, 23.5365868, 0.0397803
0.7089844, -0.2827148, -0.9428711, -41.4634171, -141.7682953, 24.0243912, 0.0226596
0.7724609, -0.2807617, -0.9091797, -41.1585388, -141.4634247, 23.7195129, 0.0043641
0.7915039, -0.269043, -0.8930664, -41.4024391, -139.5731812, 23.4146347, -0.0085603
0.7714844, -0.2509766, -0.8999023, -42.5, -136.5243988, 22.8658543, -0.0236667
0.7460938, -0.2490234, -0.9111328, -43.4146347, -136.1585388, 22.3170738, -0.0318914
0.6962891, -0.2563477, -0.9291992, -43.4756126, -137.9268341, 22.7439022, -0.0370947
0.6767578, -0.2685547, -0.9311523, -43.0487823, -140.6707306, 23.6585369, -0.0417945
0.6704102, -0.2900391, -0.9135742, -41.8292694, -141.2804871, 24.9390259, -0.0458228
0.6748047, -0.2939453, -0.9125977, -40.3048782, -139.7561035, 25.3658543, -0.0464942
0.6733398, -0.277832, -0.9238281, -39.8170738, -139.4512177, 24.8780499, -0.0525368
0.675293, -0.2441406, -0.9345703, -39.2073174, -139.8170776, 24.1463413, -0.0599222
0.671875, -0.2304688, -0.9365234, -39.2073174, -140.6097565, 24.2073174, -0.0681468
0.6689453, -0.2099609, -0.9560547, -39.8780479, -141.3414612, 24.5121956, -0.0659648
0.675293, -0.2099609, -0.965332, -41.0365868, -142.1951294, 24.9390259, -0.0572366
0.6850586, -0.2382812, -0.9941406, -42.1341476, -142.5609741, 25.6097565, -0.0481727
0.6948242, -0.2607422, -1.0068359, -43.5365868, -143.1097565, 26.7073174, -0.0407874
0.7177734, -0.3056641, -1.0131836, -43.5365868, -143.1707306, 27.4390259, -0.0397803
0.730957, -0.315918, -1, -42.6829262, -142.6219482, 27.6829281, -0.0417945
0.7456055, -0.3330078, -0.9580078, -40.3048782, -139.9390259, 25.7926826, -0.0461585
0.7304688, -0.3310547, -0.9306641, -38.3536606, -137.6219482, 24.3292694, -0.0491798
0.6806641, -0.3027344, -0.9008789, -36.7073174, -137.0121918, 22.3780499, -0.0431373
0.6132812, -0.2661133, -0.9189453, -35.3048782, -138.0487823, 21.280489, -0.0391089
0.5854492, -0.2539062, -0.9375, -34.5731697, -140.3048859, 21.2195129, -0.0320592
0.5610352, -0.2416992, -0.9682617, -34.0853653, -142.4390259, 21.9512196, -0.0323949
0.5751953, -0.2460938, -0.9736328, -34.8170738, -143.7804871, 23.1097565, -0.0540475
0.6176758, -0.2695312, -0.9692383, -35.1219521, -143.9634247, 23.4756107, -0.082414
0.6352539, -0.2880859, -0.9599609, -35.3658562, -143.3536682, 23.780489, -0.0971847
0.6386719, -0.3071289, -0.9677734, -34.3292694, -142.5609741, 23.8414631, -0.0928206
0.6337891, -0.3056641, -0.9848633, -32.8658562, -142.6219482, 23.5975609, -0.0780499
0.6191406, -0.2651367, -1.0180664, -30.8536587, -142.5, 23.780489, -0.0614328
0.6176758, -0.2397461, -1.0292969, -30.6707325, -141.0365906, 23.9024391, -0.0431373
0.6162109, -0.1777344, -1.0214844, -31.4634151, -139.7561035, 24.0243912, -0.0146029
0.6274414, -0.1494141, -0.9892578, -32.6829262, -138.1097565, 23.9634151, 0.0072175
0.6225586, -0.1577148, -0.9799805, -34.6951218, -137.6829376, 23.8414631, 0.0172885
0.6020508, -0.2075195, -0.9892578, -36.4634171, -138.3536682, 24.3902435, 0.0186313
0.5893555, -0.234375, -1.003418, -37.6219521, -140.1829376, 25.3048782, 0.0137636
0.5737305, -0.277832, -1.0249023, -37.9268303, -141.7073212, 26.4634151, 0.0045319
0.5722656, -0.2861328, -1.0322266, -36.5853653, -142.0731812, 26.9512196, -0.0132601
0.5751953, -0.2861328, -1.0283203, -35.0609779, -141.0365906, 27.2560978, -0.0720073
0.5756836, -0.2729492, -1.0146484, -33.6585388, -138.8414612, 26.4024391, -0.1216907
0.5722656, -0.2382812, -0.9833984, -33.1707306, -137.0121918, 24.8780499, -0.1414969
0.5629883, -0.2241211, -0.9599609, -33.841465, -137.3170776, 23.5365868, -0.1310903
0.5463867, -0.222168, -0.9160156, -34.0853653, -138.7804871, 22.6829281, -0.085771
0.503418, -0.2573242, -0.9223633, -34.1463432, -140.7926788, 22.3780499, -0.0203098
0.480957, -0.2802734, -0.9511719, -33.2926826, -142.5609741, 22.439024, 0.0345769
0.4589844, -0.2983398, -1.0292969, -31.7073174, -144.3292694, 23.4146347, 0.0817426
0.4624023, -0.2963867, -1.0566406, -28.7195129, -144.8780518, 24.4512196, 0.1085985
0.5126953, -0.2661133, -1.0673828, -26.9512196, -143.7195129, 25, 0.1139696
0.5415039, -0.2392578, -1.0454102, -25.9146347, -140.6097565, 24.2073174, 0.0981918
0.5698242, -0.1943359, -0.9970703, -26.2195129, -136.7073212, 21.8902435, 0.0693217
0.5625, -0.1796875, -0.9741211, -27.9268303, -134.8780518, 20.1219521, 0.0387732
0.5043945, -0.1748047, -0.9418945, -29.8780499, -136.8292694, 18.8414631, 0.0052033
0.4726562, -0.1767578, -0.9433594, -30.7926846, -139.8170776, 19.7560978, -0.0129244
0.4155273, -0.203125, -0.9912109, -31.280489, -142.3780518, 21.4634151, -0.0068818
0.4023438, -0.2451172, -1.0810547, -30.1829281, -144.0853729, 23.4756107, 0.0186313
0.4165039, -0.2597656, -1.1166992, -30.1829281, -144.6341553, 25.3048782, 0.0498512
0.472168, -0.2714844, -1.1323242, -30.1829281, -143.2317047, 26.4634151, 0.076875
0.5029297, -0.2612305, -1.1074219, -29.3902454, -139.6951294, 26.0365868, 0.0864424
0.546875, -0.2148438, -1.0297852, -28.841465, -135.3048859, 24.2073174, 0.0815747
0.5473633, -0.1894531, -0.9916992, -28.6585369, -132.1341553, 22.1341476, 0.0683146
0.487793, -0.1772461, -0.956543, -28.841465, -131.8902435, 20.5487804, 0.0451514
0.4433594, -0.1865234, -0.9482422, -29.6951218, -134.3902435, 20.9756107, 0.0253452
0.3789062, -0.2045898, -0.9663086, -29.7560978, -138.6585388, 22.439024, 0.0129244
0.3461914, -0.2163086, -1.0249023, -29.0243912, -140.9146423, 23.4756107, -0.0035248
0.3417969, -0.2177734, -1.0629883, -27.9268303, -141.0365906, 24.5121956, -0.0198062
0.3652344, -0.2167969, -1.1000977, -27.0731716, -140.5487823, 25.1829281, -0.0330663
0.3969727, -0.2133789, -1.0966797, -27.1341476, -139.2682953, 25.8536587, -0.0419623
0.4521484, -0.2001953, -1.0424805, -27.4390259, -136.4634247, 26.0365868, -0.0500191
0.4619141, -0.1894531, -1.0180664, -27.560976, -133.4146423, 24.9390259, -0.0501869
0.4360352, -0.1694336, -1.0112305, -27.6829281, -131.8902435, 24.1463413, -0.0527047
0.4145508, -0.1669922, -1.0146484, -27.9268303, -133.1097565, 23.9634151, -0.0506905
0.3774414, -0.1884766, -1.0297852, -28.7195129, -135.1829224, 24.2682934, -0.0464942
0.3642578, -0.2050781, -1.043457, -29.8170738, -136.7073212, 25.4268303, -0.0391089
0.3413086, -0.2353516, -1.0771484, -30.6097565, -136.1585388, 25.9756107, -0.0397803
0.3417969, -0.2285156, -1.097168, -30.1219521, -135.6707306, 26.1585369, -0.0381018
0.3554688, -0.2148438, -1.0883789, -29.2073174, -135, 25.3658543, -0.0394446
0.3862305, -0.1835938, -1.0395508, -28.5975609, -133.9024353, 24.7560978, -0.047837
0.3994141, -0.1757812, -1.0087891, -28.9634151, -132.6219482, 23.8414631, -0.0569009
0.3881836, -0.1831055, -0.9731445, -30.060976, -131.646347, 22.9268303, -0.0639506
0.3618164, -0.1928711, -0.9736328, -30.1219521, -132.2561035, 22.8658543, -0.0748608
0.3149414, -0.2192383, -1.0068359, -29.3902454, -134.5121918, 23.0487804, -0.073518
0.296875, -0.2358398, -1.0283203, -27.6219521, -137.0731812, 23.4146347, -0.0659648
0.2949219, -0.2631836, -1.0683594, -25.6097565, -137.9268341, 23.9634151, -0.061265
0.3027344, -0.2724609, -1.0810547, -24.3292694, -136.4634247, 23.7195129, -0.0498512
0.3286133, -0.2626953, -1.0668945, -22.8658543, -133.3536682, 22.439024, -0.0360876
0.3276367, -0.237793, -1.03125, -21.8292694, -131.9512177, 21.0975609, -0.0256809
0.3212891, -0.2192383, -1.0244141, -20.9146347, -132.0121918, 19.6951218, -0.0176242
0.2988281, -0.1860352, -1.0268555, -20.5487804, -132.9268341, 19.0853672, -0.023331
0.2871094, -0.1791992, -1.0444336, -21.0975609, -134.6951294, 18.9024391, -0.0486763
0.2763672, -0.1894531, -1.0761719, -22.1951218, -136.0365906, 20.060976, -0.0740215
0.2783203, -0.2041016, -1.081543, -22.9878063, -136.8292694, 21.2195129, -0.0820783
0.284668, -0.2246094, -1.0795898, -22.5, -136.1585388, 21.8902435, -0.090135
0.2880859, -0.2275391, -1.0766602, -21.2195129, -133.7804871, 22.1951218, -0.0822461
0.2797852, -0.2270508, -1.0761719, -19.0853672, -131.8292694, 22.3780499, -0.0642863
0.2739258, -0.2143555, -1.074707, -17.8048782, -130.3048859, 22.3170738, -0.0377661
0.2680664, -0.1621094, -1.0625, -17.9878044, -129.6951294, 21.1585369, -0.0206455
0.2514648, -0.1064453, -1.0581055, -19.5121956, -129.7561035, 19.7560978, -0.0159457
0.2407227, -0.090332, -1.0546875, -22.0121956, -130.8536682, 19.7560978, -0.0102388
0.2246094, -0.1015625, -1.046875, -25, -132.3780518, 20.2439022, -0.0162814
0.2211914, -0.1166992, -1.0385742, -27.4390259, -133.9634247, 21.5853672, -0.0169528
0.21875, -0.1635742, -1.0385742, -29.0853672, -134.8170776, 22.8048782, -0.0082246
0.2148438, -0.1826172, -1.0585938, -29.0243912, -134.8780518, 23.8414631, -0.0028534
0.1953125, -0.2075195, -1.0922852, -28.4756107, -134.9390259, 24.5121956, -0.0099031
0.1977539, -0.2114258, -1.090332, -27.0121956, -134.6341553, 25.1829281, -0.0193027
0.21875, -0.2070312, -1.0400391, -25.3658543, -133.2317047, 24.9390259, -0.0223239
0.2207031, -0.2011719, -1.019043, -23.1097565, -129.8170776, 23.0487804, -0.0231632
0.1928711, -0.2041016, -0.9912109, -22.2560978, -128.3536682, 21.5243912, -0.0203098
0.1391602, -0.2119141, -1.0063477, -21.6463413, -129.0853729, 21.2195129, -0.0209812
0.1240234, -0.2148438, -1.0229492, -21.5243912, -131.5853729, 20.9756107, -0.0283665
0.105957, -0.2148438, -1.0532227, -21.280489, -133.7195129, 20.6097565, -0.0219883
0.105957, -0.2167969, -1.0571289, -21.280489, -133.9634247, 20.6707325, -0.0129244
0.1157227, -0.2011719, -1.0634766, -20.9146347, -132.5, 20.2439022, -0.0135958
0.1201172, -0.1904297, -1.0649414, -20.8536587, -131.2195129, 19.8780499, -0.0063783
0.1293945, -0.1743164, -1.0629883, -20.4268303, -131.0365906, 19.8780499, -0.0035248
0.1347656, -0.1762695, -1.0512695, -20.3048782, -131.4024353, 20.3658543, 0.0025177
0.1499023, -0.2011719, -1.0415039, -20.1219521, -131.3414612, 21.0365868, -0.0015106
0.1489258, -0.2255859, -1.0449219, -19.2073174, -130.8536682, 22.0121956, 0.0005035
0.1416016, -0.2539062, -1.074707, -18.1097565, -130.5487823, 22.0731716, 0.0023499
0.1293945, -0.2631836, -1.1152344, -16.5243912, -130.3048859, 21.7073174, -0.003357
0.1313477, -0.2553711, -1.1259766, -15.8536587, -129.4512177, 20.8536587, -0.0045319
0.1352539, -0.2094727, -1.0883789, -15, -127.7439041, 19.6341476, -0.0031891
0.1381836, -0.1821289, -1.0522461, -14.8170738, -125.4268341, 17.7439022, -0.0062104
0.1147461, -0.1181641, -1.0102539, -15.9756098, -123.4146347, 16.0365849, -0.0119173
0.0825195, -0.0947266, -1.0141602, -18.0487804, -123.9024429, 15.1829271, -0.0340734
0.0195312, -0.0874023, -1.0571289, -20.9756107, -127.1341476, 15.7926836, -0.0562295
0.0043945, -0.1069336, -1.0771484, -23.4146347, -131.2195129, 18.3536587, -0.0592508
0.0263672, -0.1591797, -1.0810547, -25.3658543, -133.4756165, 21.5243912, -0.0569009
0.0532227, -0.1831055, -1.0664062, -26.2195129, -132.1951294, 22.8048782, -0.0451514
0.0922852, -0.2001953, -1.015625, -25.1219521, -129.0243988, 21.3414631, -0.0337377
0.0830078, -0.2197266, -0.9560547, -24.1463413, -127.1951218, 19.1463413, -0.017792
0.0556641, -0.2353516, -0.9384766, -23.0487804, -127.2561035, 17.7439022, -0.0095674
-0.0200195, -0.2382812, -0.9560547, -21.8902435, -128.8414612, 17.3170738, -0.0142672
-0.0571289, -0.234375, -0.9985352, -20.2439022, -130.9756165, 17.3780499, -0.0394446
-0.1010742, -0.2075195, -1.1054688, -18.1707325, -133.6585388, 18.4756107, -0.0693217
-0.0932617, -0.1899414, -1.1430664, -16.2195129, -134.9390259, 19.5121956, -0.0971847
-0.0170898, -0.1723633, -1.1367188, -15.8536587, -134.0853729, 19.2682934, -0.1304189
0.0288086, -0.1772461, -1.1083984, -16.1585369, -131.0975647, 18.9024391, -0.1361257
0.0898438, -0.2055664, -1.0390625, -17.6829281, -127.1951218, 18.4756107, -0.1270619
0.0966797, -0.2143555, -1.0161133, -18.780489, -125, 18.1707325, -0.1042344
0.0600586, -0.2163086, -1.0083008, -18.2926826, -126.4634171, 17.5, -0.0599222
0.0014648, -0.1875, -1.0439453, -17.2560978, -128.7804871, 16.6463413, -0.01561
-0.0283203, -0.1723633, -1.0664062, -16.8292694, -129.2682953, 16.280489, 0.0132601
-0.0805664, -0.1396484, -1.1103516, -17.0121956, -128.5365906, 16.8292694, 0.0320592
-0.0849609, -0.1240234, -1.1137695, -18.4146347, -127.3170776, 18.2317085, 0.036759
-0.0839844, -0.1005859, -1.0791016, -20.5487804, -126.2195129, 19.2073174, 0.0253452
-0.0727539, -0.0908203, -1.0566406, -21.8902435, -125.0609818, 19.3902435, -0.0008392
-0.0717773, -0.0869141, -1.0161133, -24.2073174, -124.8170776, 19.5121956, -0.0250095
-0.0756836, -0.0942383, -1.0004883, -26.2195129, -125.9756165, 19.7560978, -0.0471656
-0.0927734, -0.1313477, -0.9833984, -28.5975609, -127.68293, 20.5487804, -0.0605936
-0.0966797, -0.1552734, -0.984375, -30.1829281, -129.9390259, 21.7073174, -0.0475013
-0.1235352, -0.2070312, -1.0224609, -30.6097565, -130.8536682, 22.8048782, -0.012253
-0.1499023, -0.2246094, -1.0834961, -29.9390259, -131.0975647, 24.4512196, 0.0246738
-0.1469727, -0.2197266, -1.0981445, -27.6829281, -130.9756165, 25.4268303, 0.0542153
-0.1103516, -0.1972656, -1.0810547, -25.4878063, -129.3902435, 24.9390259, 0.0616007
-0.0878906, -0.1870117, -1.0517578, -23.9024391, -126.4634171, 22.8048782, 0.0636149
-0.059082, -0.1791992, -0.9638672, -23.780489, -123.4756088, 20.5487804, 0.0518654
-0.0595703, -0.1791992, -0.9238281, -24.5731716, -122.3170776, 18.4756107, 0.0377661
-0.105957, -0.1967773, -0.8666992, -25.3048782, -122.86586, 16.5853653, 0.0206455
-0.140625, -0.203125, -0.8613281, -25.4878063, -125.0609818, 15.2439032, 0.0112459
-0.2241211, -0.1977539, -0.921875, -24.0853672, -127.5609818, 14.2073174, -0.005539
-0.2636719, -0.1879883, -0.9785156, -22.1341476, -131.0365906, 14.2682934, -0.0297093
-0.2924805, -0.168457, -1.0791016, -21.1585369, -133.1097565, 15.3658543, -0.0354162
-0.2270508, -0.1616211, -1.0761719, -21.1585369, -134.4512177, 15.4878054, -0.0377661
-0.1777344, -0.1679688, -1.0302734, -21.8902435, -133.7195129, 15.4268293, -0.0404517
-0.1005859, -0.1767578, -0.9165039, -22.6829281, -130.1829224, 13.5975609, -0.04448
-0.0917969, -0.1713867, -0.8813477, -23.8414631, -126.5853653, 11.5853662, -0.0558938
-0.1416016, -0.1357422, -0.8925781, -24.5731716, -125.5487823, 9.0243902, -0.0656291
-0.1904297, -0.1147461, -0.9418945, -26.0365868, -127.9268341, 8.4756098, -0.0861067
-0.2836914, -0.081543, -1.0649414, -28.0487804, -132.2561035, 10.2439022, -0.1176623
-0.3007812, -0.0742188, -1.09375, -29.2073174, -135.8536682, 13.9634151, -0.1401541
-0.2573242, -0.0854492, -1.0708008, -29.2682934, -136.0975647, 17.5, -0.1420005
-0.2216797, -0.1040039, -1.0351562, -28.841465, -130.0609741, 19.1463413, -0.1347829
-0.1704102, -0.1479492, -0.9794922, -28.5975609, -124.8780518, 18.5975609, -0.1169909
-0.1806641, -0.1875, -0.9697266, -28.0487804, -122.2561035, 17.6829281, -0.0874495
-0.1972656, -0.1967773, -0.9863281, -27.3780499, -122.68293, 17.5, -0.0602579
-0.2314453, -0.1972656, -1.0341797, -26.5243912, -123.7804871, 17.560976, -0.0231632
-0.2392578, -0.1938477, -1.0620117, -25.8536587, -123.5365906, 17.8048782, 0.0031891
-0.2475586, -0.1953125, -1.1040039, -25.3048782, -121.9512253, 18.4756107, 0.0179599
-0.2368164, -0.1904297, -1.1010742, -25.4268303, -119.2682953, 18.5365849, 0.026688
-0.2080078, -0.1826172, -1.0253906, -25.3658543, -115.4268341, 17.6829281, 0.0246738
-0.1977539, -0.1669922, -0.9682617, -24.3902435, -111.4024429, 15.9756098, 0.0297093
-0.2094727, -0.1313477, -0.8496094, -24.5731716, -107.68293, 13.7195129, 0.0290379
-0.2416992, -0.1181641, -0.8154297, -25.1829281, -106.2195129, 10.3658543, 0.0337377
-0.331543, -0.0947266, -0.8100586, -26.4024391, -108.1097565, 10, 0.0313878
-0.425293, -0.1137695, -0.8857422, -27.8048782, -112.2561035, 11.5243902, 0.0240024
-0.4550781, -0.1303711, -0.9326172, -28.5365868, -117.1341476, 14.5731707, 0.0236667
-0.4472656, -0.1625977, -0.9892578, -28.4146347, -120.6707382, 17.6219521, 0.023331
-0.4116211, -0.1772461, -0.9794922, -27.5, -121.5243912, 18.3536587, 0.0226596
-0.3203125, -0.1865234, -0.9121094, -26.4634151, -120.2439041, 17.0121956, 0.0159457
-0.2817383, -0.1899414, -0.8842773, -26.4634151, -117.1341476, 14.0243902, 0.0085603
-0.2705078, -0.1635742, -0.8925781, -27.7439022, -114.3902435, 11.7682934, -0.0001678
-0.2944336, -0.1376953, -0.9189453, -29.3902454, -114.2682953, 11.341464, -0.0099031
-0.3310547, -0.0795898, -0.9487305, -31.4634151, -116.8902435, 12.9268293, -0.018967
-0.3325195, -0.0541992, -0.9375, -31.8292694, -117.86586, 14.0243902, -0.0270237
-0.3208008, -0.0390625, -0.9116211, -32.7439041, -115.7926865, 13.9024391, -0.0377661
-0.3305664, -0.078125, -0.9047852, -34.9390259, -113.3536606, 14.4512196, -0.0424659
-0.3442383, -0.1142578, -0.90625, -37.0731697, -112.9268341, 15.9146347, -0.0414588
-0.3574219, -0.1811523, -0.909668, -38.0487823, -114.7561035, 17.6829281, -0.0344091
-0.3530273, -0.1958008, -0.9155273, -37.6829262, -116.4024429, 17.9268303, -0.0317235
-0.3574219, -0.1875, -0.9707031, -36.2195129, -116.3414688, 17.6219521, -0.026688
-0.3613281, -0.1728516, -1.0126953, -34.3292694, -114.8170776, 17.2560978, -0.030045
-0.3515625, -0.1396484, -1.0537109, -33.1097565, -113.6585388, 17.8658543, -0.0364233
-0.331543, -0.1235352, -1.0366211, -32.3780479, -111.4024429, 18.7195129, -0.0741894
-0.2792969, -0.1049805, -0.9394531, -33.1707306, -105.18293, 18.5975609, -0.1337758
-0.2661133, -0.0947266, -0.8999023, -34.3902435, -99.9390259, 17.3780499, -0.1681849
-0.2973633, -0.0786133, -0.875, -36.341465, -96.5853653, 16.0975609, -0.1822843
-0.3701172, -0.0776367, -0.9018555, -37.9878044, -97.8658524, 16.0975609, -0.1735561
-0.3984375, -0.0874023, -0.9174805, -39.3292694, -101.2804871, 17.1341476, -0.149218
-0.4370117, -0.128418, -0.9443359, -39.8780479, -104.0853653, 19.4512196, -0.0995346
-0.4370117, -0.1567383, -0.9423828, -39.3292694, -104.5121994, 21.7682934, -0.04448
-0.4111328, -0.1982422, -0.9111328, -37.8658562, -102.6219559, 23.0487804, -0.0082246
-0.3935547, -0.2094727, -0.8833008, -35.5487823, -99.5121994, 22.6219521, 0.0219883
-0.3808594, -0.1914062, -0.8330078, -33.841465, -95.8536606, 20.7926826, 0.0428016
-0.3862305, -0.1523438, -0.8164062, -33.2317085, -92.3780518, 17.5, 0.0569009
-0.4316406, -0.0571289, -0.7841797, -34.7560997, -91.5853653, 13.1097565, 0.0642863
-0.4545898, -0.0273438, -0.7553711, -36.7682953, -93.7195129, 11.280488, 0.0414588
-0.496582, -0.0253906, -0.7080078, -39.6951218, -96.8292694, 10.7317076, 0.0251774
-0.546875, -0.0942383, -0.753418, -42.8048782, -99.8780518, 12.1951218, 0.0152743
-0.5708008, -0.1298828, -0.8066406, -44.2682953, -105, 15.060976, 0.0075532
-0.5649414, -0.1787109, -0.878418, -43.1707344, -110.18293, 17.9878044, 0.002182
-0.5332031, -0.1855469, -0.8671875, -39.7560997, -113.1707306, 19.4512196, 0.0112459
-0.4360352, -0.1665039, -0.7885742, -36.1585388, -111.0365906, 17.9878044, 0.0199741
-0.4018555, -0.1445312, -0.7470703, -34.0243912, -104.4512253, 14.2682934, 0.0206455
-0.4052734, -0.0913086, -0.7299805, -34.8780479, -99.0243912, 10.5487804, 0.0287022
-0.4418945, -0.0673828, -0.7744141, -37.8048782, -98.2317123, 8.4756098, 0.0354162
-0.5351562, -0.0366211, -0.9047852, -40.7926826, -105.6097565, 10.7926836, 0.0438087
-0.5532227, -0.0380859, -0.9482422, -40.9146347, -112.5, 15.9756098, 0.0411231
-0.5043945, -0.0537109, -0.9428711, -39.5731735, -113.7804871, 20.7317085, 0.0347448
-0.4057617, -0.0551758, -0.8686523, -38.4146347, -107.8658524, 22.9268303, 0.0317235
-0.3798828, -0.0537109, -0.847168, -38.2926826, -98.4756088, 21.5243912, 0.0226596
-0.3964844, -0.0576172, -0.8613281, -39.9390259, -92.5, 19.3902435, 0.0146029
-0.4272461, -0.0566406, -0.8798828, -42.2560997, -93.0487823, 18.3536587, 0.0031891
-0.4667969, -0.0766602, -0.8603516, -44.2073174, -97.3780518, 18.9634151, -0.0323949
-0.4672852, -0.0898438, -0.8266602, -44.6951218, -99.6341476, 20.4268303, -0.0585794
-0.4697266, -0.0947266, -0.7836914, -43.841465, -97.8048782, 21.2195129, -0.0710002
-0.4853516, -0.0878906, -0.7978516, -42.6219521, -93.6585388, 21.1585369, -0.0733501
-0.5366211, -0.0649414, -0.8427734, -41.5243912, -90.9756088, 20.7317085, -0.0693217
-0.5693359, -0.0473633, -0.8325195, -40.7317085, -91.5853653, 21.5243912, -0.054551
-0.5644531, -0.0429688, -0.7993164, -40.9756088, -91.3414688, 22.3170738, -0.0318914
-0.5429688, -0.0463867, -0.7304688, -41.9512215, -89.3292694, 22.0121956, -0.0142672
-0.5449219, -0.0483398, -0.722168, -44.6341476, -87.0731735, 21.3414631, -0.0132601
-0.5854492, -0.065918, -0.7592773, -47.0731735, -87.6219559, 21.1585369, -0.0226596
-0.6074219, -0.0795898, -0.7905273, -48.6585388, -90.5487823, 22.0731716, -0.0283665
-0.6069336, -0.1064453, -0.8198242, -49.1463432, -94.0243912, 23.780489, -0.0253452
-0.5883789, -0.1142578, -0.7993164, -47.9268303, -94.8170776, 25.5487804, -0.0285344
-0.5439453, -0.1054688, -0.7104492, -45.6707344, -91.2195129, 25.7317085, -0.0317235
-0.5209961, -0.0883789, -0.6635742, -44.0853653, -85.1219559, 23.4146347, -0.0260166
-0.5380859, -0.0605469, -0.6279297, -45, -79.5121994, 19.4512196, -0.0182956
-0.6142578, -0.0527344, -0.671875, -46.8902435, -80.6097565, 17.3780499, -0.0115816
-0.6538086, -0.0541992, -0.7202148, -48.7804871, -85.6097565, 17.5, -0.005539
-0.6953125, -0.0786133, -0.7958984, -48.7804871, -91.3414688, 19.6341476, -0.0045319
-0.6865234, -0.0961914, -0.8041992, -47.2560997, -94.9390259, 22.9878063, -0.0085603
-0.6079102, -0.1318359, -0.7661133, -44.2682953, -94.0243912, 25.1219521, -0.0102388
-0.5708008, -0.1357422, -0.7382812, -41.4024391, -89.2682953, 25.1219521, -0.0115816
-0.5200195, -0.1054688, -0.7216797, -39.6951218, -82.9268341, 23.1097565, -0.0085603
-0.5200195, -0.0786133, -0.7236328, -39.0243912, -79.3292694, 20.3048782, -0.008896
-0.5415039, -0.0419922, -0.6821289, -39.5121956, -78.6585388, 17.8658543, -0.0095674
-0.5537109, -0.0366211, -0.6474609, -40.3048782, -79.0853653, 16.5853653, -0.0132601
-0.5917969, -0.0463867, -0.6142578, -41.5853653, -78.4146347, 16.1585369, -0.0270237
-0.6708984, -0.0556641, -0.6904297, -41.6463432, -78.7195129, 17.5, -0.0501869
-0.7036133, -0.0576172, -0.7363281, -39.9390259, -82.2560959, 20.4268303, -0.0639506
-0.7045898, -0.0644531, -0.7988281, -37.2560997, -86.7073212, 23.9634151, -0.0663005
-0.6699219, -0.0532227, -0.8110352, -34.8780479, -88.2926865, 26.3414631, -0.0605936
-0.5864258, -0.0205078, -0.8027344, -34.6951218, -85.6707306, 26.4634151, -0.0505226
-0.5585938, -0.003418, -0.784668, -36.8902435, -80.5487823, 24.9390259, -0.0407874
-0.5307617, 0.0185547, -0.7133789, -39.3902435, -77.1341476, 23.4146347, -0.0293736
-0.534668, 0.015625, -0.6879883, -42.4390259, -75.4268341, 22.5, -0.023331
-0.5639648, 0.0063477, -0.6855469, -44.9390259, -76.0365906, 22.560976, -0.0310521
-0.5908203, 0.003418, -0.7050781, -46.5853653, -77.7439041, 23.7195129, -0.0513619
-0.637207, -0.0048828, -0.7543945, -47.1341476, -80, 26.6463413, -0.0814069
-0.6337891, -0.0288086, -0.7670898, -46.341465, -80.0609741, 29.0853672, -0.1198444
-0.6225586, -0.0395508, -0.7480469, -46.0975609, -78.1097565, 30.1829281, -0.1579461
-0.5957031, -0.0532227, -0.6889648, -46.0365868, -74.7560959, 29.5731716, -0.1841306
-0.5908203, -0.0541992, -0.6640625, -46.4024391, -72.3780518, 28.0487804, -0.1693599
-0.6152344, -0.0463867, -0.6650391, -47.0121956, -71.7682953, 26.5853672, -0.1210193
-0.6362305, -0.0395508, -0.675293, -47.5609779, -73.4146347, 25.3658543, -0.061265
-0.6567383, -0.0419922, -0.7070312, -47.8048782, -76.5853653, 25.5487804, -0.0018463
-0.6557617, -0.0493164, -0.7094727, -47.3780518, -78.3536606, 26.5853672, 0.0360876
-0.6352539, -0.081543, -0.6665039, -45.9146347, -77.1951218, 27.0121956, 0.0585794
-0.6196289, -0.0932617, -0.6342773, -43.4146347, -72.4390259, 26.1585369, 0.0683146
-0.6230469, -0.0869141, -0.6054688, -41.2195129, -68.9634171, 23.9024391, 0.0726787
-0.6767578, -0.0493164, -0.6352539, -39.7560997, -67.7439041, 22.1951218, 0.0767071
-0.7011719, -0.0332031, -0.6557617, -38.841465, -69.3902435, 20.7926826, 0.082414
-0.7182617, -0.0234375, -0.671875, -39.0243912, -72.7439041, 20.7317085, 0.0829175
-0.7124023, -0.0405273, -0.6572266, -39.5731735, -74.8780518, 21.8292694, 0.0810712
-0.6894531, -0.0561523, -0.6411133, -38.7195129, -75.3048782, 22.3170738, 0.0686503
-0.6801758, -0.046875, -0.6557617, -37.2560997, -74.1463394, 21.5853672, 0.0562295
-0.6870117, -0.0126953, -0.7163086, -35.2439041, -73.4146347, 21.280489, 0.0448157
-0.684082, 0.0014648, -0.7387695, -33.4756088, -73.9024429, 21.7073174, 0.0354162
-0.6508789, 0.0092773, -0.7016602, -33.2926826, -73.2317123, 22.6829281, 0.026688
-0.6289062, 0.0024414, -0.6591797, -33.6585388, -69.0243912, 23.0487804, 0.0169528
-0.6191406, -0.0126953, -0.5800781, -33.841465, -65, 22.3780499, 0.0132601
-0.6674805, -0.0219727, -0.5825195, -33.2926826, -62.9268303, 21.6463413, 0.0077211
-0.7006836, -0.0136719, -0.6152344, -32.4390259, -64.2682953, 22.0121956, -0.0015106
-0.746582, 0.0200195, -0.6743164, -31.2195129, -67.1341476, 22.8048782, -0.0068818
-0.7470703, 0.0390625, -0.6894531, -31.4024391, -69.0243912, 23.780489, -0.0179599
-0.7182617, 0.0498047, -0.6923828, -32.1951218, -69.0853653, 24.4512196, -0.0297093
-0.7006836, 0.0371094, -0.6791992, -33.7804871, -67.9878082, 24.6341476, -0.0417945
-0.6694336, -0.0112305, -0.6269531, -35.3048782, -67.5, 25.060976, -0.0486763
-0.6557617, -0.0395508, -0.6010742, -35.3658562, -67.3780518, 24.6951218, -0.0461585
-0.6464844, -0.0634766, -0.5571289, -35.0609779, -66.8292694, 24.0853672, -0.0404517
-0.6547852, -0.0527344, -0.5517578, -32.4390259, -65.6097565, 22.0731716, -0.0397803
-0.7021484, -0.0024414, -0.5786133, -30.3658543, -65.3658524, 21.0365868, -0.0438087
-0.7382812, 0.0429688, -0.6118164, -29.1463413, -65.9146347, 21.3414631, -0.0501869
-0.7456055, 0.0527344, -0.6274414, -29.3292694, -66.1585388, 22.439024, -0.0552224
-0.7412109, 0.0463867, -0.6269531, -31.0975609, -66.3414612, 23.1097565, -0.0679789
-0.7275391, 0.0317383, -0.6118164, -32.5609779, -65.7317123, 23.9634151, -0.0847639
-0.6977539, -0.0146484, -0.5737305, -33.5975609, -65.3658524, 23.780489, -0.1025559
-0.690918, -0.0268555, -0.5634766, -33.841465, -64.3292694, 22.8658543, -0.1347829
-0.6865234, -0.0258789, -0.5576172, -33.2317085, -63.1097565, 21.5853672, -0.1589532
-0.6938477, -0.0195312, -0.5629883, -31.8902454, -62.5609779, 20.1219521, -0.1613031
-0.7216797, 0.0083008, -0.5776367, -30.8536587, -62.5, 19.6341476, -0.1445182
-0.7285156, 0.0234375, -0.5771484, -29.8780499, -62.0121956, 20.060976, -0.1203479
-0.7280273, 0.059082, -0.5532227, -29.8170738, -60.6097565, 20.3048782, -0.0928206
-0.7275391, 0.0766602, -0.5092773, -30.1219521, -58.3536606, 20.4268303, -0.0656291
-0.7329102, 0.0776367, -0.4985352, -31.0975609, -56.7073174, 20, -0.0337377
-0.753418, 0.0693359, -0.5151367, -32.0121956, -57.0121956, 19.5731716, -0.008896
-0.7680664, 0.0541992, -0.5473633, -33.5365868, -58.9024391, 19.8170738, 0.0129244
-0.7695312, 0.0288086, -0.612793, -34.6341476, -61.4024391, 20.7317085, 0.0320592
-0.7490234, 0.0195312, -0.6220703, -33.9634171, -62.5609779, 21.8292694, 0.0485084
-0.6845703, 0.0053711, -0.5703125, -32.8658562, -60.3048782, 22.1341476, 0.0639506
-0.6669922, 0.0063477, -0.5283203, -30.9756107, -55.3658562, 21.0975609, 0.0656291
-0.6513672, 0.0185547, -0.4677734, -29.4512196, -49.8170738, 18.9634151, 0.0572366
-0.6748047, 0.027832, -0.4589844, -28.841465, -45.4878044, 16.3414631, 0.0506905
-0.7431641, 0.0527344, -0.4614258, -28.841465, -45.7317085, 15.6707325, 0.0454871
-0.7939453, 0.0654297, -0.4990234, -29.5121956, -47.5609779, 16.1585369, 0.0391089
-0.8081055, 0.0625, -0.5214844, -30, -49.4512215, 17.439024, 0.0307164
-0.800293, 0.0444336, -0.5444336, -30.6707325, -50.4268303, 19.0243912, 0.0251774
-0.7724609, 0.0336914, -0.5209961, -31.4634151, -49.4512215, 19.3902435, 0.0260166
-0.7192383, 0.0117188, -0.4233398, -31.7682934, -46.5243912, 18.2926826, 0.0310521
-0.7055664, 0.0019531, -0.378418, -31.4024391, -43.5365868, 15.7317076, 0.0250095
-0.7324219, -0.0048828, -0.3383789, -30.3658543, -42.1951218, 13.4756098, 0.0151064
-0.7641602, 0.0073242, -0.3422852, -28.3536587, -43.2317085, 12.0731707, 0.0052033
-0.8178711, 0.0253906, -0.3935547, -26.4634151, -46.5853653, 11.7073174, -0.005539
-0.8271484, 0.0336914, -0.4306641, -25, -50.6707344, 13.0487804, -0.0095674
-0.8168945, 0.0449219, -0.4985352, -25.060976, -52.0731735, 14.2682934, -0.0095674
-0.765625, 0.0483398, -0.5073242, -24.8780499, -51.9512215, 14.4512196, -0.0162814
-0.7368164, 0.0405273, -0.4829102, -24.3902435, -50.1219521, 13.780488, -0.0229953
-0.6870117, 0.0292969, -0.4389648, -24.3292694, -46.6463432, 12.3780489, -0.0229953
-0.6816406, 0.0336914, -0.4370117, -24.8170738, -43.2317085, 10.7926836, -0.0297093
-0.7119141, 0.0668945, -0.4516602, -25, -41.2804871, 8.9024391, -0.030045
-0.7275391, 0.0854492, -0.4536133, -25.060976, -40.9146347, 8.1707315, -0.0236667
-0.7524414, 0.09375, -0.4306641, -24.5121956, -40.3658562, 8.3536587, -0.0250095
-0.7587891, 0.0825195, -0.4121094, -24.0243912, -38.9024391, 9.2073174, -0.0236667
-0.7705078, 0.0449219, -0.375, -22.9268303, -37.7439041, 10.6097565, -0.0270237
-0.7783203, 0.0405273, -0.3657227, -20.2439022, -37.0121956, 11.0975609, -0.04448
-0.7880859, 0.065918, -0.3823242, -18.8414631, -37.3170738, 10.5487804, -0.0562295
-0.8134766, 0.0991211, -0.4492188, -18.9024391, -38.2926826, 10.060976, -0.0706645
-0.8198242, 0.1064453, -0.4848633, -19.939024, -40.1829262, 10.4268293, -0.0706645
-0.7939453, 0.1064453, -0.5239258, -21.5243912, -41.8292694, 11.6463413, -0.0666361
-0.765625, 0.0961914, -0.5244141, -22.6829281, -41.5853653, 12.5, -0.0542153
-0.7080078, 0.059082, -0.5004883, -22.7439022, -39.0853653, 12.3780489, -0.040116
-0.6938477, 0.0439453, -0.4848633, -21.8902435, -35.7317085, 11.8902445, -0.0297093
-0.6850586, 0.0410156, -0.4448242, -20.2439022, -31.8292694, 10.9756098, -0.023331
-0.6953125, 0.0483398, -0.4301758, -19.2073174, -28.0487804, 10.060976, -0.0137636
-0.7475586, 0.0708008, -0.4140625, -19.1463413, -25.6097565, 8.780488, -0.0075532
-0.777832, 0.0800781, -0.4145508, -19.6951218, -25.9146347, 9.1463413, -0.0068818
-0.8198242, 0.0820312, -0.4067383, -19.6951218, -27.2560978, 10.2439022, 0.002182
-0.8266602, 0.0810547, -0.4057617, -19.3292694, -28.4756107, 10.8536587, 0.0038605
-0.8237305, 0.0771484, -0.402832, -18.8414631, -28.7195129, 11.0975609, 0.0018463
-0.800293, 0.0615234, -0.4013672, -18.5365849, -28.7195129, 10.9756098, 0.0015106
-0.7919922, 0.0551758, -0.4023438, -18.5975609, -28.3536587, 10.8536587, 0.0005035
-0.7773438, 0.0600586, -0.4165039, -18.2317085, -27.9268303, 10.2439022, -0.0041962
-0.7753906, 0.0693359, -0.4248047, -18.2317085, -27.560976, 9.6341467, -0.008896
-0.7597656, 0.1079102, -0.4335938, -17.560976, -27.1951218, 9.1463413, -0.0152743
-0.7558594, 0.1181641, -0.4306641, -17.560976, -25.6707325, 8.4146347, -0.0142672
-0.7602539, 0.1147461, -0.434082, -18.0487804, -23.2926826, 8.5975609, -0.0179599
-0.7602539, 0.0981445, -0.4384766, -17.9268303, -22.0731716, 9.6951218, -0.0223239
-0.7436523, 0.0595703, -0.4321289, -17.3780499, -21.0975609, 10.6097565, -0.0270237
-0.7216797, 0.0664062, -0.4418945, -16.3414631, -18.2317085, 10.060976, -0.0290379
-0.7216797, 0.0776367, -0.4541016, -17.0121956, -14.6951227, 8.3536587, -0.0330663
-0.746582, 0.1049805, -0.456543, -17.9878044, -11.7682934, 7.0121951, -0.0350805
-0.7568359, 0.1064453, -0.440918, -17.9268303, -10.4268293, 6.7682929, -0.0347448
-0.753418, 0.0893555, -0.3833008, -17.0731716, -9.3292685, 7.1951222, -0.0337377
-0.7495117, 0.0830078, -0.3632812, -15.9146347, -7.2560978, 7.2560978, -0.0374304
-0.7666016, 0.0844727, -0.3608398, -14.5121956, -5.5487804, 6.5243902, -0.0370947
-0.777832, 0.081543, -0.3696289, -13.4756098, -5.2439027, 6.0365853, -0.0382696
-0.7963867, 0.0717773, -0.3925781, -12.3780489, -6.0975609, 6.6463418, -0.0382696
-0.7924805, 0.0693359, -0.3984375, -11.9512196, -6.1585369, 6.5243902, -0.0327306
-0.7714844, 0.081543, -0.4003906, -11.8902445, -5.0609756, 5.7926831, -0.0372625
-0.7592773, 0.0795898, -0.4316406, -12.4390249, -3.8414636, 4.5731707, -0.0683146
-0.7626953, 0.0732422, -0.4467773, -12.4390249, -3.5975611, 4.9390244, -0.0820783
-0.7382812, 0.0722656, -0.4208984, -11.7073174, -3.2926829, 5.3048782, -0.0850996
-0.7202148, 0.0825195, -0.3945312, -10.6097565, -0.2439024, 4.6341462, -0.0840925
-0.7158203, 0.0898438, -0.3481445, -9.7560978, 3.6585367, 2.804878, -0.0815747
-0.7280273, 0.0786133, -0.3447266, -9.0243902, 5.9756098, 2.1341465, -0.0693217
-0.7749023, 0.0537109, -0.3647461, -8.3536587, 5.4268293, 2.4390244, -0.047837
-0.7841797, 0.0429688, -0.3847656, -7.3170733, 4.1463413, 2.804878, -0.03122
-0.7749023, 0.0395508, -0.4086914, -5, 3.2926829, 2.6829269, -0.0109102
-0.7631836, 0.0454102, -0.4130859, -3.9024391, 4.8780489, 1.9512196, -0.0105745
-0.7441406, 0.0629883, -0.4008789, -2.3780489, 6.9512196, 0.4268293, -0.0149386
-0.7260742, 0.0942383, -0.3930664, -2.3780489, 9.3292685, -0.8536586, -0.0099031
-0.7231445, 0.1083984, -0.390625, -2.6829269, 10.7317076, -2.3170731, 0.0005035
-0.7363281, 0.109375, -0.3813477, -3.5975611, 11.219512, -2.9268293, 0.0045319
-0.7392578, 0.1015625, -0.3798828, -3.3536587, 11.5853662, -3.0487804, 0.0112459
-0.737793, 0.090332, -0.4204102, -3.1707318, 12.7439032, -3.0487804, 0.0209812
-0.7348633, 0.0898438, -0.4550781, -2.8658538, 13.841464, -2.7439024, 0.0260166
-0.7280273, 0.1000977, -0.4956055, -2.8658538, 15.1219511, -2.1341465, 0.0223239
-0.7119141, 0.1079102, -0.4907227, -2.8658538, 16.7682934, -2.0121951, 0.0166171
-0.6762695, 0.1113281, -0.4326172, -2.804878, 21.8902435, -2.3780489, 0.0075532
-0.6635742, 0.1054688, -0.4013672, -2.2560976, 26.0365868, -2.9268293, -0.0075532
-0.6743164, 0.0913086, -0.371582, -1.5853659, 29.3292694, -3.7195122, -0.0350805
-0.7216797, 0.0854492, -0.3662109, -0.7926829, 31.1585369, -3.8414636, -0.0659648
-0.737793, 0.0834961, -0.3623047, -0.2439024, 32.0121956, -3.9634147, -0.0783856
-0.7636719, 0.0791016, -0.3583984, 0.2439024, 32.5, -4.1463413, -0.0861067
-0.7700195, 0.0688477, -0.3725586, 0.5487805, 32.1951218, -4.3292685, -0.0730144
-0.7792969, 0.0561523, -0.4155273, 0.1829268, 31.5243912, -4.9390244, -0.0780499
-0.7724609, 0.0458984, -0.4443359, 0.5487805, 30.4268303, -4.6341462, -0.0854353
-0.7299805, 0.046875, -0.4755859, 1.8902439, 30.1829281, -4.7560978, -0.0835889
-0.7026367, 0.0522461, -0.4868164, 3.7804878, 32.0121956, -5.1829271, -0.0760357
-0.6503906, 0.0795898, -0.4833984, 5.5487804, 37.3170738, -6.2195125, -0.0642863
-0.621582, 0.1025391, -0.4506836, 5.8536587, 43.0487823, -7.5609756, -0.04448
-0.6274414, 0.09375, -0.4331055, 5.3658538, 48.4146347, -8.9634151, -0.0169528
-0.6660156, 0.0551758, -0.4194336, 4.2073174, 51.1585388, -9.5731707, 0.0011749
-0.6884766, 0.0200195, -0.4282227, 4.2073174, 51.0975609, -8.719512, 0.0112459
-0.71875, -0.0483398, -0.4624023, 6.4024391, 49.8170738, -7.7439027, 0.023331
-0.7143555, -0.0576172, -0.4667969, 10.4268293, 49.5121956, -7.3780489, 0.0360876
-0.6914062, -0.0141602, -0.4492188, 14.3292685, 52.3170738, -8.4146347, 0.0535439
-0.684082, 0.0229492, -0.4414062, 16.3414631, 56.4024391, -10.7317076, 0.072343
-0.6948242, 0.0805664, -0.4575195, 16.2195129, 58.9634171, -13.1707315, 0.0891279
-0.7041016, 0.0878906, -0.4746094, 14.2073174, 58.4756126, -13.9024391, 0.0871138
-0.7138672, 0.0791016, -0.5180664, 12.0731707, 55.5487823, -13.1707315, 0.0674754
-0.6743164, 0.0712891, -0.5292969, 11.5853662, 55.4268303, -12.1951218, 0.0599222
-0.6420898, 0.0703125, -0.5273438, 12.1341467, 58.0487823, -12.0731707, 0.0522011
-0.6054688, 0.0610352, -0.5063477, 12.1951218, 62.8048782, -12.6219511, 0.0518654
-0.6000977, 0.0424805, -0.503418, 11.7682934, 67.68293, -13.2926836, 0.0548867
-0.612793, 0.015625, -0.4838867, 11.6463413, 70.5487823, -13.9024391, 0.0508583
-0.625, 0.0068359, -0.4794922, 12.7439032, 72.1951218, -14.0853662, 0.0438087
-0.6518555, 0.0043945, -0.503418, 14.2073174, 72.6219559, -14.1463413, 0.0412909
-0.6611328, 0.0043945, -0.5268555, 15.9756098, 72.7439041, -13.9634151, 0.0347448
-0.6669922, 0.0078125, -0.5717773, 16.8292694, 73.1097565, -13.2926836, 0.0213169
-0.6518555, 0.0166016, -0.5844727, 17.6219521, 74.7560959, -12.5, 0.0092317
-0.6264648, 0.0439453, -0.5810547, 18.4146347, 78.7804871, -12.9878054, -0.0045319
-0.6044922, 0.0795898, -0.5371094, 18.2317085, 82.7439041, -13.780488, -0.0275273
-0.6005859, 0.0810547, -0.5205078, 17.1341476, 86.7682953, -14.7560978, -0.0453193
-0.6210938, 0.0717773, -0.4956055, 15.4878054, 89.3902435, -15.2439032, -0.0525368
-0.6396484, 0.0595703, -0.4897461, 13.5975609, 90.18293, -15.1219511, -0.054551
-0.6689453, 0.0302734, -0.4838867, 12.8658543, 89.3902435, -15.060976, -0.0473335
-0.6738281, 0.0185547, -0.4775391, 13.4146347, 88.5975647, -14.7560978, -0.0394446
-0.6748047, 0.0078125, -0.4643555, 14.4512196, 88.3536606, -15.060976, -0.0330663
-0.675293, 0.0092773, -0.4658203, 14.6341467, 88.4756088, -16.1585369, -0.0209812
-0.675293, 0.0166016, -0.4702148, 14.8780489, 88.2926865, -17.3780499, -0.0182956
-0.6748047, 0.019043, -0.4853516, 14.5731707, 87.4390259, -18.0487804, -0.018967
-0.671875, 0.0283203, -0.5200195, 13.780488, 84.9390259, -19.8780499, -0.0166171
-0.6508789, 0.0419922, -0.5371094, 13.3536587, 83.1707306, -20.3658543, -0.0203098
-0.637207, 0.0439453, -0.5336914, 13.9024391, 82.3170776, -20.4878044, -0.0219883
-0.6015625, 0.0400391, -0.5102539, 14.5731707, 82.5609741, -21.0975609, -0.0196384
-0.5834961, 0.0322266, -0.5, 14.5731707, 83.9634171, -22.3780499, -0.0193027
-0.5859375, 0.0166016, -0.5053711, 14.6951227, 85.3658524, -23.3536587, -0.0219883
-0.5922852, 0.0083008, -0.5151367, 14.8170738, 85.9146347, -23.9024391, -0.0213169
-0.6044922, -0.0102539, -0.5249023, 15.7317076, 85.5487823, -23.780489, -0.0218204
-0.6083984, -0.0166016, -0.5283203, 16.9512196, 85.3048782, -23.5365868, -0.0344091
-0.6132812, -0.0302734, -0.5605469, 18.0487804, 85.7926865, -23.2926826, -0.043473
-0.6123047, -0.0356445, -0.5883789, 19.5731716, 86.646347, -22.9268303, -0.0515297
-0.6040039, -0.0292969, -0.65625, 19.6951218, 87.3170776, -22.1341476, -0.0773785
-0.5698242, 0.0029297, -0.6835938, 19.7560978, 89.2073212, -21.5243912, -0.1055772
-0.5458984, 0.0180664, -0.6826172, 19.8780499, 91.8902435, -22.0731716, -0.121355
-0.5102539, 0.043457, -0.6655273, 19.0853672, 95.6097565, -23.4756107, -0.124712
-0.5097656, 0.034668, -0.668457, 18.1097565, 99.2073212, -24.2073174, -0.1156481
-0.512207, -0.0068359, -0.6933594, 17.1951218, 101.0975647, -23.4756107, -0.0948348
-0.5073242, -0.0380859, -0.7124023, 17.0731716, 101.5853653, -20.9146347, -0.0666361
-0.4912109, -0.0800781, -0.7353516, 18.8414631, 101.4634171, -18.2317085, -0.0377661
-0.4765625, -0.0844727, -0.7304688, 21.6463413, 103.1707306, -16.4024391, -0.0119173
-0.453125, -0.0771484, -0.7016602, 25.4878063, 107.6219559, -15.9756098, 0.0077211
-0.4477539, -0.059082, -0.6914062, 29.5731716, 115.6707306, -17.0121956, 0.0260166
-0.4780273, -0.0043945, -0.6791992, 30.4268303, 120.8536606, -18.1707325, 0.0394446
-0.5322266, 0.0361328, -0.6601562, 30.2439022, 123.5975647, -18.9634151, 0.0520333
-0.5571289, 0.0454102, -0.6464844, 28.9024391, 123.0487823, -19.6951218, 0.0558938
-0.5922852, 0.0366211, -0.6191406, 27.1951218, 121.1585388, -20.060976, 0.0508583
-0.5976562, 0.0229492, -0.6079102, 25.8536587, 117.9878082, -19.939024, 0.0433051
-0.5942383, -0.0136719, -0.5844727, 24.5731716, 114.9390259, -20.1829281, 0.033402
-0.5898438, -0.0351562, -0.5820312, 24.0853672, 112.3780518, -21.0975609, 0.0196384
-0.5688477, -0.0732422, -0.581543, 24.5731716, 109.5731735, -22.3170738, 0.0125887
-0.5620117, -0.0927734, -0.5756836, 25.9146347, 106.8292694, -23.5365868, 0.0058747
-0.5307617, -0.1201172, -0.5410156, 28.4146347, 105, -24.5731716, 0.0005035
-0.515625, -0.1235352, -0.5302734, 31.7682934, 104.3292694, -27.3170738, -0.008896
-0.5166016, -0.0961914, -0.5786133, 33.2926826, 104.5121994, -30.1219521, -0.0129244
-0.5366211, -0.0473633, -0.6733398, 33.2317085, 103.7804871, -32.5609779, -0.0216526
-0.5415039, -0.0268555, -0.7119141, 30.9756107, 101.5853653, -34.2682953, -0.0293736
-0.5117188, -0.0112305, -0.737793, 28.5975609, 99.5121994, -35.9146347, -0.0325628
-0.4897461, -0.0112305, -0.7333984, 26.5243912, 98.4756088, -37.1341476, -0.0424659
-0.4399414, -0.03125, -0.7026367, 24.6341476, 100.0609818, -38.1707344, -0.0498512
-0.4208984, -0.0454102, -0.690918, 23.8414631, 102.8658524, -38.7804871, -0.0501869
-0.4057617, -0.0693359, -0.6811523, 24.1463413, 105.4268341, -38.7804871, -0.0558938
-0.4140625, -0.0795898, -0.6928711, 25.7926826, 107.2561035, -38.2317085, -0.0619364
-0.4331055, -0.065918, -0.7958984, 27.9878063, 109.2682953, -37.0121956, -0.0716716
-0.4536133, -0.0473633, -0.8793945, 29.2073174, 112.6219559, -33.7804871, -0.0726787
-0.4638672, -0.0439453, -0.9951172, 28.5365868, 115, -29.4512196, -0.064622
-0.4086914, -0.0712891, -0.934082, 28.3536587, 117.3780518, -25.3048782, -0.0575723
-0.3613281, -0.0932617, -0.8496094, 29.3292694, 121.646347, -23.0487804, -0.0464942
-0.2988281, -0.1166992, -0.7109375, 31.6463413, 128.4146423, -24.5121956, -0.0532082
-0.3134766, -0.1152344, -0.6953125, 33.4756088, 134.0853729, -28.1097565, -0.0720073
-0.4101562, -0.0932617, -0.7753906, 33.4756088, 134.8780518, -31.2195129, -0.0740215
-0.465332, -0.0786133, -0.84375, 31.7073174, 130.4878082, -32.1951218, -0.0889601
-0.5273438, -0.0742188, -0.9785156, 28.9634151, 123.3536606, -30.2439022, -0.1062486
-0.5209961, -0.0864258, -1.0258789, 26.4024391, 118.1097565, -27.0121956, -0.1136339
-0.4384766, -0.1425781, -1.0595703, 24.8780499, 116.5243912, -23.2926826, -0.1149767
-0.3730469, -0.1762695, -1.0449219, 24.7560978, 120.0609818, -19.8780499, -0.0985275
-0.2480469, -0.2084961, -0.9760742, 26.2195129, 125.4268341, -19.4512196, -0.068986
-0.1762695, -0.1630859, -0.9418945, 27.2560978, 131.8902435, -21.4634151, -0.0337377
-0.1757812, -0.1069336, -0.9453125, 26.0365868, 138.9634247, -25.6097565, 0.0025177
-0.253418, -0.0102539, -0.9345703, 21.6463413, 143.4146423, -29.7560978, 0.0253452
-0.3120117, -0.0024414, -0.9072266, 15.060976, 143.2926788, -32.0121956, 0.0441444
-0.4013672, -0.0483398, -0.8012695, 9.0853662, 138.9634247, -32.3170738, 0.0616007
-0.4423828, -0.0898438, -0.746582, 4.6951222, 133.9634247, -31.0975609, 0.066804
-0.5107422, -0.1689453, -0.6723633, 3.2317073, 128.9024353, -30.2439022, 0.0609293
-0.5385742, -0.1865234, -0.668457, 4.6951222, 124.146347, -29.8170738, 0.0582437
-0.5751953, -0.1982422, -0.7231445, 7.0731707, 118.6585388, -29.6951218, 0.0528725
-0.5810547, -0.2084961, -0.7485352, 9.8170738, 109.7561035, -30, 0.0438087
-0.534668, -0.2358398, -0.7856445, 10.3048782, 103.9024429, -30.1219521, 0.0320592
-0.4614258, -0.2509766, -0.8164062, 11.1585369, 100.6097565, -30.1829281, 0.0157778
-0.4189453, -0.2416992, -0.8554688, 12.0731707, 99.8780518, -30.7926846, 0.0072175
-0.3652344, -0.1977539, -0.972168, 13.7195129, 99.9390259, -31.9512196, 0.0031891
-0.3295898, -0.1762695, -1.0205078, 14.8780489, 100, -32.6219521, 0.0018463
-0.2475586, -0.1586914, -1.0620117, 16.0975609, 101.0975647, -33.1097565, 0.0001678
-0.2084961, -0.1611328, -1.0585938, 17.2560978, 104.4512253, -32.7439041, 0.0005035
-0.1420898, -0.1791992, -0.9975586, 18.1097565, 111.4634171, -31.7073174, -0.0057069
-0.1264648, -0.1894531, -0.9570312, 19.5731716, 120.6097565, -31.5853672, -0.008896
-0.1557617, -0.2075195, -0.9091797, 22.0121956, 128.1097565, -33.3536606, -0.0171206
-0.2011719, -0.21875, -0.9106445, 24.7560978, 131.646347, -35.9146347, -0.0283665
-0.3012695, -0.2441406, -0.9580078, 25.3658543, 130.4268341, -36.6463432, -0.0501869
-0.3828125, -0.2529297, -1.0317383, 25.8536587, 127.86586, -36.2195129, -0.0736858
-0.4042969, -0.246582, -1.0888672, 25.9146347, 125.1219559, -35, -0.0834211
-0.3935547, -0.1967773, -1.2553711, 25.9146347, 123.4756088, -32.9268303, -0.0850996
-0.3549805, -0.1650391, -1.3374023, 24.1463413, 124.2682953, -30.9756107, -0.0847639
-0.2260742, -0.1064453, -1.3803711, 19.6951218, 127.5609818, -28.5975609, -0.0767071
-0.1435547, -0.0869141, -1.3251953, 12.7439032, 133.8414612, -27.0731716, -0.0669718
-0.0097656, -0.0683594, -1.1240234, 5.3658538, 142.3170776, -27.0731716, -0.0565652
0.0087891, -0.0722656, -1.0327148, -0.4268293, 149.5121918, -29.2682934, -0.0488441
-0.0825195, -0.0913086, -0.9526367, -3.2317073, 150.4878082, -32.7439041, -0.04448
-0.1708984, -0.1049805, -0.9658203, -1.1585366, 143.4756165, -34.6341476, -0.0350805
-0.3364258, -0.1557617, -1.0419922, 0.7926829, 135, -31.4634151, -0.0236667
-0.3935547, -0.2080078, -0.9873047, 1.7073171, 128.0487823, -25.9756107, -0.0062104
-0.3813477, -0.2275391, -0.8979492, 1.8902439, 125.6097565, -21.7682934, -0.002182
-0.3413086, -0.2294922, -0.7246094, 2.9268293, 126.2804871, -21.6463413, 0.0035248
-0.3491211, -0.2099609, -0.684082, 5.0609756, 126.2195129, -25.060976, 0.0119173
-0.4375, -0.1523438, -0.7158203, 7.0731707, 122.1951218, -29.3902454, 0.0159457
-0.4902344, -0.1220703, -0.7705078, 7.1951222, 112.3170776, -31.4024391, 0.0139315
-0.5205078, -0.0917969, -0.9355469, 6.3414636, 99.5731735, -30.5487804, 0.0045319
-0.4921875, -0.1054688, -1.0146484, 2.2560976, 88.1097565, -27.560976, -0.0075532
-0.3574219, -0.1977539, -1.1411133, -2.5609756, 81.4634171, -21.4634151, -0.036759
-0.2739258, -0.2602539, -1.1948242, -3.1707318, 82.0121994, -16.6463413, -0.0770428
-0.0820312, -0.3647461, -1.3012695, -0.2439024, 87.5609741, -13.1707315, -0.0971847
0.0986328, -0.3979492, -1.3520508, 4.4512196, 97.3170776, -11.4634151, -0.0921492
0.1796875, -0.3759766, -1.3325195, 10.3658543, 110.6707306, -11.9512196, -0.0491798
0.2807617, -0.2910156, -1.1855469, 15.1219511, 126.4024429, -15.7317076, 0.0011749
0.2915039, -0.237793, -1.0712891, 18.7195129, 140.6707306, -21.6463413, 0.0394446
0.1865234, -0.1669922, -0.8989258, 20.4268303, 151.3414612, -28.6585369, 0.0498512
0.0678711, -0.1396484, -0.8735352, 20.6707325, 155.5487823, -34.3292694, 0.0406195
-0.2314453, -0.1088867, -0.9291992, 19.5121956, 151.4024353, -36.8902435, 0.0199741
-0.3647461, -0.1201172, -0.9790039, 17.6829281, 139.8780518, -34.6951218, 0.0070497
-0.5112305, -0.1816406, -1.0703125, 15.1219511, 120.9756088, -27.0121956, -0.005539
-0.5107422, -0.2353516, -1.0981445, 14.5731707, 110.4268341, -20.060976, -0.0082246
-0.3818359, -0.3530273, -1.1054688, 15.8536587, 104.3902435, -15.060976, -0.0095674
-0.1767578, -0.4350586, -1.0732422, 20, 104.2073212, -13.2317076, -0.0139315
-0.0776367, -0.4311523, -1.0605469, 25.8536587, 108.0487823, -14.0853662, -0.0135958
0.0698242, -0.3432617, -1.0498047, 32.2560997, 114.0853653, -17.6219521, -0.0182956
0.1108398, -0.2587891, -1.0620117, 36.4634171, 120.3048782, -22.0121956, -0.0223239
0.1391602, -0.097168, -1.0927734, 36.7073174, 124.8780518, -26.0365868, -0.0203098
0.1347656, -0.0288086, -1.0996094, 32.1341476, 126.4024429, -28.6585369, -0.0196384
0.090332, 0.0385742, -1.0620117, 23.9634151, 125.18293, -29.6951218, -0.0357519
0.0556641, 0.0356445, -1.0209961, 14.3292685, 123.1097565, -28.780489, -0.0572366
-0.0214844, -0.0083008, -0.9287109, 5.1219511, 118.9634171, -26.4634151, -0.093492
-0.0639648, -0.0375977, -0.9038086, 1.097561, 114.9390259, -24.0853672, -0.1122911
-0.1474609, -0.0820312, -0.9477539, -0.1219512, 110.6097565, -21.4024391, -0.1156481
-0.1787109, -0.105957, -1.0688477, -1.0365853, 104.5121994, -19.1463413, -0.1005417
-0.1606445, -0.1318359, -1.1074219, -3.2317073, 97.6219559, -16.9512196, -0.0887922
-0.0644531, -0.2006836, -1.081543, -5.9146342, 92.0121994, -15.4878054, -0.0659648
0, -0.2387695, -1.015625, -8.5365858, 90.6097565, -14.5121956, -0.0339055
0.1015625, -0.2763672, -0.871582, -8.780488, 94.2073212, -15.7317076, -0.0102388
0.1157227, -0.269043, -0.8374023, -6.280488, 99.8780518, -18.5365849, 0.0052033
0.0751953, -0.2167969, -0.8974609, -3.2317073, 103.7195129, -22.3170738, 0.0253452
0.0366211, -0.1953125, -0.9848633, -1.1585366, 102.7439041, -24.8170738, 0.0394446
-0.0219727, -0.190918, -1.1884766, -2.5, 94.8170776, -22.560976, 0.0471656
-0.0195312, -0.2177734, -1.2558594, -5.609756, 89.9390259, -17.9268303, 0.0548867
0.0678711, -0.3139648, -1.2519531, -7.8658538, 89.146347, -13.1707315, 0.0501869
0.2109375, -0.3979492, -1.1279297, -6.280488, 93.9634171, -10.1219511, 0.0454871
0.2661133, -0.4189453, -1.0693359, -0.7926829, 104.4512253, -10.2439022, 0.0387732
0.3134766, -0.4204102, -1.0244141, 7.1341467, 115.7926865, -12.8658543, 0.0273594
0.3022461, -0.4008789, -1.019043, 15.6707325, 123.6585388, -16.8902435, 0.0196384
0.2456055, -0.3320312, -0.9897461, 22.0121956, 126.0365906, -21.2195129, 0.0139315
0.2104492, -0.2856445, -0.9726562, 25.2439022, 124.8170776, -25, 0.0062104
0.1352539, -0.1855469, -0.9858398, 24.8780499, 123.0487823, -27.5, 0.0062104
0.090332, -0.1401367, -1.0258789, 22.0731716, 120.7317123, -28.841465, 0.0043641
0.0117188, -0.0620117, -1.1328125, 15.8536587, 116.0365906, -27.560976, -0.0050355
0.012207, -0.0395508, -1.2509766, 10.4878054, 111.8292694, -24.6341476, -0.0119173
0.0585938, -0.0546875, -1.3061523, 5.1219511, 108.6585388, -20.3048782, -0.0191348
0.1967773, -0.1518555, -1.3442383, 0.1219512, 108.1707306, -15.6707325, -0.0310521
0.2900391, -0.2163086, -1.3149414, -3.4146342, 111.2804871, -11.4634151, -0.0417945
0.4609375, -0.3349609, -1.1494141, -4.3292685, 118.5365906, -9.2073174, -0.054551
0.5175781, -0.3666992, -1.0366211, -1.9512196, 128.4756165, -9.2073174, -0.085771
0.5219727, -0.3535156, -0.8422852, 3.9634147, 138.9024353, -12.1341467, -0.1062486
0.4614258, -0.3085938, -0.7919922, 10.9756098, 145.9146423, -17.2560978, -0.1156481
0.2583008, -0.1801758, -0.8276367, 17.6219521, 146.5243988, -22.439024, -0.1166552
0.1328125, -0.1235352, -0.8989258, 19.8780499, 141.8902435, -24.6951218, -0.1055772
-0.0546875, -0.0605469, -1.0571289, 14.7560978, 131.2804871, -21.0975609, -0.0894636
-0.0932617, -0.1069336, -1.1318359, 6.7073174, 123.4756088, -14.7560978, -0.0770428
-0.0541992, -0.1533203, -1.125, -0.7317073, 118.2317123, -8.841464, -0.0639506
0.1054688, -0.2387695, -1.0625, -6.280488, 116.4634171, -5.1219511, -0.0552224
0.1904297, -0.2680664, -1.0307617, -8.9024391, 117.86586, -5.2439027, -0.0458228
0.3334961, -0.284668, -0.9643555, -8.5365858, 120.1219559, -7.3780489, -0.0313878
0.3789062, -0.2753906, -0.9282227, -6.1585369, 121.0975647, -11.0365858, -0.0099031
0.4111328, -0.2480469, -0.8911133, -2.9878049, 119.2682953, -15.1829271, 0.0065461
0.4018555, -0.2353516, -0.8725586, -1.3414634, 116.8292694, -17.5, 0.0167849
0.3408203, -0.2246094, -0.8955078, -1.7073171, 112.68293, -18.4756107, 0.0206455
0.2944336, -0.222168, -0.9038086, -2.8658538, 109.4512253, -18.5365849, 0.0204776
