Application:, Trigno Discover (1.6.5)
Date/Time:, 29/01/2025 10:16:36
Collection Length (seconds):, 34.3845
wrist (81457), , , , , , bicep (81139)
sensor mode: 609, , , , , , sensor mode: 40
ACC X (G), ACC Y (G), ACC Z (G), GYRO X (deg/s), GYRO Y (deg/s), GYRO Z (deg/s), EMG 1 (mV)
370.3704 Hz, 370.3704 Hz, 370.3704 Hz, 370.3704 Hz, 370.3704 Hz, 370.3704 Hz, 2148.1481 Hz
0.9663086, -0.1015625, -0.2744141, -14.0853662, -7.6829271, 2.2560976, -0.0681468
0.9677734, -0.0922852, -0.2651367, -13.1097565, -6.8292685, 1.7682927, -0.063447
0.9624023, -0.0888672, -0.2651367, -12.9878054, -7.3170733, 1.6463414, -0.0553902
0.9560547, -0.0844727, -0.2749023, -13.1707315, -7.8048782, 0.8536586, -0.0540475
0.9541016, -0.0839844, -0.2768555, -13.3536587, -8.0487804, 1.2804878, -0.0453193
0.9536133, -0.0795898, -0.2719727, -13.7195129, -8.1097565, 1.7073171, -0.0399481
0.9580078, -0.0756836, -0.2695312, -13.7195129, -8.1097565, 2.0121951, -0.0379339
0.9648438, -0.0625, -0.2714844, -13.3536587, -8.1707315, 2.3170731, -0.0332341
0.9682617, -0.0600586, -0.2783203, -13.1097565, -8.2926826, 1.8902439, -0.0328985
0.9667969, -0.0566406, -0.2915039, -13.780488, -9.1463413, 1.8902439, -0.0315557
0.9702148, -0.0751953, -0.2924805, -14.0853662, -9.2073174, 1.8292683, -0.0261845
0.9736328, -0.0864258, -0.2866211, -14.9390249, -9.3292685, 2.2560976, -0.0271916
0.9750977, -0.0986328, -0.284668, -15, -9.1463413, 2.7439024, -0.0261845
0.9750977, -0.1010742, -0.284668, -14.4512196, -8.4756098, 2.6829269, -0.0238346
0.9726562, -0.1020508, -0.2841797, -13.4756098, -8.2926826, 2.3780489, -0.0258488
0.9716797, -0.1054688, -0.2836914, -12.9268293, -8.1707315, 2.4390244, -0.0271916
0.9731445, -0.09375, -0.2890625, -12.1951218, -7.7439027, 2.2560976, -0.0305486
0.9731445, -0.0869141, -0.2915039, -12.3780489, -7.8048782, 2.1341465, -0.0315557
0.9790039, -0.0756836, -0.2944336, -12.7439032, -7.9268293, 2.1341465, -0.0298772
0.9785156, -0.074707, -0.2958984, -13.2926836, -7.8658538, 1.9512196, -0.0298772
0.9804688, -0.0717773, -0.3012695, -13.841464, -7.6829271, 1.9512196, -0.0359197
0.9829102, -0.0795898, -0.2973633, -14.3292685, -7.9878049, 2.0731707, -0.0332341
0.9829102, -0.0786133, -0.293457, -14.8170738, -7.8048782, 2.5, -0.0365911
0.9873047, -0.0776367, -0.2866211, -14.6341467, -7.1951222, 2.1341465, -0.0339055
0.9907227, -0.0756836, -0.2822266, -14.5731707, -7.0121951, 2.195122, -0.0352483
0.9848633, -0.0844727, -0.2739258, -14.3292685, -6.890244, 1.4634147, -0.0345769
0.980957, -0.0854492, -0.2705078, -14.5121956, -6.890244, 0.9756098, -0.0396124
0.9692383, -0.0913086, -0.2700195, -14.2682934, -6.6463418, 1.3414634, -0.035584
0.9667969, -0.0908203, -0.269043, -14.2073174, -6.7682929, 1.5853659, -0.024506
0.965332, -0.0917969, -0.269043, -13.780488, -6.8292685, 1.2195122, -0.0137636
0.96875, -0.0952148, -0.269043, -13.9024391, -6.8292685, 0.9146342, -0.011078
0.965332, -0.0932617, -0.2788086, -13.841464, -7.0121951, 0.4878049, -0.017792
0.9667969, -0.0952148, -0.2866211, -13.6585369, -6.6463418, 0.4268293, -0.0271916
0.9648438, -0.0922852, -0.2905273, -14.0853662, -6.890244, 0.5487805, -0.0473335
0.9594727, -0.0830078, -0.2836914, -14.5731707, -6.0975609, 0.8536586, -0.0513619
0.9570312, -0.0727539, -0.2817383, -14.6951227, -5.7926831, 0.8536586, -0.0392767
0.956543, -0.046875, -0.2753906, -14.5121956, -5.5487804, 0.6707317, -0.0265202
0.9550781, -0.0410156, -0.2768555, -14.3902445, -5.7317076, 0.6707317, -0.0117494
0.9584961, -0.0429688, -0.2792969, -14.9390249, -6.7682929, 0.3048781, 0.0016785
0.9580078, -0.046875, -0.2841797, -15.2439032, -7.2560978, 0.4878049, 0.0104067
0.9658203, -0.0712891, -0.284668, -16.0365849, -7.7439027, 0.9146342, 0.0171206
0.9716797, -0.0888672, -0.2836914, -15.7317076, -7.3780489, 1.4634147, 0.014435
0.9697266, -0.090332, -0.2841797, -15.4268293, -6.3414636, 1.8902439, 0.0070497
0.9599609, -0.0859375, -0.2807617, -14.6951227, -5.8536587, 2.0731707, -0.0003357
0.9545898, -0.0810547, -0.2788086, -13.780488, -5.3658538, 2.0121951, -0.0063783
0.9550781, -0.0708008, -0.2871094, -13.841464, -5.9756098, 1.7073171, -0.0218204
0.9536133, -0.0693359, -0.2958984, -14.3292685, -6.6463418, 1.4634147, -0.0288701
0.9541016, -0.0717773, -0.2993164, -15.060976, -6.890244, 1.7073171, -0.0352483
0.9619141, -0.0756836, -0.2944336, -15.5487804, -7.0121951, 2.0731707, -0.0419623
0.9741211, -0.0751953, -0.2802734, -15.1829271, -6.0975609, 2.4390244, -0.0433051
0.9790039, -0.0742188, -0.2763672, -14.5731707, -6.0365853, 2.0731707, -0.0473335
0.9741211, -0.081543, -0.2792969, -13.9634151, -5.9146342, 2.0121951, -0.0503548
0.9697266, -0.0893555, -0.2749023, -13.6585369, -5.9756098, 1.7073171, -0.0466621
0.9658203, -0.0932617, -0.277832, -13.9634151, -6.4634147, 2.0121951, -0.0493477
0.9658203, -0.1030273, -0.2709961, -14.0853662, -6.4634147, 2.3170731, -0.0500191
0.9633789, -0.097168, -0.2719727, -14.3902445, -5.9756098, 2.5609756, -0.0500191
0.9609375, -0.0844727, -0.2719727, -13.6585369, -5.8536587, 2.6829269, -0.056733
0.9594727, -0.078125, -0.2666016, -13.4756098, -5.9756098, 2.4390244, -0.0594186
0.9643555, -0.0766602, -0.265625, -13.4146347, -6.4634147, 1.8292683, -0.063447
0.96875, -0.0795898, -0.2666016, -13.4756098, -6.6463418, 1.4634147, -0.0694896
0.9790039, -0.0878906, -0.2558594, -14.2682934, -7.0731707, 1.4634147, -0.076875
0.9780273, -0.0952148, -0.2514648, -14.3292685, -7.1341467, 1.4634147, -0.0748608
0.980957, -0.109375, -0.2475586, -13.9024391, -6.3414636, 1.4634147, -0.0674754
0.9638672, -0.1054688, -0.2509766, -13.3536587, -5.9146342, 1.5853659, -0.0637827
0.956543, -0.1049805, -0.2573242, -12.6219511, -6.0975609, 1.0365853, -0.0594186
0.9589844, -0.1064453, -0.2724609, -12.0731707, -6.9512196, 0.6707317, -0.0647898
0.9609375, -0.1064453, -0.2758789, -12.0121956, -7.4390244, 0.4878049, -0.0654612
0.9716797, -0.1108398, -0.2607422, -12.1951218, -6.9512196, 0.1219512, -0.0694896
0.9770508, -0.1030273, -0.2529297, -11.9512196, -6.5243902, 0.0609756, -0.0681468
0.9848633, -0.0991211, -0.2568359, -11.1585369, -5.4268293, -0.4268293, -0.0607614
0.9838867, -0.0888672, -0.2592773, -10.7926836, -5.3048782, -1.1585366, -0.0513619
0.9731445, -0.0791016, -0.2724609, -10.7926836, -6.280488, -1.1585366, -0.0392767
0.9658203, -0.0786133, -0.277832, -11.0975609, -6.5243902, -1.2195122, -0.03122
0.9638672, -0.0786133, -0.2866211, -12.0731707, -7.0731707, -0.5487805, -0.0292058
0.9575195, -0.0761719, -0.284668, -12.0121956, -7.1341467, -0.3048781, -0.027863
0.9633789, -0.0761719, -0.2871094, -11.8902445, -6.6463418, -0.5487805, -0.0258488
0.9560547, -0.0698242, -0.2885742, -11.4024391, -6.4024391, -0.6707317, -0.0281987
0.9545898, -0.0678711, -0.2924805, -11.7073174, -6.3414636, -0.6707317, -0.0325628
0.9555664, -0.0683594, -0.2983398, -12.3780489, -6.8292685, -0.5487805, -0.0369268
0.9560547, -0.0727539, -0.2988281, -12.6219511, -6.9512196, -0.3658537, -0.0513619
0.9619141, -0.074707, -0.284668, -13.5365858, -6.890244, 0.1829268, -0.0594186
0.9682617, -0.0771484, -0.2817383, -13.5975609, -6.8292685, 0.1829268, -0.056733
0.9594727, -0.0766602, -0.2758789, -13.2317076, -6.2195125, 0, -0.056733
0.9575195, -0.074707, -0.2792969, -13.1707315, -6.5243902, 0.0609756, -0.0500191
0.9570312, -0.0722656, -0.2885742, -12.8658543, -6.3414636, 0.1219512, -0.0459907
0.953125, -0.0708008, -0.2885742, -13.3536587, -6.5243902, 0.4878049, -0.0433051
0.9555664, -0.0693359, -0.2895508, -13.4146347, -6.5853658, 0.7926829, -0.0486763
0.9658203, -0.0698242, -0.2773438, -12.9268293, -6.6463418, 0.9146342, -0.0527047
0.965332, -0.0791016, -0.2788086, -12.8048782, -6.890244, 0.4878049, -0.0540475
0.9672852, -0.0771484, -0.2817383, -12.7439032, -6.7073174, 0.3048781, -0.0674754
0.9633789, -0.0810547, -0.277832, -13.2317076, -6.280488, 0.6707317, -0.0755322
0.9570312, -0.0771484, -0.2626953, -13.5975609, -5.7317076, 1.0365853, -0.0688182
0.9580078, -0.0727539, -0.2602539, -13.5975609, -5.670732, 0.7926829, -0.0540475
0.9555664, -0.0810547, -0.2631836, -12.6829271, -6.7073174, 0, -0.0386053
0.9584961, -0.0830078, -0.2705078, -12.5, -7.0731707, -0.1219512, -0.0258488
0.9609375, -0.0932617, -0.2851562, -13.1097565, -7.2560978, 0.1829268, -0.0198062
0.9663086, -0.0966797, -0.2773438, -13.1097565, -7.2560978, 0.3048781, -0.017792
0.96875, -0.0932617, -0.2641602, -13.3536587, -5.9146342, 0.8536586, -0.0204776
0.9731445, -0.0727539, -0.2402344, -12.2560978, -4.0853658, 0.7926829, -0.0191348
0.9697266, -0.0610352, -0.234375, -11.7682934, -4.0243902, 0.1219512, -0.0292058
0.965332, -0.0522461, -0.2436523, -12.0731707, -5.8536587, -1.0365853, -0.0379339
0.9624023, -0.0566406, -0.2587891, -12.3170738, -6.890244, -1.1585366, -0.0486763
0.9648438, -0.0820312, -0.2768555, -14.1463413, -8.5365858, -0.6707317, -0.0560616
0.96875, -0.097168, -0.2802734, -14.5121956, -8.719512, 0.0609756, -0.0594186
0.9716797, -0.1210938, -0.2836914, -14.2073174, -7.9268293, 0.8536586, -0.063447
0.9672852, -0.1240234, -0.2797852, -13.7195129, -7.0731707, 0.7926829, -0.0661326
0.9614258, -0.1142578, -0.2832031, -12.1951218, -6.2195125, -0.0609756, -0.0681468
0.9594727, -0.1025391, -0.2915039, -11.6463413, -6.3414636, -0.4268293, -0.0721752
0.9619141, -0.0932617, -0.2939453, -11.8902445, -6.7073174, -0.7317073, -0.0762036
0.9790039, -0.0825195, -0.2915039, -12.0121956, -7.4390244, -1.0365853, -0.0788891
0.9887695, -0.0791016, -0.2895508, -12.0731707, -7.5, -1.2195122, -0.0782177
1.0043945, -0.0805664, -0.28125, -12.0731707, -7.3780489, -0.8536586, -0.0809033
1.0029297, -0.0820312, -0.2768555, -11.8292685, -6.7073174, -0.5487805, -0.0788891
0.9931641, -0.0859375, -0.2700195, -11.8292685, -6.6463418, -0.7926829, -0.0782177
0.9853516, -0.0922852, -0.2744141, -12.1951218, -6.5853658, -0.4268293, -0.0822461
0.9663086, -0.09375, -0.2709961, -12.6829271, -6.9512196, -0.1219512, -0.0903029
0.956543, -0.0854492, -0.2666016, -13.2317076, -6.890244, 0, -0.0916457
0.9482422, -0.0712891, -0.2514648, -13.5365858, -6.6463418, 0.1829268, -0.0882887
0.9492188, -0.0551758, -0.2592773, -13.4146347, -6.8292685, 0.0609756, -0.0741894
0.9511719, -0.050293, -0.2700195, -13.2317076, -7.8048782, -0.5487805, -0.0527047
0.9555664, -0.0541992, -0.2949219, -14.2073174, -9.0243902, -0.7317073, -0.0292058
0.9594727, -0.0610352, -0.3066406, -14.3902445, -9.6341467, -0.3658537, -0.0137636
0.9707031, -0.0786133, -0.3085938, -15.1829271, -8.9024391, 0.3048781, -0.011078
0.9790039, -0.0849609, -0.3037109, -14.8780489, -8.1707315, 0.7926829, -0.0043641
0.9775391, -0.0810547, -0.2905273, -13.9634151, -6.4634147, 0.6707317, -0.0083925
0.9731445, -0.0761719, -0.2900391, -13.2926836, -5.8536587, 0.2439024, -0.0167849
0.9619141, -0.0756836, -0.2895508, -13.0487804, -5.7317076, -0.2439024, -0.0332341
0.9589844, -0.0727539, -0.2895508, -13.4146347, -6.4634147, -0.1219512, -0.0406195
0.965332, -0.078125, -0.2856445, -13.9634151, -6.8292685, -0.2439024, -0.0459907
0.9741211, -0.0834961, -0.2763672, -14.1463413, -7.1951222, -0.3048781, -0.0486763
0.9765625, -0.0839844, -0.2714844, -13.7195129, -6.7073174, 0.0609756, -0.0453193
0.9780273, -0.0913086, -0.2729492, -13.4146347, -6.8292685, -0.1829268, -0.0436408
0.9750977, -0.0913086, -0.2768555, -12.9268293, -6.7073174, 0, -0.0406195
0.9702148, -0.0888672, -0.2695312, -12.9268293, -6.7682929, 0.3658537, -0.0396124
0.9692383, -0.0854492, -0.2626953, -12.9268293, -5.9756098, 0.3658537, -0.0382696
0.9707031, -0.0742188, -0.2436523, -12.3780489, -5.670732, 0.0609756, -0.0419623
0.9702148, -0.0732422, -0.2407227, -12.1341467, -5.8536587, -0.0609756, -0.0369268
0.9643555, -0.0712891, -0.2583008, -12.0731707, -7.1341467, -1.0365853, -0.0436408
0.9604492, -0.0776367, -0.2680664, -12.0731707, -7.7439027, -0.9756098, -0.0486763
0.9624023, -0.0986328, -0.28125, -12.7439032, -8.4756098, -0.4878049, -0.0352483
0.9609375, -0.1088867, -0.2797852, -13.2317076, -8.2317076, -0.1219512, -0.0154421
0.9643555, -0.109375, -0.2792969, -12.3780489, -7.5, 0.5487805, -0.0621042
0.9619141, -0.0947266, -0.2709961, -11.5243902, -6.280488, 0, -0.1198444
0.9604492, -0.0864258, -0.2661133, -11.0975609, -6.0365853, -0.6707317, -0.1242084
0.9628906, -0.0737305, -0.265625, -10.6707315, -6.6463418, -1.097561, -0.0933242
0.9677734, -0.0727539, -0.2685547, -11.1585369, -7.6219516, -1.6463414, -0.0500191
0.9741211, -0.0737305, -0.2749023, -11.8902445, -8.5975609, -0.9756098, -0.0016785
0.9775391, -0.0791016, -0.277832, -12.2560978, -8.780488, -0.4878049, 0.0386053
0.9814453, -0.0854492, -0.2792969, -12.0121956, -8.2317076, -0.3048781, 0.0587472
0.9780273, -0.0830078, -0.2749023, -11.8902445, -7.6829271, 0, 0.066804
0.9702148, -0.0737305, -0.2783203, -12.0121956, -7.5609756, -0.1829268, 0.0587472
0.9633789, -0.0688477, -0.2861328, -12.0121956, -7.5, 0.2439024, 0.0386053
0.9658203, -0.0668945, -0.2822266, -12.6219511, -7.9268293, -0.1219512, 0.0140993
0.9658203, -0.0639648, -0.2827148, -13.1097565, -8.2317076, 0.0609756, -0.0036927
0.96875, -0.0615234, -0.2880859, -13.0487804, -8.2926826, 0.2439024, -0.0218204
0.9770508, -0.0585938, -0.2958984, -13.2317076, -8.0487804, 0.5487805, -0.0446479
0.9780273, -0.0581055, -0.3046875, -13.2317076, -8.1097565, 0.6097561, -0.0533761
0.9731445, -0.0629883, -0.3046875, -14.3902445, -7.7439027, 0.7317073, -0.0607614
0.9707031, -0.0620117, -0.3012695, -14.5121956, -7.2560978, 1.2195122, -0.070161
0.9643555, -0.0664062, -0.2836914, -14.6951227, -6.8292685, 1.097561, -0.0715038
0.9614258, -0.0634766, -0.2749023, -14.6341467, -6.890244, 1.2804878, -0.0745251
0.9614258, -0.065918, -0.2695312, -14.4512196, -7.1341467, 0.9756098, -0.0728466
0.9594727, -0.0717773, -0.2758789, -14.3902445, -7.0121951, 0.8536586, -0.0715038
0.9599609, -0.0664062, -0.2773438, -14.1463413, -7.5609756, 1.1585366, -0.063447
0.9682617, -0.0737305, -0.2836914, -14.2682934, -7.6219516, 1.2804878, -0.0533761
0.9746094, -0.0761719, -0.2797852, -14.6341467, -7.5, 1.3414634, -0.0406195
0.9804688, -0.0834961, -0.2700195, -14.8170738, -7.1951222, 1.7073171, -0.0305486
0.9755859, -0.0864258, -0.2641602, -14.6341467, -7.0121951, 1.402439, -0.0339055
0.9682617, -0.0844727, -0.25, -14.2682934, -6.6463418, 1.1585366, -0.0433051
0.9628906, -0.0839844, -0.2509766, -14.3292685, -6.7682929, 1.097561, -0.0527047
0.9555664, -0.0820312, -0.2539062, -13.9024391, -7.5, 0.8536586, -0.0580758
0.9570312, -0.0859375, -0.2646484, -13.5365858, -8.1707315, 0.9146342, -0.056733
0.9648438, -0.0869141, -0.2675781, -13.6585369, -8.780488, 1.1585366, -0.0587472
0.9716797, -0.0932617, -0.2670898, -13.780488, -8.780488, 1.2804878, -0.0540475
0.9731445, -0.090332, -0.2626953, -13.2926836, -8.2926826, 1.7682927, -0.0493477
0.9672852, -0.0927734, -0.2573242, -12.3780489, -7.7439027, 1.1585366, -0.0647898
0.9643555, -0.0893555, -0.2558594, -12.4390249, -7.8048782, 1.097561, -0.076875
0.9555664, -0.0849609, -0.2543945, -12.1341467, -8.2926826, 0.7317073, -0.0704967
0.9526367, -0.081543, -0.2583008, -12.0121956, -8.719512, 0.6097561, -0.0463264
0.9536133, -0.0771484, -0.2685547, -12.1341467, -9.0243902, 0.6097561, -0.0234989
0.9521484, -0.0800781, -0.2753906, -12.3170738, -9.5731707, 0.7317073, -0.0157778
0.9580078, -0.0751953, -0.2802734, -12.560976, -9.8780489, 0.9146342, -0.011078
0.9589844, -0.0742188, -0.2788086, -12.560976, -9.6951218, 0.9756098, -0.0003357
0.9638672, -0.0683594, -0.2749023, -12.6829271, -9.4512196, 0.8536586, 0.0030213
0.9628906, -0.0581055, -0.2763672, -12.8048782, -9.6951218, 0.7926829, 0.0030213
0.9648438, -0.0527344, -0.2739258, -13.1097565, -9.8780489, 0.9756098, 0.0023499
0.9667969, -0.0556641, -0.2773438, -13.3536587, -10.6097565, 1.0365853, 0.0023499
0.9677734, -0.0581055, -0.2841797, -13.7195129, -10.9146347, 1.402439, -0.0043641
0.9726562, -0.0678711, -0.293457, -14.2073174, -11.219512, 1.5853659, -0.0090639
0.9736328, -0.0673828, -0.2978516, -14.3902445, -11.4024391, 1.4634147, -0.0164492
0.9746094, -0.0732422, -0.3056641, -14.4512196, -11.4634151, 2.0731707, -0.0305486
0.9731445, -0.0732422, -0.309082, -14.5121956, -11.219512, 2.2560976, -0.0396124
0.9584961, -0.0673828, -0.3139648, -14.3902445, -11.0365858, 2.3780489, -0.0459907
0.956543, -0.0712891, -0.3203125, -14.4512196, -11.0975609, 2.5609756, -0.0493477
0.9526367, -0.065918, -0.3105469, -14.7560978, -11.7682934, 2.6219513, -0.0533761
0.9526367, -0.0688477, -0.2944336, -14.7560978, -12.0121956, 2.4390244, -0.056733
0.9589844, -0.0654297, -0.2773438, -15.060976, -12.4390249, 2.9268293, -0.0540475
0.9667969, -0.0708008, -0.2480469, -14.8170738, -12.6219511, 2.7439024, -0.0574044
0.9663086, -0.0771484, -0.237793, -14.7560978, -12.9268293, 2.6219513, -0.0553902
0.9731445, -0.0820312, -0.2304688, -14.8170738, -13.3536587, 2.4390244, -0.06009
0.9750977, -0.0859375, -0.2333984, -14.6341467, -13.9024391, 2.4390244, -0.0627756
0.9746094, -0.0908203, -0.2392578, -14.7560978, -14.8170738, 3.2926829, -0.0607614
0.9770508, -0.0878906, -0.2475586, -14.3292685, -15.1829271, 3.0487804, -0.0607614
0.9829102, -0.0820312, -0.2583008, -14.3292685, -15.6097565, 3.2926829, -0.0621042
0.9848633, -0.078125, -0.2612305, -14.4512196, -15.6097565, 3.1707318, -0.0607614
0.9804688, -0.0737305, -0.2763672, -14.7560978, -16.3414631, 2.804878, -0.0654612
0.9887695, -0.0791016, -0.2851562, -14.9390249, -16.5853653, 2.8658538, -0.0741894
0.9892578, -0.0834961, -0.2885742, -15.1829271, -16.9512196, 2.9268293, -0.0825818
0.9882812, -0.0917969, -0.293457, -14.9390249, -17.1951218, 3.1707318, -0.0835889
0.9863281, -0.097168, -0.296875, -14.5731707, -17.0731716, 3.2317073, -0.076875
0.9804688, -0.0917969, -0.3037109, -14.2073174, -16.1585369, 2.8658538, -0.0594186
0.9746094, -0.0893555, -0.3120117, -14.2073174, -15.6707325, 2.8658538, -0.0406195
0.9658203, -0.0825195, -0.3227539, -14.4512196, -15.4268293, 2.8658538, -0.0271916
0.9614258, -0.078125, -0.3237305, -15.1219511, -15.4268293, 2.5609756, -0.0198062
0.9521484, -0.0732422, -0.3178711, -16.7073174, -15.4878054, 2.9268293, -0.0151064
0.9536133, -0.0698242, -0.3022461, -16.9512196, -15.3048782, 3.1097562, -0.0191348
0.956543, -0.0688477, -0.3027344, -16.8902435, -15, 3.2317073, -0.0198062
0.9648438, -0.0668945, -0.3085938, -16.8292694, -14.8780489, 3.2926829, -0.021149
0.9633789, -0.0644531, -0.3164062, -16.9512196, -15.1219511, 3.4146342, -0.0218204
0.9648438, -0.0644531, -0.3193359, -17.6219521, -14.8170738, 3.5365853, -0.0271916
0.96875, -0.0727539, -0.3168945, -17.6829281, -15, 3.6585367, -0.0325628
0.9711914, -0.0820312, -0.3227539, -18.2317085, -15, 3.9634147, -0.0305486
0.9702148, -0.0849609, -0.3208008, -18.3536587, -14.7560978, 3.6585367, -0.0352483
0.9643555, -0.0869141, -0.3110352, -18.5975609, -14.3292685, 4.4512196, -0.0325628
0.9609375, -0.0864258, -0.3056641, -18.5975609, -13.5975609, 4.5731707, -0.0386053
0.9462891, -0.0834961, -0.2939453, -18.4756107, -13.2926836, 4.6341462, -0.0557259
0.9321289, -0.0717773, -0.3007812, -18.5365849, -13.1097565, 4.7560978, -0.0647898
0.9306641, -0.0644531, -0.3041992, -18.5365849, -13.1097565, 5.4268293, -0.0637827
0.9375, -0.0498047, -0.3251953, -18.5365849, -13.5975609, 5.8536587, -0.0540475
0.9443359, -0.0463867, -0.3339844, -19.2073174, -14.4512196, 5.670732, -0.0392767
0.9633789, -0.0483398, -0.34375, -20.1219521, -14.6341467, 5.609756, -0.0258488
0.9677734, -0.0576172, -0.3398438, -20.4268303, -14.5121956, 5.9756098, -0.014435
0.9697266, -0.0708008, -0.3242188, -21.280489, -13.780488, 6.1585369, -0.0083925
0.9716797, -0.074707, -0.3178711, -21.280489, -13.5975609, 6.0975609, -0.0057069
0.9599609, -0.0830078, -0.3027344, -21.7073174, -13.2317076, 6.3414636, -0.0097353
0.949707, -0.0795898, -0.3022461, -21.5853672, -13.1707315, 6.4634147, -0.0137636
0.9418945, -0.0839844, -0.296875, -21.8902435, -14.0853662, 6.280488, -0.0171206
0.9536133, -0.1015625, -0.2983398, -22.1951218, -15.1219511, 6.1585369, -0.0231632
0.9584961, -0.1079102, -0.2973633, -22.1341476, -16.280489, 5.9146342, -0.0292058
0.9711914, -0.1186523, -0.2817383, -21.6463413, -16.0975609, 5.609756, -0.0258488
0.9746094, -0.1206055, -0.2734375, -21.280489, -15.8536587, 5.7317076, -0.027863
0.9716797, -0.1171875, -0.2592773, -20.060976, -14.9390249, 5.4268293, -0.024506
0.9633789, -0.1118164, -0.2583008, -19.0853672, -14.8170738, 5.3658538, -0.0164492
0.9511719, -0.1015625, -0.2539062, -18.3536587, -15.3658543, 4.5731707, -0.0221561
0.9462891, -0.0981445, -0.2573242, -18.2926826, -16.1585369, 4.2682929, -0.0369268
0.9418945, -0.1079102, -0.2607422, -18.3536587, -17.9268303, 3.9634147, -0.0486763
0.9433594, -0.1113281, -0.2670898, -18.5365849, -18.8414631, 4.0243902, -0.0527047
0.9433594, -0.1308594, -0.2768555, -18.0487804, -19.6951218, 3.5975611, -0.0459907
0.9541016, -0.137207, -0.2954102, -17.7439022, -20.060976, 3.3536587, -0.0325628
0.9638672, -0.1401367, -0.3085938, -16.0365849, -20.4878044, 3.3536587, -0.0224918
0.9648438, -0.1333008, -0.3334961, -15.060976, -20.6097565, 3.1707318, -0.0151064
0.96875, -0.1303711, -0.3417969, -14.8170738, -20.3658543, 3.1707318, -0.0057069
0.9765625, -0.1142578, -0.3417969, -15, -20.060976, 3.5975611, 0.0130922
0.972168, -0.1083984, -0.340332, -15, -19.939024, 3.5975611, 0.0372625
0.9667969, -0.0800781, -0.3676758, -15.9146347, -19.939024, 4.2682929, 0.0493477
0.9536133, -0.0688477, -0.3916016, -16.6463413, -20.1219521, 4.6341462, 0.0503548
0.9555664, -0.0385742, -0.4350586, -18.4146347, -21.0975609, 5.609756, 0.0426337
0.9633789, -0.0239258, -0.4580078, -19.0243912, -21.6463413, 6.280488, 0.0265202
0.9833984, -0.0107422, -0.46875, -21.7682934, -21.9512196, 7.2560978, 0.0030213
1.0014648, -0.0239258, -0.4458008, -23.1707325, -21.7682934, 7.5609756, -0.0271916
1.0019531, -0.0317383, -0.4282227, -26.0975609, -20.8536587, 7.8658538, -0.0486763
0.9970703, -0.0664062, -0.3964844, -27.9878063, -20.4268303, 8.4146347, -0.0647898
0.9882812, -0.0771484, -0.3818359, -28.841465, -20.4268303, 8.719512, -0.073518
0.972168, -0.1064453, -0.3583984, -30, -21.4634151, 9.3292685, -0.0835889
0.9716797, -0.1118164, -0.3505859, -29.8170738, -21.8292694, 9.9390249, -0.0896315
0.9731445, -0.1196289, -0.3320312, -30.3048782, -22.3170738, 10.3658543, -0.0869459
0.9775391, -0.1201172, -0.3291016, -30.4268303, -22.6829281, 10.4878054, -0.0822461
0.9819336, -0.1245117, -0.3295898, -30.6097565, -23.1097565, 10.1219511, -0.0835889
0.987793, -0.125, -0.3344727, -30.4878063, -23.4146347, 9.8780489, -0.0876173
0.9892578, -0.1220703, -0.3574219, -30.3048782, -23.9634151, 10.060976, -0.0923171
0.9916992, -0.1162109, -0.3857422, -30.2439022, -24.2682934, 10.3658543, -0.1010452
0.9931641, -0.1123047, -0.3994141, -30.3048782, -24.2073174, 10.3048782, -0.1084306
0.996582, -0.1147461, -0.4135742, -31.7073174, -24.5731716, 9.8780489, -0.102388
0.9951172, -0.1259766, -0.4057617, -32.4390259, -24.6341476, 9.6951218, -0.0997024
0.9931641, -0.1401367, -0.3720703, -33.2926826, -24.1463413, 9.3902445, -0.0943313
0.987793, -0.1435547, -0.3535156, -33.7195129, -24.0853672, 9.3292685, -0.0862745
0.9624023, -0.1289062, -0.3320312, -34.0853653, -23.6585369, 9.8170738, -0.0809033
0.9511719, -0.1166992, -0.3369141, -34.2073174, -23.5975609, 10.060976, -0.0762036
0.940918, -0.0825195, -0.3671875, -35.6097565, -25.7317085, 10.1829271, -0.0721752
0.9453125, -0.0683594, -0.387207, -36.4634171, -27.6219521, 9.9390249, -0.0661326
0.9711914, -0.0771484, -0.4248047, -39.4512215, -31.6463413, 9.6951218, -0.0594186
0.9995117, -0.1025391, -0.4125977, -40.7926826, -33.2317085, 9.6341467, -0.0527047
1.0043945, -0.1206055, -0.3920898, -42.1951218, -33.5975609, 9.9390249, -0.0466621
0.9936523, -0.1396484, -0.3632812, -41.5243912, -32.3780479, 10.6707315, -0.0473335
0.9770508, -0.140625, -0.3549805, -40.3048782, -31.8292694, 11.1585369, -0.0379339
0.949707, -0.1386719, -0.3481445, -39.5121956, -33.2317085, 11.1585369, -0.0288701
0.934082, -0.1367188, -0.3505859, -39.8170738, -34.7560997, 11.4024391, -0.0305486
0.9326172, -0.1352539, -0.3583984, -40.0609779, -38.4756088, 11.7682934, -0.0292058
0.9379883, -0.1381836, -0.3613281, -40, -39.8780479, 11.9512196, -0.017792
0.9658203, -0.140625, -0.3544922, -38.9024391, -41.9512215, 12.1951218, -0.0157778
0.9804688, -0.1420898, -0.3540039, -38.4146347, -42.5, 11.9512196, -0.0124208
0.9951172, -0.1357422, -0.3657227, -36.8292694, -43.2317085, 11.5853662, -0.0057069
0.9887695, -0.1289062, -0.4067383, -36.0975609, -44.0243912, 11.5853662, 0.0006714
0.9824219, -0.1235352, -0.4326172, -34.5121956, -45.5487823, 12.5, 0.0077211
0.9736328, -0.112793, -0.4765625, -33.7804871, -47.2560997, 13.7195129, 0.0117494
0.9707031, -0.1040039, -0.4853516, -33.3536606, -47.7439041, 13.9024391, 0.0130922
0.96875, -0.0883789, -0.4814453, -32.6829262, -47.5609779, 14.4512196, 0.014435
0.96875, -0.0810547, -0.4775391, -32.3170738, -47.3170738, 14.2682934, 0.0063783
0.9624023, -0.0756836, -0.4667969, -32.5609779, -47.9878044, 13.780488, -0.0003357
0.9707031, -0.0766602, -0.4555664, -33.2317085, -48.4756126, 13.2317076, -0.0097353
0.9770508, -0.1040039, -0.4375, -34.4512215, -50.5487823, 12.6829271, -0.0191348
0.9863281, -0.1162109, -0.4277344, -35.1829262, -51.9512215, 12.9878054, -0.0305486
1.0019531, -0.1396484, -0.4125977, -35.3048782, -53.841465, 12.560976, -0.0365911
1.0063477, -0.1494141, -0.40625, -35.0609779, -54.6951218, 13.1097565, -0.0436408
0.9931641, -0.1455078, -0.40625, -34.2682953, -55.7926826, 13.7195129, -0.049012
0.9780273, -0.1303711, -0.425293, -33.1707306, -56.2804909, 14.9390249, -0.0553902
0.9702148, -0.1162109, -0.4438477, -32.4390259, -56.8902435, 15.3658543, -0.0553902
0.9711914, -0.0883789, -0.4858398, -31.280489, -58.9634171, 15.7926836, -0.0621042
0.9785156, -0.081543, -0.5053711, -30.9756107, -60.3048782, 15.7926836, -0.0641184
1.0043945, -0.0864258, -0.5219727, -31.0365868, -62.9268303, 15.060976, -0.0627756
1.0180664, -0.1020508, -0.5092773, -31.280489, -63.4146347, 14.6341467, -0.0674754
1.0297852, -0.140625, -0.456543, -31.8292694, -63.4146347, 14.3292685, -0.0654612
1.0219727, -0.1601562, -0.4287109, -31.7682934, -62.9268303, 14.0853662, -0.0627756
0.9882812, -0.1821289, -0.4067383, -30.3048782, -62.8658562, 14.2073174, -0.063447
0.9462891, -0.1845703, -0.4306641, -29.1463413, -63.7195129, 14.2682934, -0.063447
0.9379883, -0.1777344, -0.456543, -27.3780499, -65.7926865, 15.1829271, -0.0624399
0.9360352, -0.1616211, -0.4970703, -25.8536587, -68.2317123, 15.7926836, -0.0674754
0.9462891, -0.1474609, -0.5097656, -25.1829281, -69.0243912, 15.7317076, -0.0678111
0.9833984, -0.1386719, -0.5209961, -23.0487804, -69.8170776, 14.5121956, -0.0715038
0.9995117, -0.1362305, -0.5224609, -22.1341476, -69.5121994, 14.0853662, -0.0715038
1.0063477, -0.1342773, -0.5400391, -21.1585369, -69.0243912, 13.3536587, -0.0674754
1.0068359, -0.1337891, -0.5546875, -20.7926826, -68.9024429, 13.3536587, -0.0574044
0.9970703, -0.1362305, -0.5844727, -20.4268303, -69.4512177, 13.4756098, -0.0560616
0.9926758, -0.1450195, -0.5966797, -20.9756107, -70, 13.5975609, -0.0527047
0.9921875, -0.1508789, -0.59375, -22.0731716, -70.4268341, 13.5365858, -0.0500191
0.9824219, -0.144043, -0.5791016, -22.0731716, -70.18293, 13.7195129, -0.0480049
0.9804688, -0.1425781, -0.5722656, -21.4024391, -69.9390259, 13.841464, -0.0466621
0.9760742, -0.125, -0.5688477, -20.060976, -70.3658524, 13.6585369, -0.0419623
0.9736328, -0.1176758, -0.5615234, -19.939024, -70.2439041, 13.4146347, -0.0379339
0.9770508, -0.1162109, -0.5317383, -19.5731716, -71.4024429, 13.3536587, -0.0419623
0.9770508, -0.1230469, -0.5141602, -19.5731716, -72.1341476, 13.5365858, -0.0453193
0.9667969, -0.1386719, -0.4990234, -19.2682934, -73.9634171, 13.7195129, -0.0459907
0.9570312, -0.1430664, -0.5048828, -18.5365849, -75.1219559, 13.6585369, -0.0419623
0.9423828, -0.1416016, -0.5341797, -17.2560978, -76.8292694, 13.9634151, -0.0392767
0.9360352, -0.1450195, -0.5439453, -16.7073174, -77.7439041, 14.2682934, -0.0315557
0.940918, -0.1430664, -0.5341797, -15.4268293, -78.4146347, 14.7560978, -0.0305486
0.9443359, -0.137207, -0.5400391, -14.8780489, -78.4756088, 15, -0.0271916
0.940918, -0.1357422, -0.5498047, -14.0243902, -79.8170776, 14.3292685, -0.0238346
0.9335938, -0.1274414, -0.5810547, -14.5121956, -81.2195129, 14.1463413, -0.0218204
0.9277344, -0.1196289, -0.5922852, -14.6951227, -82.1341476, 14.5121956, -0.0194705
0.934082, -0.1108398, -0.5883789, -15.7926836, -83.1707306, 15.1829271, -0.0171206
0.9384766, -0.1054688, -0.5786133, -16.1585369, -83.7195129, 15.1829271, -0.0164492
0.949707, -0.1108398, -0.5668945, -15.9756098, -85.18293, 15.1219511, -0.0164492
0.9560547, -0.1176758, -0.5639648, -15.3048782, -86.0365906, 15, -0.014435
0.9594727, -0.1435547, -0.5546875, -13.9024391, -87.8658524, 14.6341467, -0.0359197
0.9609375, -0.1586914, -0.550293, -13.0487804, -88.4756088, 14.7560978, -0.0641184
0.9438477, -0.1787109, -0.5522461, -11.0365858, -89.3292694, 14.7560978, -0.0607614
0.9165039, -0.1831055, -0.578125, -10, -89.5731735, 15.1829271, -0.0486763
0.8999023, -0.1738281, -0.5898438, -9.2073174, -90.4268341, 16.2195129, -0.0466621
0.8867188, -0.152832, -0.5981445, -8.9634151, -90.8536606, 16.5853653, -0.0285344
0.8862305, -0.1416016, -0.5917969, -8.9024391, -91.7682953, 16.5853653, 0.0003357
0.9033203, -0.1210938, -0.597168, -9.3292685, -93.7804871, 15.8536587, 0.027863
0.9086914, -0.109375, -0.6044922, -9.5121956, -95.3048782, 15.4878054, 0.0503548
0.9150391, -0.1142578, -0.6171875, -10.5487804, -97.9268341, 15.3658543, 0.0594186
0.9189453, -0.1171875, -0.6171875, -11.219512, -98.5975647, 15.9756098, 0.0543832
0.9233398, -0.1347656, -0.6162109, -11.219512, -99.2073212, 16.5243912, 0.0386053
0.9243164, -0.1416016, -0.6225586, -11.0365858, -99.5731735, 16.7073174, 0.021149
0.9111328, -0.1494141, -0.6655273, -10.3658543, -100.6707306, 17.3170738, -0.0016785
0.9042969, -0.1577148, -0.7070312, -10.2439022, -101.2195129, 17.9268303, -0.0194705
0.9047852, -0.1572266, -0.7138672, -10.8536587, -101.8902435, 18.4756107, -0.0352483
0.9145508, -0.159668, -0.7163086, -11.341464, -101.646347, 18.9024391, -0.0506905
0.9160156, -0.1533203, -0.7167969, -10.7317076, -101.0975647, 19.0243912, -0.0647898
0.9208984, -0.1235352, -0.7148438, -9.9390249, -99.2682953, 19.6341476, -0.0674754
0.9204102, -0.1054688, -0.7172852, -9.6341467, -98.4756088, 19.8170738, -0.0721752
0.9208984, -0.0869141, -0.7099609, -10.5487804, -97.8658524, 19.6341476, -0.0835889
0.9228516, -0.0927734, -0.7094727, -11.219512, -98.5365906, 19.6951218, -0.0835889
0.9194336, -0.1225586, -0.7163086, -13.2926836, -100.8536606, 19.8780499, -0.0809033
0.9169922, -0.1469727, -0.7163086, -14.3902445, -101.9512253, 20.5487804, -0.0798962
0.9106445, -0.1992188, -0.706543, -14.3902445, -102.3780518, 21.5243912, -0.0839246
0.8950195, -0.2167969, -0.6748047, -14.0853662, -101.8292694, 22.3780499, -0.0856031
0.878418, -0.2094727, -0.6665039, -11.219512, -98.8414688, 23.780489, -0.0889601
0.8496094, -0.1645508, -0.6708984, -8.780488, -97.0731735, 23.6585369, -0.0916457
0.8413086, -0.1416016, -0.6757812, -8.2926826, -97.0121994, 23.780489, -0.0906386
0.8374023, -0.1220703, -0.6870117, -9.3292685, -99.5731735, 23.4756107, -0.0903029
0.8476562, -0.1245117, -0.6835938, -10.6097565, -101.646347, 23.4756107, -0.0842603
0.875, -0.1533203, -0.6621094, -12.3170738, -104.2073212, 23.5365868, -0.0849317
0.8813477, -0.1767578, -0.6538086, -12.1341467, -105.18293, 23.4756107, -0.0782177
0.8769531, -0.2138672, -0.6523438, -10.4878054, -104.6341476, 23.8414631, -0.0788891
0.8681641, -0.2207031, -0.6625977, -9.3292685, -104.2073212, 24.4512196, -0.0862745
0.8339844, -0.222168, -0.715332, -6.5243902, -103.6585388, 25.1219521, -0.0835889
0.8149414, -0.1962891, -0.7592773, -5.609756, -103.9634171, 25.4878063, -0.0849317
0.8120117, -0.1894531, -0.7768555, -4.3292685, -104.5731735, 25.6707325, -0.1077592
0.84375, -0.1743164, -0.7729492, -4.2073174, -104.8170776, 25.9756107, -0.1185016
0.8588867, -0.1689453, -0.7568359, -4.5121951, -104.6341476, 25.4878063, -0.1111162
0.8833008, -0.1674805, -0.7109375, -4.2682929, -103.3536606, 24.8780499, -0.0896315
0.8920898, -0.1738281, -0.684082, -3.9634147, -102.6219559, 24.5121956, -0.0647898
0.8818359, -0.1850586, -0.6591797, -4.3292685, -102.8048782, 24.3292694, -0.0409552
0.8642578, -0.1870117, -0.6625977, -4.0243902, -103.4146347, 24.1463413, -0.017792
0.8398438, -0.1894531, -0.6923828, -3.7195122, -105.8536606, 24.5121956, 0.0154421
0.8286133, -0.1875, -0.7128906, -3.7195122, -107.2561035, 24.8170738, 0.0399481
0.8183594, -0.1850586, -0.7485352, -3.2317073, -109.3902435, 25.5487804, 0.0453193
0.8359375, -0.1816406, -0.7373047, -2.6829269, -110.1219559, 26.0365868, 0.0453193
0.8520508, -0.1845703, -0.7250977, -1.4634147, -109.4512253, 26.2195129, 0.0345769
0.8686523, -0.1845703, -0.7172852, -0.7926829, -108.9024429, 25.6097565, 0.0224918
0.8666992, -0.1860352, -0.7216797, -0.1219512, -108.8414688, 25.3658543, 0.0057069
0.8510742, -0.1879883, -0.7338867, -0.7926829, -109.0243912, 25.3048782, -0.0140993
0.84375, -0.1865234, -0.7324219, -1.7073171, -109.146347, 25.4268303, -0.0271916
0.8413086, -0.1831055, -0.7163086, -2.5, -109.6341476, 25.4878063, -0.0352483
0.8344727, -0.1816406, -0.7167969, -2.7439024, -110.0609818, 25.4268303, -0.0412909
0.8178711, -0.1733398, -0.7353516, -2.8658538, -110.5487823, 25.4268303, -0.0446479
0.800293, -0.1489258, -0.7700195, -3.2317073, -110.6097565, 25.5487804, -0.0500191
0.8012695, -0.1376953, -0.7817383, -4.0853658, -111.7073212, 26.3414631, -0.0500191
0.8129883, -0.1245117, -0.7832031, -4.7560978, -112.0731735, 26.3414631, -0.0473335
0.8266602, -0.137207, -0.7792969, -6.0365853, -113.2926865, 26.5853672, -0.0500191
0.8442383, -0.1757812, -0.7558594, -6.0975609, -114.3292694, 26.4024391, -0.0540475
0.8496094, -0.1982422, -0.7451172, -6.0975609, -114.5121994, 26.4634151, -0.0574044
0.8481445, -0.2441406, -0.7324219, -4.8780489, -114.8780518, 27.1341476, -0.0614328
0.840332, -0.2661133, -0.7246094, -4.2682929, -114.7561035, 27.0121956, -0.0708324
0.8198242, -0.2768555, -0.6928711, -2.4390244, -114.3902435, 26.5243912, -0.0755322
0.8105469, -0.2792969, -0.6811523, -1.3414634, -114.5731735, 25.6707325, -0.0798962
0.7685547, -0.2646484, -0.6855469, 1.6463414, -115.3048782, 24.7560978, -0.0809033
0.7382812, -0.2348633, -0.7446289, 2.6829269, -116.646347, 23.9634151, -0.0809033
0.7304688, -0.2158203, -0.7861328, 3.8414636, -119.0853653, 23.6585369, -0.0835889
0.737793, -0.1782227, -0.8496094, 3.9024391, -120.4268341, 23.9024391, -0.0822461
0.7543945, -0.1660156, -0.8671875, 3.3536587, -122.3170776, 24.3902435, -0.073518
0.7988281, -0.1489258, -0.8779297, 1.6463414, -121.8292694, 24.6951218, -0.0681468
0.8178711, -0.1420898, -0.8710938, 0.9146342, -120.9756088, 24.6951218, -0.0594186
0.840332, -0.1538086, -0.8520508, -0.5487805, -119.0243912, 24.4512196, -0.0570687
0.8452148, -0.171875, -0.8378906, -1.0365853, -118.4756088, 24.8170738, -0.0547189
0.8320312, -0.2060547, -0.8066406, -1.5853659, -118.3536606, 25.4268303, -0.0480049
0.8203125, -0.2241211, -0.7915039, -1.2804878, -118.0487823, 25.6707325, -0.0506905
0.7983398, -0.25, -0.7602539, 0.0609756, -117.7439041, 25.6097565, -0.0486763
0.7573242, -0.2524414, -0.7695312, 1.4634147, -117.2561035, 25.2439022, -0.0500191
0.7329102, -0.2397461, -0.7919922, 3.8414636, -117.4390259, 24.3292694, -0.049012
0.7036133, -0.2128906, -0.8540039, 5.2439027, -118.0487823, 23.9634151, -0.0426337
0.7021484, -0.1938477, -0.8701172, 4.7560978, -118.4146347, 23.9634151, -0.0439765
0.7285156, -0.1801758, -0.878418, 3.5975611, -118.5975647, 23.5975609, -0.0433051
0.7431641, -0.1801758, -0.8691406, 2.9268293, -118.7804871, 23.780489, -0.0392767
0.7758789, -0.1933594, -0.8417969, 2.195122, -118.3536606, 24.4512196, -0.0365911
0.7905273, -0.2026367, -0.8310547, 2.0731707, -117.7439041, 24.6951218, -0.0372625
0.7880859, -0.2104492, -0.8110352, 2.7439024, -116.4024429, 25.5487804, -0.0352483
0.7788086, -0.2143555, -0.8032227, 3.3536587, -116.1585388, 25.9146347, -0.0332341
0.7363281, -0.21875, -0.8095703, 4.0243902, -115.7317123, 26.0975609, -0.0352483
0.6953125, -0.2324219, -0.8647461, 4.6341462, -116.646347, 26.1585369, -0.0318914
0.6767578, -0.2363281, -0.8984375, 5.670732, -118.9634171, 27.0731716, -0.0325628
0.6733398, -0.2353516, -0.9360352, 6.0365853, -120.7317123, 29.2073174, -0.0325628
0.6889648, -0.2275391, -0.9248047, 6.4024391, -120, 30, -0.0298772
0.7255859, -0.1992188, -0.8789062, 6.8292685, -116.7682953, 29.7560978, -0.0275273
0.7324219, -0.184082, -0.8476562, 7.3170733, -114.7561035, 28.9024391, -0.0288701
0.7294922, -0.1660156, -0.8144531, 7.0731707, -112.68293, 27.8048782, -0.0285344
0.7163086, -0.1640625, -0.8041992, 6.1585369, -112.9268341, 27.8658543, -0.0271916
0.6835938, -0.168457, -0.8066406, 4.2682929, -115.5487823, 28.9634151, -0.0271916
0.6713867, -0.1757812, -0.8256836, 3.8414636, -117.1341476, 29.6951218, -0.0285344
0.6464844, -0.2006836, -0.8706055, 3.1707318, -120.2439041, 31.5243912, -0.0258488
0.6538086, -0.2255859, -0.8945312, 3.4146342, -121.0365906, 31.8902454, -0.0238346
0.6625977, -0.2324219, -0.8881836, 2.9878049, -121.3414688, 32.8048782, -0.0191348
0.6777344, -0.25, -0.8730469, 2.6219513, -120, 32.5609779, -0.0164492
0.6708984, -0.2509766, -0.8740234, 2.7439024, -118.9634171, 32.2560997, -0.0137636
0.6538086, -0.2338867, -0.8740234, 2.9878049, -117.6219559, 31.5243912, -0.0171206
0.6435547, -0.222168, -0.862793, 3.1707318, -117.2561035, 31.0365868, -0.0191348
0.6254883, -0.2421875, -0.859375, 3.2317073, -118.9634171, 30.9756107, -0.0251774
0.6245117, -0.2548828, -0.8696289, 3.5365853, -120.4268341, 31.5853672, -0.0271916
0.637207, -0.2939453, -0.8891602, 5.3048782, -122.9268341, 32.9878044, -0.0298772
0.6459961, -0.309082, -0.9003906, 6.7682929, -123.4146347, 33.6585388, -0.0339055
0.6606445, -0.3212891, -0.902832, 10.6707315, -122.5, 34.3902435, -0.0339055
0.6591797, -0.2958984, -0.9086914, 12.2560978, -120.7926865, 34.0853653, -0.0352483
0.6469727, -0.2719727, -0.9155273, 15.1219511, -117.1341476, 32.5609779, -0.0352483
0.6240234, -0.2314453, -0.934082, 14.5731707, -115.9756088, 31.341465, -0.0365911
0.6147461, -0.2177734, -0.9321289, 13.7195129, -116.5853653, 30.9146347, -0.0399481
0.6123047, -0.2211914, -0.9248047, 11.341464, -119.3902435, 30.9756107, -0.0342412
0.6083984, -0.2270508, -0.9257812, 10.7317076, -120.36586, 31.4024391, -0.0345769
0.6020508, -0.2387695, -0.9404297, 9.8170738, -120.9756088, 32.4390259, -0.0406195
0.6064453, -0.2412109, -0.9418945, 10.060976, -120.4268341, 33.2317085, -0.0486763
0.609375, -0.2578125, -0.9208984, 10.6707315, -118.5365906, 34.0853653, -0.0486763
0.6054688, -0.2641602, -0.9008789, 11.0365858, -117.7439041, 34.2073174, -0.0547189
0.5996094, -0.2724609, -0.8535156, 11.9512196, -116.5243912, 33.9634171, -0.0540475
0.5766602, -0.2792969, -0.831543, 12.1341467, -116.2804871, 34.0853653, -0.0527047
0.5600586, -0.2758789, -0.8378906, 13.2317076, -116.7682953, 33.2317085, -0.056733
0.5185547, -0.2661133, -0.8833008, 14.0243902, -118.8414688, 32.7439041, -0.0574044
0.4995117, -0.2695312, -0.9082031, 14.2073174, -120.1219559, 32.8658562, -0.0594186
0.4946289, -0.2724609, -0.9462891, 13.3536587, -122.6219559, 33.841465, -0.0594186
0.5073242, -0.2724609, -0.9511719, 12.8048782, -122.9268341, 34.0853653, -0.0580758
0.5390625, -0.262207, -0.9365234, 11.9512196, -122.3170776, 33.9024391, -0.0540475
0.546875, -0.2563477, -0.934082, 12.1341467, -121.8902435, 33.7804871, -0.0580758
0.5546875, -0.2436523, -0.9462891, 11.8902445, -121.0365906, 33.5975609, -0.0674754
0.5537109, -0.2539062, -0.9506836, 11.4634151, -121.4024429, 34.1463432, -0.0621042
0.5600586, -0.2866211, -0.9326172, 10.2439022, -121.4024429, 35, -0.0553902
0.5478516, -0.3154297, -0.8984375, 10.1219511, -121.5243912, 35.3048782, -0.0543832
0.5385742, -0.3217773, -0.890625, 11.5853662, -119.8780518, 35.6097565, -0.0540475
0.4951172, -0.3095703, -0.9023438, 14.6951227, -119.0243912, 34.9390259, -0.0513619
0.4741211, -0.2988281, -0.9223633, 16.4024391, -119.2073212, 34.6341476, -0.0513619
0.4643555, -0.2797852, -0.9511719, 17.7439022, -120.6097565, 34.9390259, -0.0493477
0.4736328, -0.2822266, -0.9575195, 17.9878044, -121.1585388, 35, -0.0480049
0.4921875, -0.2949219, -0.9628906, 17.3170738, -122.0121994, 35.6097565, -0.0513619
0.4956055, -0.3027344, -0.9770508, 16.5243912, -121.5243912, 35.9756088, -0.0533761
0.4946289, -0.2719727, -1.0161133, 15.7926836, -119.9390259, 36.5243912, -0.0560616
0.4975586, -0.2524414, -1.03125, 15.3658543, -118.7804871, 36.7682953, -0.0513619
0.5004883, -0.2299805, -1.0268555, 13.7195129, -116.4024429, 36.7073174, -0.0406195
0.5102539, -0.2363281, -0.9794922, 12.6829271, -115.4878082, 36.4024391, -0.0433051
0.5087891, -0.2568359, -0.9487305, 10.6097565, -114.6951218, 36.4634171, -0.0399481
0.4995117, -0.3027344, -0.9150391, 10, -115.18293, 37.5, -0.0399481
0.4829102, -0.3217773, -0.9145508, 10.4268293, -115.2439041, 38.1097565, -0.0533761
0.4384766, -0.3452148, -0.9467773, 12.3780489, -115.3048782, 38.2926826, -0.0409552
0.4238281, -0.3447266, -0.9707031, 13.3536587, -115.1219559, 38.4146347, -0.0285344
0.40625, -0.3276367, -0.9985352, 14.3292685, -114.6341476, 37.7439041, -0.0164492
0.40625, -0.3198242, -0.996582, 14.0853662, -114.4512253, 37.2560997, 0.0090639
0.4233398, -0.2973633, -0.972168, 12.560976, -113.5975647, 35.4268303, 0.027863
0.4316406, -0.2900391, -0.9614258, 11.8292685, -112.9878082, 34.6341476, 0.0339055
0.4267578, -0.2998047, -0.9550781, 10.4268293, -113.0487823, 34.3292694, 0.0298772
0.421875, -0.3081055, -0.9824219, 10.1219511, -113.4756088, 34.2682953, 0.027863
0.4199219, -0.3164062, -1.0014648, 10.4878054, -114.4512253, 35.1829262, 0.0184634
0.4282227, -0.3330078, -1.0244141, 11.7682934, -114.5731735, 35.6707344, 0.0030213
0.4345703, -0.3500977, -1.0161133, 12.1951218, -114.0853653, 35.9146347, -0.0097353
0.4614258, -0.371582, -0.9570312, 12.9268293, -111.2804871, 35.2439041, -0.0130922
0.456543, -0.3847656, -0.9194336, 13.780488, -109.6951218, 34.2682953, -0.0130922
0.4169922, -0.390625, -0.8823242, 15.2439032, -107.2561035, 33.2926826, -0.0258488
0.3852539, -0.3847656, -0.8789062, 16.4634151, -106.9512253, 32.5, -0.03122
0.3222656, -0.3500977, -0.9052734, 18.4146347, -107.7439041, 30.9756107, -0.0352483
0.2949219, -0.3291016, -0.9165039, 18.9024391, -108.7804871, 30.1829281, -0.042298
0.2758789, -0.3164062, -0.9399414, 18.9634151, -112.0731735, 29.6951218, -0.0540475
0.2924805, -0.3359375, -0.9663086, 19.0243912, -113.9024429, 30, -0.06009
0.3085938, -0.34375, -0.9838867, 18.9634151, -116.3414688, 32.1951218, -0.0674754
0.340332, -0.3295898, -1.0185547, 20, -115.4268341, 34.4512215, -0.0715038
0.355957, -0.3110352, -1.0297852, 20.6097565, -113.9634171, 34.8170738, -0.0755322
0.3789062, -0.2739258, -1.0229492, 21.5243912, -110.1219559, 35.1219521, -0.0762036
0.3881836, -0.2641602, -1.0053711, 21.0365868, -108.6585388, 34.9390259, -0.070161
0.3833008, -0.2836914, -0.9628906, 19.6341476, -107.9268341, 35.4878044, -0.0674754
0.3730469, -0.3022461, -0.9501953, 18.8414631, -108.4146347, 36.2804871, -0.0674754
0.3354492, -0.3237305, -0.9580078, 17.2560978, -109.2073212, 38.2926826, -0.0694896
0.3144531, -0.3173828, -0.9765625, 17.0731716, -109.146347, 38.841465, -0.0745251
0.2753906, -0.2890625, -0.9956055, 16.7073174, -108.1707306, 38.4146347, -0.0842603
0.2524414, -0.2753906, -0.9980469, 15.9756098, -107.5, 38.1707344, -0.0856031
0.2543945, -0.2836914, -0.9970703, 13.9024391, -109.3292694, 38.0487823, -0.0869459
0.2744141, -0.3188477, -0.9990234, 11.4024391, -113.0487823, 40.2439041, -0.0835889
0.2915039, -0.3364258, -1.0039062, 10.5487804, -113.9024429, 41.0975609, -0.0809033
0.3227539, -0.3427734, -1.0078125, 10.8536587, -112.7439041, 42.3170738, -0.0809033
0.3232422, -0.3330078, -1.0039062, 11.341464, -110.6097565, 42.0121956, -0.0782177
0.3115234, -0.315918, -0.9775391, 11.5853662, -105.5487823, 40.6097565, -0.0782177
0.300293, -0.3105469, -0.956543, 11.1585369, -103.9024429, 39.8780479, -0.0721752
0.2583008, -0.3217773, -0.9375, 9.9390249, -104.9390259, 39.8170738, -0.0661326
0.2397461, -0.3344727, -0.9394531, 9.0243902, -106.3414688, 39.9390259, -0.0715038
0.215332, -0.3520508, -0.9760742, 8.780488, -109.146347, 40.8536606, -0.0822461
0.2158203, -0.3608398, -1.0249023, 8.9634151, -109.8780518, 41.2195129, -0.105745
0.2241211, -0.3632812, -1.0415039, 9.5121956, -109.3902435, 40.7317085, -0.1144732
0.2416992, -0.3691406, -1.0463867, 9.0853662, -107.7439041, 40.2439041, -0.0997024
0.2548828, -0.3681641, -1.0488281, 7.8048782, -106.646347, 39.8780479, -0.0691539
0.2714844, -0.3623047, -1.0512695, 6.1585369, -104.9390259, 39.0853653, -0.0379339
0.2724609, -0.355957, -1.0439453, 5.3658538, -104.0243912, 38.5975609, -0.0164492
0.2714844, -0.3417969, -1.0180664, 4.1463413, -102.2561035, 37.1341476, -0.0070497
0.2749023, -0.3334961, -0.9931641, 3.5365853, -101.1585388, 36.2195129, 0.0016785
0.2524414, -0.3300781, -0.9399414, 1.3414634, -98.5975647, 33.7195129, 0.0050355
0.2241211, -0.3334961, -0.9379883, 0.1219512, -97.8658524, 32.6829262, 0.0171206
0.1474609, -0.3422852, -0.9887695, -1.6463414, -99.8170776, 32.7439041, 0.0231632
0.1123047, -0.3598633, -1.0395508, -2.2560976, -101.4634171, 33.5975609, 0.027863
0.1245117, -0.362793, -1.043457, -3.3536587, -103.6585388, 35.3658562, 0.0352483
0.1782227, -0.3735352, -1.0083008, -3.9024391, -103.2926865, 34.3292694, 0.0332341
0.1972656, -0.3852539, -0.9980469, -3.5365853, -102.7439041, 33.5975609, 0.0292058
0.2368164, -0.4213867, -0.972168, -2.195122, -103.0487823, 33.1707306, 0.0130922
0.2509766, -0.4360352, -0.9511719, -1.1585366, -103.0487823, 33.4756088, -0.0060426
0.2641602, -0.4638672, -0.9106445, 2.5609756, -101.0365906, 33.0487823, -0.0218204
0.2490234, -0.4594727, -0.9101562, 5.2439027, -98.5975647, 31.8292694, -0.0271916
0.1757812, -0.4262695, -0.9501953, 9.5121956, -94.5121994, 29.2682934, -0.03122
0.137207, -0.3999023, -0.9838867, 10.9146347, -94.2073212, 28.0487804, -0.0379339
0.1035156, -0.3637695, -1.0126953, 10.9756098, -96.5853653, 26.8292694, -0.0392767
0.1381836, -0.3500977, -0.9580078, 9.7560978, -98.1707306, 26.3414631, -0.0396124
0.1572266, -0.3544922, -0.9208984, 7.9878049, -100.1219559, 25.3048782, -0.0419623
0.1762695, -0.3754883, -0.8774414, 8.841464, -99.0243912, 25.1219521, -0.0325628
0.1679688, -0.378418, -0.8793945, 10.6707315, -98.0487823, 25.8536587, -0.0288701
0.1264648, -0.371582, -0.9389648, 13.5365858, -96.5853653, 26.8292694, -0.0359197
0.1010742, -0.3608398, -0.9819336, 14.4512196, -96.646347, 27.560976, -0.0412909
0.0805664, -0.3295898, -1.0600586, 13.9634151, -97.9268341, 28.5365868, -0.0459907
0.0888672, -0.3149414, -1.0761719, 12.3170738, -98.1707306, 29.2682934, -0.0446479
0.1313477, -0.2973633, -1.0654297, 8.3536587, -98.1097565, 29.9390259, -0.0446479
0.1547852, -0.2939453, -1.0449219, 6.5853658, -97.1951218, 30.1829281, -0.0459907
0.1806641, -0.2900391, -0.9882812, 3.4756098, -94.3902435, 30.7317085, -0.0463264
0.1635742, -0.296875, -0.9433594, 2.3780489, -92.3780518, 30.8536587, -0.0466621
0.1318359, -0.300293, -0.9472656, 0.6097561, -89.6951218, 31.7073174, -0.0480049
0.0625, -0.3144531, -1.0087891, -0.6097561, -90.7317123, 33.2926826, -0.0436408
0.0385742, -0.3227539, -1.0566406, -1.2804878, -92.8048782, 34.5121956, -0.0339055
0.0551758, -0.3466797, -1.0996094, -3.8414636, -96.1585388, 36.2195129, -0.03122
0.0864258, -0.3662109, -1.0908203, -4.7560978, -96.7682953, 36.341465, -0.0248417
0.1538086, -0.4008789, -1.0512695, -6.4634147, -94.7561035, 35.5487823, -0.017792
0.1723633, -0.4208984, -1.0361328, -5.9146342, -93.0487823, 35, -0.011078
0.1865234, -0.4643555, -1.0214844, -2.195122, -90.3658524, 34.7560997, -0.0117494
0.1943359, -0.4750977, -0.9892578, 0.0609756, -88.8414688, 34.3902435, -0.0157778
0.1860352, -0.4707031, -0.9667969, 4.0243902, -84.5731735, 31.7073174, -0.0151064
0.1269531, -0.4467773, -0.9487305, 5.5487804, -81.8902435, 30.060976, -0.0171206
0.0859375, -0.4301758, -0.956543, 5.8536587, -78.9634171, 25.9146347, -0.0204776
0.0161133, -0.3989258, -0.972168, 3.9634147, -81.2195129, 23.2926826, -0.0318914
0, -0.394043, -0.965332, 2.6219513, -83.5365906, 22.6219521, -0.0258488
0.0146484, -0.4135742, -0.9042969, 1.2804878, -87.7439041, 21.9512196, -0.0271916
0.0292969, -0.4272461, -0.8701172, 1.9512196, -88.7195129, 21.9512196, -0.0574044
0.03125, -0.4501953, -0.8671875, 5.1829271, -88.4756088, 22.1951218, -0.0694896
0.0229492, -0.4477539, -0.8950195, 7.1951222, -88.2317123, 22.560976, -0.0574044
0.0219727, -0.4155273, -0.9555664, 10.2439022, -87.9268341, 23.1097565, -0.0399481
0.019043, -0.3813477, -0.9902344, 10.9146347, -87.5, 22.9878063, -0.0194705
0.0112305, -0.3652344, -0.9951172, 9.6951218, -86.2804871, 22.6219521, 0.0003357
0.0170898, -0.3339844, -1, 8.4756098, -85.9756088, 22.7439022, 0.0184634
0.0263672, -0.3129883, -0.9951172, 5.670732, -85.6097565, 23.5365868, 0.0258488
0.0424805, -0.2700195, -0.9863281, 1.7073171, -85.2439041, 23.7195129, 0.0271916
0.0449219, -0.2597656, -0.9892578, -0.0609756, -85.1219559, 23.3536587, 0.0157778
0.0292969, -0.2592773, -0.9980469, -5, -86.0975647, 24.7560978, 0.0023499
0.0180664, -0.2700195, -1.0024414, -7.8048782, -86.8902435, 26.4024391, -0.011078
0.0102539, -0.3017578, -0.9916992, -11.7682934, -86.7073212, 29.6951218, -0.027863
0.0102539, -0.3178711, -0.9873047, -13.2317076, -86.2804871, 30.6707325, -0.0325628
0.0053711, -0.3457031, -0.9887695, -14.8170738, -85.3048782, 31.0975609, -0.0372625
0.0029297, -0.3740234, -0.980957, -15.3658543, -85.6707306, 31.280489, -0.0500191
0.0146484, -0.390625, -0.9658203, -15.7317076, -87.3170776, 31.8902454, -0.0580758
0.0244141, -0.4101562, -0.9375, -15.4268293, -86.8902435, 31.4634151, -0.063447
0.0200195, -0.4121094, -0.9389648, -14.8780489, -85.4268341, 30.9146347, -0.070161
-0.0283203, -0.4003906, -0.9887695, -14.5121956, -83.2926865, 29.2682934, -0.0815747
-0.0541992, -0.3950195, -1.0297852, -13.9024391, -83.3536606, 29.2073174, -0.0906386
-0.0605469, -0.402832, -1.0898438, -14.1463413, -87.5609741, 30.1219521, -0.0983597
-0.0341797, -0.4116211, -1.0825195, -13.9024391, -89.5121994, 31.0365868, -0.0973526
0.0634766, -0.4418945, -1.0200195, -11.8292685, -90, 30.9756107, -0.0916457
0.1010742, -0.4555664, -0.9794922, -9.8780489, -87.9878082, 30.4878063, -0.0896315
0.1103516, -0.46875, -0.9482422, -5.1829271, -80.9146347, 28.4146347, -0.0892958
0.0493164, -0.4472656, -0.9838867, -3.1097562, -77.8658524, 27.1951218, -0.0903029
0.0019531, -0.4238281, -1.0131836, -1.1585366, -74.6341476, 25.7317085, -0.0889601
-0.0673828, -0.371582, -1.0351562, -2.6829269, -75.7926865, 23.9634151, -0.0849317
-0.0766602, -0.3613281, -1.0161133, -4.0243902, -77.0121994, 22.8658543, -0.0849317
-0.0727539, -0.3706055, -0.9375, -7.5, -80.3048782, 22.1951218, -0.0822461
-0.0581055, -0.3813477, -0.9003906, -8.9024391, -81.8902435, 22.3170738, -0.0782177
-0.0585938, -0.3950195, -0.8579102, -9.4512196, -83.1097565, 22.560976, -0.0788891
-0.0776367, -0.3901367, -0.8608398, -8.6585369, -83.1097565, 22.8048782, -0.0809033
-0.1098633, -0.3730469, -0.887207, -6.890244, -83.0487823, 23.4146347, -0.0788891
-0.1245117, -0.3598633, -0.9013672, -6.6463418, -83.0487823, 23.3536587, -0.076875
-0.1333008, -0.3339844, -0.909668, -7.1951222, -83.8414688, 23.7195129, -0.0731823
-0.1342773, -0.3378906, -0.8945312, -8.9634151, -84.8780518, 23.9024391, -0.0708324
-0.1347656, -0.3388672, -0.902832, -11.8902445, -87.9268341, 24.3902435, -0.0782177
-0.1430664, -0.3359375, -0.9580078, -15.2439032, -91.1585388, 25.4268303, -0.0748608
-0.1474609, -0.3286133, -1.0048828, -16.2195129, -92.4390259, 26.5243912, -0.070161
-0.1401367, -0.3095703, -1.0351562, -18.7195129, -92.8048782, 28.1097565, -0.0664683
-0.1181641, -0.3046875, -1.0195312, -19.939024, -92.0121994, 28.9024391, -0.0594186
-0.081543, -0.3193359, -0.9682617, -22.0121956, -89.5731735, 29.1463413, -0.0513619
-0.0820312, -0.3364258, -0.9545898, -22.560976, -88.9634171, 29.3902454, -0.0493477
-0.09375, -0.394043, -0.9604492, -21.6463413, -90.18293, 31.5243912, -0.0480049
-0.0927734, -0.4199219, -0.9633789, -20.5487804, -90.7926865, 32.6829262, -0.0446479
-0.0854492, -0.4501953, -0.9443359, -17.3170738, -89.3292694, 32.8048782, -0.0540475
-0.1254883, -0.4506836, -0.9458008, -15.7926836, -87.3170776, 31.341465, -0.0741894
-0.1640625, -0.4516602, -0.9633789, -12.6829271, -83.9634171, 28.7195129, -0.0721752
-0.2109375, -0.4326172, -0.9936523, -10.4268293, -84.5731735, 28.6585369, -0.0621042
-0.2094727, -0.4189453, -0.987793, -10.5487804, -85.8536606, 28.9024391, -0.0446479
-0.175293, -0.3759766, -0.9716797, -10.9146347, -86.5853653, 27.6829281, -0.0305486
-0.1630859, -0.3525391, -0.9731445, -11.4634151, -85.8536606, 26.7682934, -0.0191348
-0.1591797, -0.3295898, -0.96875, -13.1097565, -85.3048782, 25.4878063, -0.010071
-0.1616211, -0.3374023, -0.9584961, -14.0853662, -85.5487823, 25.9146347, -0.0057069
-0.1645508, -0.371582, -0.9335938, -14.8170738, -86.8292694, 27.560976, -0.0070497
-0.168457, -0.3896484, -0.9306641, -14.0853662, -87.1341476, 28.5975609, -0.0050355
-0.1782227, -0.4121094, -0.9165039, -10.9146347, -86.1585388, 30.3048782, -0.011078
-0.2021484, -0.3984375, -0.9311523, -9.1463413, -84.3902435, 30.3658543, -0.0191348
-0.2202148, -0.3857422, -0.9599609, -8.2317076, -82.2560959, 29.4512196, -0.0154421
-0.2392578, -0.3666992, -1.0107422, -10.6097565, -83.4756088, 29.6951218, -0.011078
-0.2353516, -0.3579102, -1.0068359, -12.6219511, -85.1219559, 30.060976, -0.017792
-0.1948242, -0.3491211, -0.9506836, -16.6463413, -85.7317123, 29.6951218, -0.0315557
-0.1811523, -0.347168, -0.921875, -18.5975609, -85.0609741, 29.0243912, -0.0426337
-0.2016602, -0.3344727, -0.9204102, -21.5243912, -83.2317123, 28.0487804, -0.0406195
-0.2290039, -0.3310547, -0.9526367, -22.0731716, -82.7439041, 28.4756107, -0.0339055
-0.2504883, -0.3413086, -1.0019531, -23.6585369, -84.3902435, 31.7682934, -0.0258488
-0.2382812, -0.3569336, -1.0039062, -24.5731716, -85.2439041, 33.0487823, -0.0191348
-0.2070312, -0.3808594, -0.9750977, -25.8536587, -84.5121994, 33.7195129, -0.017792
-0.1967773, -0.4145508, -0.9560547, -25.1829281, -83.3536606, 33.3536606, -0.0204776
-0.2001953, -0.4282227, -0.9580078, -22.6829281, -81.8292694, 33.6585388, -0.0204776
-0.1835938, -0.4487305, -0.9321289, -20.1829281, -80.6707306, 33.6585388, -0.0234989
-0.1835938, -0.4541016, -0.9130859, -19.2073174, -79.7560959, 32.8048782, -0.0365911
-0.2075195, -0.4511719, -0.9003906, -18.4146347, -77.3170776, 29.9390259, -0.0466621
-0.237793, -0.4448242, -0.9082031, -18.780489, -77.1341476, 28.9024391, -0.0466621
-0.2792969, -0.4204102, -0.9335938, -19.939024, -79.0243912, 27.6829281, -0.0621042
-0.2900391, -0.4038086, -0.9355469, -20.4878044, -80.3658524, 27.1341476, -0.0782177
-0.2788086, -0.3847656, -0.9165039, -20.6097565, -82.1341476, 25.8536587, -0.0647898
-0.2626953, -0.3891602, -0.8950195, -20.3048782, -82.9878082, 25.4878063, -0.0513619
-0.2407227, -0.4042969, -0.8676758, -20.060976, -83.4146347, 25.3658543, -0.03122
-0.2573242, -0.4057617, -0.9145508, -19.3292694, -83.6585388, 25.5487804, -0.0070497
-0.2714844, -0.3925781, -0.9580078, -18.1707325, -83.4756088, 26.5243912, 0.0016785
-0.2792969, -0.3666992, -1.0092773, -17.1341476, -83.0487823, 27.1951218, 0.0073854
-0.2636719, -0.3608398, -0.9995117, -16.9512196, -82.4390259, 26.7682934, 0.0104067
-0.2314453, -0.3789062, -0.9355469, -17.6829281, -81.3414688, 26.7682934, 0.0063783
-0.222168, -0.394043, -0.9082031, -17.8658543, -80.9146347, 26.7073174, -0.0023499
-0.2314453, -0.4082031, -0.8803711, -17.1951218, -80.8536606, 27.1951218, -0.0030213
-0.2456055, -0.4042969, -0.8833008, -16.0365849, -80.2439041, 27.5, -0.011078
-0.2880859, -0.3793945, -0.9091797, -14.4512196, -78.2317123, 27.6829281, -0.024506
-0.3129883, -0.3696289, -0.9257812, -14.2073174, -77.4390259, 27.1951218, -0.0318914
-0.3466797, -0.3510742, -0.9624023, -15.5487804, -77.9878082, 27.3170738, -0.0412909
-0.3383789, -0.3525391, -0.9882812, -17.0121956, -79.3902435, 27.8658543, -0.0486763
-0.3203125, -0.3608398, -0.9882812, -19.8170738, -82.3170776, 28.9024391, -0.0540475
-0.2685547, -0.3847656, -0.9736328, -21.4024391, -82.68293, 29.2073174, -0.0570687
-0.2441406, -0.4067383, -0.9545898, -20.9756107, -81.8902435, 29.2073174, -0.0607614
-0.2192383, -0.4575195, -0.9189453, -18.9024391, -78.6585388, 29.4512196, -0.0594186
-0.2246094, -0.4716797, -0.9140625, -16.9512196, -76.8902435, 29.4512196, -0.0527047
-0.2626953, -0.4648438, -0.9399414, -13.6585369, -73.0487823, 28.7195129, -0.0486763
-0.2880859, -0.4389648, -0.9516602, -12.8658543, -71.4024429, 27.9268303, -0.0513619
-0.3286133, -0.3540039, -0.9482422, -14.6341467, -68.9634171, 24.6951218, -0.052369
-0.3452148, -0.3144531, -0.9248047, -16.8902435, -68.4756088, 22.8658543, -0.0446479
-0.3745117, -0.2724609, -0.8691406, -22.6829281, -70.18293, 20.060976, -0.0271916
-0.3950195, -0.2983398, -0.824707, -25.3658543, -72.2560959, 19.6341476, -0.0198062
-0.3935547, -0.331543, -0.8100586, -28.5975609, -76.7682953, 20.9756107, -0.017792
-0.3842773, -0.3916016, -0.8061523, -28.6585369, -80.3048782, 23.2317085, -0.0325628
-0.3886719, -0.4135742, -0.8232422, -27.560976, -80.9146347, 23.9024391, -0.0527047
-0.390625, -0.4189453, -0.8642578, -25.6707325, -80.3048782, 24.2073174, -0.0654612
-0.390625, -0.4003906, -0.8740234, -24.9390259, -79.3902435, 23.5365868, -0.0694896
-0.3920898, -0.3359375, -0.8720703, -26.5243912, -76.9512177, 21.280489, -0.0624399
-0.4018555, -0.3081055, -0.8588867, -28.2926826, -76.0365906, 19.5121956, -0.0520333
-0.4160156, -0.2832031, -0.8237305, -32.2560997, -76.4024429, 18.0487804, -0.0352483
-0.4262695, -0.2929688, -0.8242188, -33.2317085, -78.0487823, 18.4756107, -0.0208133
-0.4458008, -0.34375, -0.8950195, -32.3170738, -83.9024429, 21.6463413, -0.0164492
-0.4047852, -0.4042969, -0.9555664, -30.2439022, -86.4024429, 24.3292694, -0.0151064
-0.3569336, -0.4238281, -0.9418945, -25.6707325, -86.646347, 28.780489, -0.0218204
-0.2895508, -0.4316406, -0.8862305, -21.7073174, -78.7195129, 26.8902454, -0.0406195
-0.3007812, -0.425293, -0.8847656, -20.4878044, -73.9634171, 24.8170738, -0.0584115
-0.3666992, -0.3925781, -0.9365234, -19.5121956, -70.4878082, 22.5, -0.073518
-0.3955078, -0.3808594, -0.9506836, -19.8780499, -71.2804871, 22.3780499, -0.081239
-0.3964844, -0.3740234, -0.9199219, -20.2439022, -74.6951218, 22.6219521, -0.0822461
-0.3886719, -0.3803711, -0.8945312, -19.6951218, -74.6951218, 21.9512196, -0.0876173
-0.3813477, -0.3925781, -0.8710938, -17.2560978, -74.1463394, 20.5487804, -0.0970169
-0.3876953, -0.4018555, -0.8857422, -15.7926836, -73.5365906, 20.7926826, -0.0916457
-0.3896484, -0.4116211, -0.9057617, -12.8048782, -72.9268341, 21.4024391, -0.0876173
-0.3891602, -0.3950195, -0.8979492, -12.3170738, -72.7439041, 21.4024391, -0.0862745
-0.3925781, -0.3779297, -0.8857422, -12.6219511, -70.6707306, 20, -0.0872816
-0.4135742, -0.3374023, -0.8603516, -13.6585369, -68.1707306, 18.4756107, -0.0916457
-0.4291992, -0.3110352, -0.8466797, -15.060976, -67.2560959, 18.0487804, -0.0916457
-0.4492188, -0.2568359, -0.8095703, -18.7195129, -67.2560959, 17.2560978, -0.0923171
-0.465332, -0.2368164, -0.7905273, -21.1585369, -67.5609741, 16.5243912, -0.0970169
-0.4970703, -0.2241211, -0.7558594, -26.4634151, -69.3902435, 16.0975609, -0.0956741
-0.5141602, -0.2456055, -0.734375, -29.3292694, -71.4634171, 16.280489, -0.0936599
-0.5180664, -0.2988281, -0.7001953, -32.3170738, -76.2804871, 19.0243912, -0.0889601
-0.5136719, -0.3193359, -0.6875, -32.4390259, -78.0487823, 20.1829281, -0.0809033
-0.5102539, -0.3369141, -0.6962891, -32.8048782, -78.9634171, 20.8536587, -0.0762036
-0.5375977, -0.3212891, -0.7592773, -33.1097565, -78.7804871, 20.3658543, -0.0661326
-0.5517578, -0.3076172, -0.793457, -34.9390259, -78.8414688, 20.3048782, -0.0621042
-0.5429688, -0.2866211, -0.8237305, -39.6341476, -81.1585388, 20.6097565, -0.06009
-0.5219727, -0.2792969, -0.8056641, -42.0731735, -82.4390259, 20.7317085, -0.056733
-0.4892578, -0.2734375, -0.7661133, -45.7317085, -82.68293, 20, -0.0557259
-0.4926758, -0.2768555, -0.7758789, -46.5243912, -82.3170776, 19.6341476, -0.0553902
-0.5136719, -0.2822266, -0.855957, -46.6463432, -82.8658524, 21.8902435, -0.0553902
-0.5083008, -0.2910156, -0.8891602, -46.7682953, -83.7195129, 23.5365868, -0.0500191
-0.4794922, -0.3305664, -0.9414062, -44.8780479, -84.9390259, 26.0975609, -0.0433051
-0.4716797, -0.3588867, -0.965332, -42.5609779, -85.0609741, 27.4390259, -0.0396124
-0.4238281, -0.4042969, -0.9833984, -34.9390259, -82.8658524, 30.1219521, -0.0352483
-0.3710938, -0.409668, -0.9311523, -30.7926846, -79.6951218, 30.9146347, -0.0325628
-0.355957, -0.4057617, -0.9013672, -22.8658543, -71.2195129, 28.9024391, -0.0325628
-0.3891602, -0.3984375, -0.8574219, -18.780489, -64.4512177, 24.3902435, -0.0298772
-0.4257812, -0.402832, -0.8413086, -17.7439022, -63.1097565, 23.0487804, -0.0298772
-0.5151367, -0.4057617, -0.8310547, -15.9756098, -64.7560959, 21.4634151, -0.0265202
-0.550293, -0.4077148, -0.84375, -15, -66.7682953, 21.5853672, -0.0271916
-0.5776367, -0.3842773, -0.8867188, -11.4024391, -70.2439041, 22.3170738, -0.0271916
-0.5688477, -0.3652344, -0.8930664, -9.9390249, -71.0365906, 22.0121956, -0.0292058
-0.519043, -0.3461914, -0.8569336, -9.2073174, -70.9146347, 19.939024, -0.03122
-0.4970703, -0.3393555, -0.8261719, -10.3048782, -70.2439041, 19.1463413, -0.0292058
-0.4975586, -0.3310547, -0.8095703, -12.5, -69.0853653, 17.8048782, -0.024506
-0.5332031, -0.3051758, -0.8457031, -13.6585369, -69.0853653, 17.8658543, -0.0258488
-0.550293, -0.2900391, -0.8520508, -15.8536587, -69.9390259, 19.0853672, -0.027863
-0.5444336, -0.2583008, -0.7954102, -18.2926826, -69.5731735, 20.4268303, -0.027863
-0.5424805, -0.2446289, -0.7412109, -19.6341476, -69.0243912, 20.1829281, -0.024506
-0.5703125, -0.2358398, -0.6665039, -21.8292694, -68.1707306, 18.7195129, -0.0164492
-0.6010742, -0.2373047, -0.6660156, -23.5365868, -69.1463394, 18.780489, -0.011078
-0.6606445, -0.2485352, -0.730957, -27.8048782, -74.3292694, 20.4268303, -0.017792
-0.6787109, -0.2553711, -0.7807617, -29.9390259, -77.9268341, 21.6463413, -0.0164492
-0.6738281, -0.2568359, -0.8637695, -33.0487823, -83.7804871, 23.9024391, -0.0137636
-0.6513672, -0.2636719, -0.8710938, -34.3902435, -84.8780518, 24.6951218, -0.0097353
-0.5664062, -0.2749023, -0.8330078, -36.2804871, -84.3292694, 25.7317085, -0.0083925
-0.5151367, -0.2724609, -0.7827148, -37.6219521, -82.9878082, 25.8536587, -0.0016785
-0.5175781, -0.2695312, -0.777832, -39.8780479, -78.7195129, 25, 0.0050355
-0.5644531, -0.2441406, -0.8217773, -41.7073174, -77.2560959, 24.5731716, 0.0010071
-0.5922852, -0.2509766, -0.8520508, -42.4390259, -78.3536606, 25, -0.0137636
-0.6206055, -0.2983398, -0.9287109, -42.5, -83.2317123, 27.3780499, -0.0265202
-0.6166992, -0.3300781, -0.9682617, -41.341465, -85.9146347, 29.5121956, -0.0285344
-0.5566406, -0.3823242, -0.9907227, -36.2195129, -86.7682953, 33.9634171, -0.03122
-0.5039062, -0.3896484, -0.9614258, -32.1341476, -84.3902435, 35.1219521, -0.0234989
-0.4243164, -0.3774414, -0.8344727, -25.1829281, -74.1463394, 32.7439041, -0.0124208
-0.4643555, -0.340332, -0.7573242, -22.439024, -68.6585388, 29.9390259, -0.0036927
-0.5322266, -0.3237305, -0.7685547, -21.280489, -63.1707344, 25.2439022, -0.0050355
-0.6650391, -0.3032227, -0.8476562, -22.3170738, -64.6951218, 24.6341476, -0.0030213
-0.7045898, -0.3017578, -0.8798828, -24.7560978, -72.1341476, 26.0365868, -0.0060426
-0.6923828, -0.3139648, -0.8896484, -25.7926826, -78.7804871, 27.560976, -0.0083925
-0.6513672, -0.3251953, -0.8847656, -25.7317085, -80.2439041, 27.5, -0.0204776
-0.5732422, -0.3310547, -0.8935547, -24.4512196, -78.7804871, 27.6829281, -0.0302129
-0.5493164, -0.3266602, -0.9033203, -23.9024391, -77.2560959, 27.8048782, -0.0365911
-0.5131836, -0.3012695, -0.8974609, -24.0243912, -73.0487823, 27.9268303, -0.0352483
-0.503418, -0.2807617, -0.8740234, -24.3292694, -70.7926865, 27.560976, -0.0379339
-0.5195312, -0.237793, -0.8046875, -25.3048782, -66.1585388, 25.7317085, -0.0446479
-0.5883789, -0.2216797, -0.7675781, -26.6463413, -65.0609741, 25, -0.0513619
-0.6264648, -0.237793, -0.7680664, -29.0243912, -66.8292694, 24.9390259, -0.06009
-0.6713867, -0.2944336, -0.78125, -30.6097565, -69.8780518, 26.0975609, -0.0661326
-0.6757812, -0.3173828, -0.7890625, -32.2560997, -76.7682953, 28.5365868, -0.0627756
-0.6630859, -0.3227539, -0.7924805, -31.341465, -78.8414688, 29.7560978, -0.070161
-0.6503906, -0.3017578, -0.7836914, -30.8536587, -77.1951218, 29.2073174, -0.0755322
-0.6352539, -0.2426758, -0.762207, -32.1951218, -73.5975647, 27.0731716, -0.0755322
-0.6376953, -0.2167969, -0.7524414, -34.2682953, -72.4390259, 25.4268303, -0.0775463
-0.6616211, -0.1943359, -0.7734375, -40, -74.9390259, 23.780489, -0.0809033
-0.6757812, -0.2084961, -0.7915039, -42.5609779, -78.4146347, 23.780489, -0.073518
-0.6547852, -0.284668, -0.8081055, -43.9024391, -85.9146347, 26.5853672, -0.0728466
-0.6025391, -0.3554688, -0.7924805, -42.1341476, -88.1707306, 28.1707325, -0.0654612
-0.5820312, -0.3666992, -0.7827148, -36.8902435, -86.0365906, 29.5731716, -0.0607614
-0.5864258, -0.3291016, -0.7841797, -32.0731697, -78.0487823, 29.2073174, -0.073518
-0.6074219, -0.2924805, -0.7885742, -31.341465, -74.6951218, 28.1707325, -0.0889601
-0.6640625, -0.2294922, -0.7954102, -32.5609779, -72.7439041, 25.7926826, -0.0916457
-0.6777344, -0.2124023, -0.7924805, -34.7560997, -74.0853653, 25, -0.0849317
-0.6928711, -0.2202148, -0.7958984, -38.7804871, -79.9390259, 24.6951218, -0.0553902
-0.6923828, -0.2348633, -0.8007812, -39.8780479, -82.8658524, 25.1829281, -0.0339055
-0.6577148, -0.2773438, -0.7885742, -38.4756088, -85.5487823, 27.5, -0.0083925
-0.6259766, -0.2954102, -0.7583008, -36.0365868, -85.3658524, 28.2317085, 0.014435
-0.5917969, -0.3085938, -0.6933594, -30.6097565, -82.2560959, 27.6829281, 0.0285344
-0.6367188, -0.3100586, -0.7529297, -28.5365868, -80.2439041, 27.0731716, 0.0453193
-0.6767578, -0.2954102, -0.8149414, -27.2560978, -78.9634171, 27.9268303, 0.0480049
-0.7036133, -0.2509766, -0.9038086, -28.3536587, -80.6097565, 30.2439022, 0.0466621
-0.6958008, -0.2275391, -0.9042969, -29.3292694, -80.9146347, 30.3658543, 0.0409552
-0.652832, -0.2001953, -0.828125, -31.2195129, -79.4512177, 29.4512196, 0.0345769
-0.6396484, -0.1933594, -0.7783203, -32.0121956, -77.8658524, 29.0243912, 0.0258488
-0.6396484, -0.1958008, -0.7099609, -34.3292694, -76.2195129, 28.6585369, 0.0124208
-0.6513672, -0.2036133, -0.6928711, -35.7926826, -76.2804871, 29.0853672, -0.003357
-0.6801758, -0.2250977, -0.652832, -36.4634171, -78.2926865, 30.4268303, -0.0164492
-0.6928711, -0.2387695, -0.637207, -36.1585388, -78.9634171, 30.9146347, -0.0332341
-0.737793, -0.2456055, -0.644043, -35.6097565, -79.6341476, 31.280489, -0.0493477
-0.7827148, -0.2358398, -0.7338867, -35.7317085, -79.5121994, 31.4024391, -0.0594186
-0.7836914, -0.2348633, -0.7626953, -37.5609779, -82.1341476, 32.3170738, -0.0647898
-0.7373047, -0.2460938, -0.7382812, -40.3658562, -85.1219559, 32.6219521, -0.0674754
-0.6987305, -0.2553711, -0.6953125, -41.4634171, -85.6097565, 31.7073174, -0.0708324
-0.6630859, -0.2451172, -0.6152344, -42.2560997, -83.3536606, 28.9634151, -0.0661326
-0.6694336, -0.2338867, -0.5927734, -42.3170738, -81.4024429, 27.9268303, -0.0681468
-0.7036133, -0.2119141, -0.5649414, -42.5, -79.5731735, 26.280489, -0.0755322
-0.722168, -0.215332, -0.5493164, -42.5, -80.4878082, 25.9756107, -0.0782177
-0.753418, -0.2558594, -0.5356445, -41.1585388, -84.8780518, 25.8536587, -0.0715038
-0.7626953, -0.2802734, -0.5390625, -40.0609779, -86.9512253, 26.0365868, -0.070161
-0.7675781, -0.3178711, -0.578125, -37.5609779, -88.0487823, 26.2195129, -0.0674754
-0.7558594, -0.2998047, -0.6484375, -36.9512215, -87.4390259, 25.3658543, -0.070161
-0.7543945, -0.2700195, -0.6767578, -37.3170738, -85.0609741, 23.1707325, -0.0741894
-0.7373047, -0.2275391, -0.6914062, -37.9878044, -84.3902435, 20.6707325, -0.0728466
-0.7167969, -0.2133789, -0.6635742, -38.2926826, -84.7560959, 19.5121956, -0.0788891
-0.6660156, -0.2089844, -0.5771484, -37.3170738, -84.4512253, 18.3536587, -0.0748608
-0.6601562, -0.2143555, -0.5517578, -36.7073174, -83.5975647, 17.439024, -0.0728466
-0.6870117, -0.2255859, -0.5742188, -34.8780479, -81.2804871, 17.3780499, -0.0681468
-0.715332, -0.2250977, -0.6162109, -34.2073174, -80.3658524, 18.4756107, -0.056733
-0.7475586, -0.2236328, -0.6767578, -32.6219521, -79.3902435, 21.0975609, -0.0433051
-0.7485352, -0.2250977, -0.6855469, -32.0731697, -79.2682953, 22.0121956, -0.035584
-0.7304688, -0.2246094, -0.6923828, -31.341465, -77.8048782, 22.0121956, -0.024506
-0.7211914, -0.2211914, -0.699707, -31.4634151, -76.8902435, 21.3414631, -0.0181277
-0.706543, -0.2197266, -0.6826172, -31.4634151, -75.2439041, 21.2195129, -0.0151064
-0.671875, -0.2202148, -0.6020508, -31.0365868, -74.5121994, 20.5487804, -0.0151064
-0.6733398, -0.2182617, -0.5610352, -30.3658543, -73.6585388, 19.7560978, -0.0191348
-0.7109375, -0.2084961, -0.5419922, -29.3292694, -71.0365906, 19.5121956, -0.0191348
-0.7456055, -0.1948242, -0.5566406, -29.0853672, -69.8780518, 20.4268303, -0.0224918
-0.7861328, -0.184082, -0.5932617, -29.7560978, -69.2073212, 22.6829281, -0.0285344
-0.7919922, -0.1831055, -0.6015625, -30.2439022, -68.6585388, 23.1707325, -0.027863
-0.7832031, -0.1948242, -0.5976562, -31.5243912, -67.5609741, 23.6585369, -0.0365911
-0.7695312, -0.199707, -0.5932617, -32.6219521, -66.8292694, 23.3536587, -0.0406195
-0.746582, -0.2080078, -0.5712891, -35.0609779, -65.3658524, 22.6219521, -0.0446479
-0.7285156, -0.2148438, -0.5371094, -36.4634171, -64.5731735, 21.9512196, -0.0473335
-0.7358398, -0.2158203, -0.5317383, -38.3536606, -63.9634171, 20.3658543, -0.0540475
-0.7553711, -0.2299805, -0.5185547, -37.3780479, -64.2682953, 20.5487804, -0.0647898
-0.7617188, -0.234375, -0.5083008, -36.2195129, -64.1463394, 21.1585369, -0.0741894
-0.7612305, -0.2368164, -0.4692383, -32.7439041, -63.1707344, 21.4024391, -0.0755322
-0.7612305, -0.2275391, -0.4501953, -31.8902454, -61.8902435, 20.6707325, -0.0580758
-0.7749023, -0.2246094, -0.4433594, -31.7682934, -60.6707344, 18.8414631, -0.0332341
-0.7866211, -0.2275391, -0.4550781, -32.1951218, -60.8536606, 18.1707325, -0.0083925
-0.7944336, -0.2270508, -0.5039062, -33.7195129, -62.8658562, 17.8048782, 0.0077211
-0.7802734, -0.2182617, -0.5239258, -34.2073174, -63.6585388, 17.3780499, 0.0114137
-0.7490234, -0.2055664, -0.5200195, -34.1463432, -63.2317085, 15.9146347, 0.0117494
-0.7036133, -0.2084961, -0.46875, -34.0853653, -62.3780518, 14.6951227, 0.0063783
-0.6875, -0.2177734, -0.4433594, -32.6829262, -60.9146347, 12.2560978, -0.0090639
-0.6972656, -0.2446289, -0.418457, -29.7560978, -60.18293, 10.6707315, -0.0164492
-0.7089844, -0.2568359, -0.4165039, -27.8658543, -59.8780518, 10.5487804, -0.024506
-0.7304688, -0.2651367, -0.4365234, -22.9268303, -58.0487823, 9.9390249, -0.0328985
-0.7480469, -0.2529297, -0.4580078, -20.7926826, -56.8902435, 9.0243902, -0.0298772
-0.7700195, -0.2368164, -0.4848633, -18.1707325, -55.7926826, 7.7439027, -0.0661326
-0.7705078, -0.2382812, -0.4667969, -17.0121956, -56.0975609, 7.0731707, -0.1352865
-0.7402344, -0.2490234, -0.3710938, -15, -57.5609779, 4.8170733, -0.1802701
-0.7329102, -0.2558594, -0.3310547, -12.7439032, -57.9878044, 3.2926829, -0.1628138
-0.7626953, -0.2451172, -0.3730469, -9.0243902, -57.5, 2.0121951, -0.1144732
-0.8017578, -0.2167969, -0.5234375, -7.7439027, -57.68293, 3.1097562, -0.0486763
-0.7924805, -0.1967773, -0.5795898, -6.280488, -58.9024391, 7.0731707, 0.0265202
-0.7416992, -0.1259766, -0.5976562, -7.0121951, -55.4878044, 7.7439027, 0.0856031
-0.7260742, -0.0913086, -0.5742188, -7.9268293, -51.6463432, 6.280488, 0.1164874
-0.7236328, -0.0629883, -0.5678711, -12.6219511, -45.7926826, 4.2073174, 0.1285725
-0.7260742, -0.0688477, -0.5742188, -16.0365849, -45.3658562, 4.3292685, 0.1205158
-0.7094727, -0.1171875, -0.5400391, -21.2195129, -47.6829262, 5.9756098, 0.0936599
-0.6943359, -0.1533203, -0.4892578, -21.7682934, -48.6585388, 6.3414636, 0.0553902
-0.6767578, -0.2211914, -0.3984375, -20.060976, -46.6463432, 5.9756098, 0.0184634
-0.6918945, -0.2373047, -0.3793945, -18.9634151, -44.2682953, 5.7926831, -0.0083925
-0.7543945, -0.2114258, -0.4111328, -18.5975609, -38.841465, 4.8780489, -0.0359197
-0.8208008, -0.1411133, -0.4726562, -19.5731716, -37.3170738, 4.6341462, -0.06009
-0.8408203, -0.1123047, -0.4882812, -24.5731716, -37.5, 2.804878, -0.0782177
-0.8242188, -0.109375, -0.4790039, -29.7560978, -41.2804871, 2.0731707, -0.0869459
-0.7983398, -0.1313477, -0.4570312, -30.6707325, -42.9268303, 2.4390244, -0.0889601
-0.7246094, -0.1865234, -0.3989258, -30.1829281, -43.7804871, 2.9268293, -0.0970169
-0.6933594, -0.2119141, -0.3691406, -29.0853672, -42.1951218, 3.1707318, -0.0983597
-0.6704102, -0.2290039, -0.3359375, -25.1829281, -36.7682953, 2.195122, -0.0983597
-0.6918945, -0.2246094, -0.347168, -23.7195129, -33.6585388, 1.1585366, -0.0997024
-0.7617188, -0.171875, -0.4189453, -22.7439022, -29.7560978, -0.4878049, -0.0960098
-0.7949219, -0.1523438, -0.4555664, -22.9268303, -29.3292694, -0.7926829, -0.0923171
-0.8276367, -0.1416016, -0.4892578, -24.1463413, -31.2195129, -0.3658537, -0.0923171
-0.7836914, -0.1796875, -0.4672852, -23.780489, -32.6829262, 0.4878049, -0.0976883
-0.7460938, -0.1972656, -0.4467773, -21.7073174, -33.6585388, 2.6219513, -0.1050736
-0.6953125, -0.1928711, -0.4301758, -18.1097565, -28.2317085, 2.9878049, -0.109102
-0.6948242, -0.1796875, -0.4492188, -17.3170738, -24.2073174, 2.6829269, -0.1064164
-0.7329102, -0.1479492, -0.5214844, -17.5, -18.2926826, 2.0121951, -0.1030594
-0.7519531, -0.1337891, -0.5429688, -17.6219521, -17.439024, 2.5, -0.1010452
-0.7548828, -0.1298828, -0.4780273, -16.280489, -18.1097565, 3.3536587, -0.0976883
-0.7407227, -0.1435547, -0.4013672, -14.6951227, -18.4146347, 3.4146342, -0.0933242
-0.7226562, -0.1948242, -0.2695312, -10.060976, -17.5, 2.5609756, -0.0862745
-0.7285156, -0.2177734, -0.2460938, -8.1097565, -16.9512196, 1.7682927, -0.0762036
-0.7851562, -0.2338867, -0.2929688, -6.3414636, -15.3658543, 1.2195122, -0.0704967
-0.8500977, -0.1977539, -0.4077148, -6.3414636, -15.060976, 1.2804878, -0.0553902
-0.8662109, -0.1660156, -0.4589844, -7.3780489, -15.4878054, 1.0365853, -0.0419623
-0.8461914, -0.1142578, -0.4902344, -8.841464, -16.0365849, 1.5243902, -0.0328985
-0.8173828, -0.0986328, -0.4736328, -9.6951218, -15.6097565, 1.7682927, -0.027863
-0.7363281, -0.0927734, -0.4223633, -10.2439022, -14.0243902, 1.5853659, -0.0352483
-0.7133789, -0.1025391, -0.3881836, -10.4878054, -12.8658543, 1.8292683, -0.0446479
-0.6923828, -0.137207, -0.3432617, -10.4878054, -10.9146347, 1.6463414, -0.0412909
-0.6948242, -0.1552734, -0.3339844, -9.5731707, -10.060976, 1.8292683, -0.0453193
-0.7387695, -0.1899414, -0.3261719, -7.6829271, -8.5365858, 2.6219513, -0.0392767
-0.7631836, -0.2070312, -0.3242188, -6.280488, -7.9268293, 3.1707318, -0.0231632
-0.7954102, -0.2172852, -0.3227539, -2.8658538, -7.1341467, 4.2073174, -0.0070497
-0.8071289, -0.1982422, -0.3125, -1.097561, -6.5243902, 4.1463413, -0.0003357
-0.8032227, -0.1743164, -0.3051758, 1.4634147, -5.609756, 2.9268293, 0.0117494
-0.7949219, -0.1196289, -0.3208008, 1.3414634, -4.7560978, 1.0365853, 0.0130922
-0.7993164, -0.0996094, -0.3417969, 0.0609756, -4.390244, -0.1829268, 0.014435
-0.7929688, -0.0908203, -0.3623047, -3.7804878, -4.8780489, -1.2195122, 0.0097353
-0.7807617, -0.1030273, -0.3574219, -5.1219511, -5.4878049, -1.1585366, 0.0016785
-0.7514648, -0.1367188, -0.3359375, -5.9146342, -5.3658538, -1.7682927, -0.0083925
-0.7407227, -0.1547852, -0.3325195, -5.7926831, -4.7560978, -1.7682927, -0.014435
-0.7382812, -0.1723633, -0.3359375, -4.4512196, -2.195122, -1.5853659, -0.017792
-0.7387695, -0.1762695, -0.3237305, -3.4146342, -1.2804878, -1.5853659, -0.0204776
-0.7548828, -0.1640625, -0.2924805, -2.0731707, 0.4268293, -2.3170731, -0.0251774
-0.7861328, -0.1342773, -0.2958984, -1.7073171, 1.3414634, -2.7439024, -0.0325628
-0.8032227, -0.1176758, -0.3129883, -2.5609756, 2.6829269, -2.5, -0.0365911
-0.8266602, -0.0991211, -0.3574219, -4.3292685, 1.7682927, -1.6463414, -0.03122
-0.8203125, -0.0961914, -0.3803711, -4.9390244, 1.0365853, -0.9146342, -0.0318914
-0.7875977, -0.1079102, -0.4296875, -5.670732, 0.8536586, 1.2804878, -0.0265202
-0.7646484, -0.1157227, -0.4316406, -5.3658538, 1.1585366, 2.3780489, -0.0271916
-0.7060547, -0.125, -0.3886719, -4.2073174, 4.4512196, 3.2926829, -0.0342412
-0.6938477, -0.1230469, -0.3647461, -3.3536587, 7.0121951, 3.0487804, -0.0379339
-0.7182617, -0.1176758, -0.3803711, -3.7195122, 12.4390249, 2.6219513, -0.0412909
-0.7451172, -0.1049805, -0.4086914, -4.6951222, 14.2682934, 3.1097562, -0.0412909
-0.7817383, -0.0952148, -0.4194336, -7.3780489, 14.4512196, 5, -0.0399481
-0.7797852, -0.1108398, -0.3583984, -7.9268293, 14.3292685, 5.4268293, -0.0466621
-0.7724609, -0.1254883, -0.3237305, -7.2560978, 14.8780489, 5.2439027, -0.0547189
-0.7719727, -0.1606445, -0.3232422, -5, 16.7073174, 5.3048782, -0.0553902
-0.7729492, -0.1738281, -0.3408203, -4.390244, 17.3780499, 5.9756098, -0.0594186
-0.7597656, -0.1918945, -0.362793, -3.1097562, 17.439024, 6.7073174, -0.0661326
-0.7509766, -0.2011719, -0.3623047, -2.1341465, 17.8658543, 6.5243902, -0.0661326
-0.7236328, -0.203125, -0.375, -0.1829268, 19.8170738, 5.609756, -0.0621042
-0.7167969, -0.1987305, -0.4003906, -0.0609756, 21.4634151, 5.1219511, -0.0661326
-0.7275391, -0.1645508, -0.4458008, -1.4634147, 25.6097565, 4.3292685, -0.0647898
-0.7192383, -0.1484375, -0.4140625, -2.3170731, 27.0731716, 3.8414636, -0.070161
-0.7119141, -0.1484375, -0.3632812, -2.9268293, 28.3536587, 2.5, -0.0741894
-0.7045898, -0.1552734, -0.2666016, -2.4390244, 29.3902454, 1.8902439, -0.0715038
-0.7167969, -0.1591797, -0.2485352, -1.097561, 31.0365868, 0.6097561, -0.063447
-0.7524414, -0.1796875, -0.2739258, -0.2439024, 31.7073174, 0.4268293, -0.0459907
-0.7724609, -0.190918, -0.3027344, 0.4268293, 31.4024391, 0.9146342, -0.0164492
-0.777832, -0.2109375, -0.3359375, 1.7682927, 29.9390259, 1.1585366, 0.0036927
-0.7612305, -0.2250977, -0.3393555, 3.0487804, 29.5731716, 0.7926829, 0.017792
-0.7246094, -0.2416992, -0.3461914, 6.0975609, 30.4268303, -0.4268293, 0.0305486
-0.7114258, -0.2470703, -0.3618164, 7.7439027, 31.7682934, -1.1585366, 0.0396124
-0.6967773, -0.234375, -0.4003906, 9.8780489, 34.8170738, -1.9512196, 0.0372625
-0.6787109, -0.2080078, -0.40625, 10.8536587, 36.2195129, -1.8292683, 0.021149
-0.6723633, -0.1933594, -0.4003906, 12.1341467, 38.4146347, -2.7439024, 0.0036927
-0.6845703, -0.1586914, -0.425293, 12.1341467, 40, -3.1707318, -0.0137636
-0.7026367, -0.1459961, -0.4584961, 11.0975609, 42.6219521, -2.8658538, -0.0218204
-0.715332, -0.1303711, -0.503418, 10.1219511, 43.841465, -0.1219512, -0.0298772
-0.7016602, -0.1328125, -0.5068359, 10.1219511, 44.0853653, 1.5853659, -0.0352483
-0.6733398, -0.1264648, -0.4736328, 9.6951218, 47.3780518, 2.5609756, -0.0399481
-0.6650391, -0.1293945, -0.4511719, 10, 49.7560997, 2.3780489, -0.0473335
-0.6665039, -0.1435547, -0.4306641, 9.0853662, 54.1463432, 1.4634147, -0.0627756
-0.6738281, -0.1523438, -0.4467773, 8.0487804, 54.8170738, 1.4634147, -0.0758679
-0.6884766, -0.1640625, -0.5058594, 4.390244, 55.2439041, 2.2560976, -0.0809033
-0.6884766, -0.1660156, -0.5185547, 2.804878, 55.7317085, 2.6219513, -0.0822461
-0.6791992, -0.1669922, -0.4975586, 0.1219512, 57.0731735, 2.4390244, -0.0815747
-0.6660156, -0.1884766, -0.4321289, 0.4268293, 59.0853691, 1.7682927, -0.0782177
-0.6611328, -0.2016602, -0.409668, 0.9756098, 60.1219521, 1.2195122, -0.0728466
-0.6606445, -0.2260742, -0.3901367, 2.2560976, 61.341465, 0.6707317, -0.0637827
-0.6625977, -0.2353516, -0.3911133, 2.3780489, 61.6463432, 0.2439024, -0.0614328
-0.6787109, -0.2426758, -0.375, 2.804878, 61.6463432, -1.402439, -0.0574044
-0.6875, -0.2524414, -0.3515625, 3.2926829, 62.3170738, -2.8658538, -0.06009
-0.7041016, -0.2666016, -0.3120117, 5.3658538, 61.4024391, -4.8780489, -0.06009
-0.7104492, -0.2807617, -0.2949219, 6.890244, 61.0975609, -6.0365853, -0.0607614
-0.7202148, -0.2998047, -0.3134766, 11.0365858, 59.5121956, -7.8048782, -0.066804
-0.7329102, -0.2861328, -0.4379883, 12.3170738, 58.7804909, -8.5365858, -0.0775463
-0.7373047, -0.262207, -0.5205078, 12.0121956, 58.5365868, -7.9268293, -0.073518
-0.7104492, -0.1850586, -0.6088867, 8.3536587, 59.9390259, -6.7682929, -0.063447
-0.6801758, -0.140625, -0.6020508, 6.2195125, 61.341465, -6.7073174, -0.0580758
-0.628418, -0.0844727, -0.5078125, 3.1097562, 65.2439041, -10.4878054, -0.0500191
-0.6152344, -0.0732422, -0.4511719, 1.8902439, 67.1951218, -12.5, -0.0406195
-0.6171875, -0.1040039, -0.3681641, 0.7926829, 68.5975647, -13.4146347, -0.0325628
-0.6293945, -0.1254883, -0.3588867, 0, 67.9878082, -12.7439032, -0.0224918
-0.6601562, -0.1738281, -0.4033203, -1.097561, 65.9146347, -9.3292685, -0.0208133
-0.6787109, -0.1918945, -0.4443359, -1.7073171, 65, -7.2560978, -0.024506
-0.6875, -0.2207031, -0.5317383, -1.7073171, 65.2439041, -3.0487804, -0.0285344
-0.6767578, -0.2265625, -0.6181641, -1.2195122, 66.4024429, -1.2804878, -0.0382696
-0.6674805, -0.2202148, -0.6547852, 0.7926829, 71.2195129, 0.7317073, -0.0473335
-0.6225586, -0.1958008, -0.6655273, 2.2560976, 76.1585388, 0.8536586, -0.0674754
-0.5922852, -0.1958008, -0.6425781, 2.9268293, 78.5975647, -0.2439024, -0.0866102
-0.5214844, -0.1962891, -0.5556641, 2.6219513, 81.0975647, -2.5, -0.0795605
-0.5058594, -0.2045898, -0.5253906, 2.0731707, 82.3170776, -3.7195122, -0.0876173
-0.5234375, -0.2075195, -0.5068359, 0.0609756, 85.5487823, -5.0609756, -0.0892958
-0.5483398, -0.1982422, -0.5170898, -0.6707317, 87.3170776, -4.7560978, -0.066804
-0.609375, -0.1762695, -0.5419922, -1.4634147, 90, -4.2682929, -0.0271916
-0.6352539, -0.171875, -0.5498047, -1.2804878, 90.0609741, -4.0853658, 0.0151064
-0.6625977, -0.1943359, -0.5551758, 0.1219512, 88.7195129, -4.0243902, 0.0453193
-0.6499023, -0.2543945, -0.5820312, 0.7317073, 87.1951218, -3.9634147, 0.0627756
-0.6386719, -0.2788086, -0.6074219, 1.8292683, 84.5731735, -3.5975611, 0.0641184
-0.5961914, -0.300293, -0.628418, 3.1097562, 85.6097565, -3.2926829, 0.0506905
-0.5708008, -0.2998047, -0.6132812, 3.9024391, 87.5, -3.9634147, 0.0318914
-0.5410156, -0.2822266, -0.5532227, 6.5243902, 93.3536606, -7.1951222, 0.0077211
-0.5419922, -0.2685547, -0.5307617, 7.2560978, 96.1585388, -9.0243902, -0.014435
-0.5751953, -0.2250977, -0.5410156, 7.0731707, 99.8780518, -12.0121956, -0.0359197
-0.6030273, -0.2016602, -0.5639648, 6.2195125, 100.6707306, -12.7439032, -0.0503548
-0.6455078, -0.1621094, -0.6201172, 1.9512196, 99.2073212, -13.2926836, -0.0809033
-0.6542969, -0.1523438, -0.6401367, -0.9146342, 97.68293, -12.8048782, -0.1040665
-0.637207, -0.1567383, -0.6430664, -6.6463418, 94.6341476, -13.0487804, -0.1064164
-0.5820312, -0.1923828, -0.5834961, -8.719512, 93.7195129, -13.6585369, -0.0997024
-0.5600586, -0.2158203, -0.5439453, -11.7682934, 92.68293, -14.8780489, -0.0835889
-0.5385742, -0.2514648, -0.4931641, -10.9756098, 93.8414688, -15.9146347, -0.0684825
-0.5415039, -0.2617188, -0.4902344, -9.7560978, 94.5121994, -16.7073174, -0.0506905
-0.574707, -0.2670898, -0.5307617, -6.1585369, 95.3658524, -16.6463413, -0.0339055
-0.5922852, -0.2651367, -0.559082, -3.9634147, 95.3048782, -16.1585369, -0.0352483
-0.6162109, -0.2592773, -0.5874023, 0.4878049, 93.5975647, -15.060976, -0.0419623
-0.6113281, -0.2597656, -0.5869141, 2.6219513, 92.7439041, -14.6951227, -0.0473335
-0.5961914, -0.2695312, -0.605957, 7.4390244, 90.9146347, -14.2682934, -0.0594186
-0.5854492, -0.2758789, -0.6279297, 9.4512196, 91.0365906, -13.841464, -0.0674754
-0.5625, -0.2851562, -0.6362305, 12.9268293, 91.3414688, -13.3536587, -0.0627756
-0.5263672, -0.3105469, -0.5634766, 15, 92.1341476, -13.6585369, -0.0513619
-0.5068359, -0.3271484, -0.5053711, 20.7317085, 93.8414688, -15.060976, -0.0399481
-0.5068359, -0.3544922, -0.4345703, 29.0853672, 95.4878082, -17.9268303, -0.0379339
-0.5219727, -0.3510742, -0.4560547, 33.5365868, 95.9756088, -19.2073174, -0.0459907
-0.5737305, -0.3291016, -0.6152344, 37.6219521, 96.0365906, -20.3048782, -0.0516976
-0.5898438, -0.3085938, -0.7036133, 36.8292694, 95.9146347, -20.1219521, -0.049012
-0.5830078, -0.2553711, -0.8139648, 32.0121956, 95.9146347, -19.6951218, -0.0503548
-0.5527344, -0.2299805, -0.8193359, 29.3902454, 95.9146347, -20.5487804, -0.0500191
-0.4648438, -0.1904297, -0.7709961, 25, 98.5365906, -23.7195129, -0.0547189
-0.4267578, -0.1738281, -0.7573242, 22.9878063, 100.4878082, -26.0365868, -0.0453193
-0.3964844, -0.1464844, -0.796875, 17.3780499, 104.5731735, -28.4146347, -0.0325628
-0.4067383, -0.1152344, -0.8911133, 12.9878054, 106.1585388, -28.4756107, -0.0352483
-0.4150391, -0.1113281, -0.9169922, 2.6829269, 109.2073212, -27.0121956, -0.0332341
-0.4038086, -0.1000977, -0.8725586, -7.1341467, 111.8292694, -25.5487804, -0.0332341
-0.3916016, -0.105957, -0.8032227, -10.6097565, 113.3536606, -25.8536587, -0.0271916
-0.3896484, -0.1445312, -0.6494141, -15.5487804, 117.0121994, -27.0731716, -0.0339055
-0.4140625, -0.159668, -0.59375, -16.5243912, 118.4756088, -27.560976, -0.0386053
-0.4897461, -0.2045898, -0.5688477, -18.9634151, 119.6951218, -27.6829281, -0.0486763
-0.5371094, -0.2260742, -0.5844727, -20.4268303, 118.8414688, -27.2560978, -0.0607614
-0.6010742, -0.2651367, -0.6679688, -24.2073174, 114.0243912, -25.1829281, -0.0748608
-0.6171875, -0.2871094, -0.715332, -25.3048782, 110.18293, -24.3292694, -0.0903029
-0.5849609, -0.3383789, -0.7949219, -24.0853672, 103.0487823, -22.9878063, -0.102388
-0.4912109, -0.3833008, -0.8383789, -22.1951218, 100.7317123, -22.3170738, -0.1104448
-0.4316406, -0.4033203, -0.8491211, -16.4024391, 100.2439041, -20.7317085, -0.1013809
-0.3178711, -0.4174805, -0.8393555, -9.1463413, 106.2195129, -20.8536587, -0.0856031
-0.2675781, -0.4125977, -0.8383789, -5.4878049, 110.6707306, -21.7073174, -0.0822461
-0.2470703, -0.387207, -0.878418, 0, 120.0609818, -24.6341476, -0.0916457
-0.2626953, -0.3618164, -0.9248047, 2.1341465, 123.1097565, -25.7926826, -0.0802319
-0.3129883, -0.3242188, -1.0244141, 5.7926831, 124.9390259, -25.9756107, -0.0775463
-0.3242188, -0.3125, -1.0488281, 7.2560978, 124.2682953, -25.6097565, -0.0674754
-0.2929688, -0.3139648, -1.0117188, 9.3292685, 123.5365906, -24.5121956, -0.0540475
-0.2705078, -0.3212891, -0.972168, 10.3048782, 124.8780518, -24.5121956, -0.0365911
-0.2529297, -0.3188477, -0.9365234, 11.4024391, 131.7682953, -25.9146347, -0.0167849
-0.3027344, -0.293457, -0.9829102, 11.280488, 135.3048859, -26.8292694, -0.0057069
-0.3193359, -0.2851562, -1.0043945, 10.4268293, 138.9634247, -27.9878063, -0.0010071
-0.3237305, -0.2866211, -0.9755859, 7.6829271, 136.5853729, -27.9268303, -0.0043641
-0.3120117, -0.293457, -0.9189453, 6.5243902, 134.5731812, -27.8658543, -0.0077211
-0.2890625, -0.3110352, -0.815918, 6.3414636, 133.3536682, -28.2926826, -0.0137636
-0.2919922, -0.3168945, -0.777832, 6.4634147, 134.146347, -28.7195129, -0.0157778
-0.3491211, -0.3100586, -0.7084961, 6.1585369, 139.5731812, -28.2317085, -0.017792
-0.3989258, -0.3032227, -0.6816406, 5.9756098, 141.7073212, -28.0487804, -0.0218204
-0.5092773, -0.2802734, -0.6474609, 5.609756, 141.7073212, -27.6219521, -0.024506
-0.5561523, -0.2670898, -0.6499023, 5.1829271, 139.2073212, -27.6829281, -0.0419623
-0.6098633, -0.2348633, -0.6982422, 2.0731707, 130.1829224, -26.8292694, -0.1104448
-0.5952148, -0.2060547, -0.8242188, -0.4878049, 124.4512253, -25.9146347, -0.1346151
-0.5600586, -0.1904297, -0.9257812, -8.841464, 112.9878082, -23.3536587, -0.1104448
-0.4492188, -0.1484375, -1.1538086, -20.8536587, 103.5975647, -19.3292694, -0.0647898
-0.3662109, -0.1206055, -1.2387695, -27.9268303, 100.6707306, -17.560976, -0.0127565
-0.1542969, -0.0878906, -1.2783203, -41.6463432, 100.3658524, -15.8536587, 0.0339055
-0.0512695, -0.0893555, -1.2402344, -47.3170738, 102.8658524, -15.3658543, 0.0708324
0.065918, -0.1606445, -1.1455078, -56.0975609, 109.8780518, -14.7560978, 0.0896315
0.0761719, -0.2124023, -1.1152344, -57.9878044, 113.7195129, -13.5975609, 0.0923171
0.0151367, -0.3168945, -1.0761719, -57.8048782, 120.36586, -10, 0.0856031
-0.0297852, -0.3662109, -1.050293, -55.6707344, 123.4146347, -8.719512, 0.0547189
-0.1391602, -0.4287109, -0.9750977, -49.9390259, 129.7561035, -8.780488, 0.0224918
-0.2929688, -0.4633789, -0.9306641, -46.0365868, 132.6219482, -10.4268293, -0.0003357
-0.3583984, -0.4746094, -0.9233398, -37.6219521, 134.0853729, -13.9024391, -0.0238346
-0.4428711, -0.4926758, -0.8964844, -30.5487804, 128.6585388, -16.8292694, -0.0359197
-0.449707, -0.5019531, -0.8779297, -26.9512196, 124.5731735, -18.1097565, -0.0607614
-0.4106445, -0.5205078, -0.8408203, -17.9878044, 116.5853653, -21.5853672, -0.0990311
-0.3759766, -0.5380859, -0.8271484, -12.6219511, 113.0487823, -23.2926826, -0.1131304
-0.2827148, -0.578125, -0.8085938, -0.3048781, 109.8170776, -26.7073174, -0.1037308
-0.2475586, -0.5878906, -0.809082, 5.9146342, 110.7926865, -28.1097565, -0.0788891
-0.2089844, -0.5571289, -0.8623047, 18.1707325, 116.4634171, -30.6097565, -0.0486763
-0.2124023, -0.503418, -0.9296875, 22.5, 120.3048782, -31.5853672, -0.0083925
-0.2436523, -0.3540039, -1.0942383, 27.0121956, 125.9756165, -34.2682953, 0.0459907
-0.2666016, -0.199707, -1.2138672, 26.3414631, 127.2561035, -35.4268303, 0.0412909
-0.2587891, -0.1425781, -1.2539062, 19.2682934, 125.18293, -36.7073174, 0.0130922
-0.1943359, -0.0698242, -1.3276367, 8.1097565, 120.4878082, -34.1463432, 0.0151064
-0.1518555, -0.046875, -1.3549805, 1.6463414, 118.2317123, -32.3170738, 0.0365911
-0.0488281, -0.0224609, -1.3452148, -9.9390249, 117.2561035, -28.1097565, 0.0607614
0.0053711, -0.0268555, -1.3056641, -14.8170738, 119.5731735, -26.7682934, 0.063447
0.0527344, -0.0654297, -1.1640625, -21.3414631, 129.0243988, -25.4878063, 0.06009
0.0307617, -0.1108398, -1.0917969, -22.9268303, 133.7195129, -25.1829281, 0.042298
-0.0844727, -0.2285156, -0.9931641, -24.2682934, 139.8780518, -23.780489, -0.0191348
-0.1582031, -0.2836914, -0.9604492, -24.3292694, 139.6341553, -22.5, -0.0822461
-0.2875977, -0.3549805, -0.9018555, -23.9024391, 136.2195129, -19.8780499, -0.0970169
-0.3676758, -0.3754883, -0.8305664, -24.0243912, 133.5365906, -20.1219521, -0.0943313
-0.3945312, -0.3632812, -0.7983398, -24.5731716, 129.0243988, -23.4756107, -0.0862745
-0.4296875, -0.3305664, -0.7729492, -26.9512196, 123.5365906, -28.7195129, -0.0755322
-0.4438477, -0.3120117, -0.7841797, -29.2682934, 119.9390259, -30.1219521, -0.0621042
-0.4208984, -0.2749023, -0.8251953, -33.4146347, 110.7317123, -30.4268303, -0.0721752
-0.3828125, -0.2651367, -0.8588867, -35.6707344, 105.7926865, -29.9390259, -0.0933242
-0.2832031, -0.2802734, -0.9614258, -37.5609779, 97.0121994, -27.9268303, -0.1164874
-0.2304688, -0.3037109, -1.0463867, -36.8902435, 93.1707306, -26.5853672, -0.1426719
-0.1035156, -0.3686523, -1.2895508, -33.4756088, 85.9146347, -21.6463413, -0.1520714
-0.0180664, -0.3984375, -1.3896484, -31.0975609, 83.7804871, -18.4756107, -0.1493858
0.1791992, -0.4243164, -1.4526367, -26.8292694, 89.5731735, -13.4756098, -0.1537499
0.3383789, -0.3823242, -1.3525391, -24.2073174, 98.2317123, -13.0487804, -0.1520714
0.3603516, -0.3417969, -1.2749023, -18.4146347, 125.6097565, -18.0487804, -0.1332723
0.2587891, -0.2597656, -1.1142578, -12.9268293, 152.8048859, -26.7682934, -0.1134661
0.1499023, -0.2348633, -1.0449219, -11.7682934, 161.0365906, -30.5487804, -0.0973526
-0.1171875, -0.2329102, -0.9472656, -11.9512196, 160.9756165, -34.0243912, -0.0983597
-0.2373047, -0.2553711, -0.9262695, -13.2317076, 154.3292694, -33.5365868, -0.1064164
-0.3720703, -0.3251953, -0.9541016, -14.9390249, 133.4756165, -30.5487804, -0.1094377
-0.3881836, -0.3549805, -0.987793, -15.9146347, 123.2317123, -28.780489, -0.1104448
-0.3168945, -0.3881836, -1.0761719, -15.8536587, 109.9390259, -26.280489, -0.1144732
-0.2490234, -0.3774414, -1.1088867, -15.4878054, 108.1097565, -25.4878063, -0.119173
-0.0859375, -0.3120117, -1.128418, -15.2439032, 113.1707306, -25.2439022, -0.1198444
0.0341797, -0.2119141, -1.0991211, -14.8780489, 118.4146347, -25.7926826, -0.1111162
0.0683594, -0.1591797, -1.0629883, -15.1829271, 129.3292694, -26.7682934, -0.0976883
0.0869141, -0.1054688, -0.9614258, -18.5365849, 136.8902435, -25.8536587, -0.0782177
0.0615234, -0.0966797, -0.9082031, -20.9756107, 138.1707306, -25.4268303, -0.0607614
-0.0410156, -0.1254883, -0.8886719, -27.1951218, 135.6707306, -23.4146347, -0.0486763
-0.1142578, -0.1538086, -0.9516602, -30.6707325, 131.3414612, -21.7073174, -0.0466621
-0.2182617, -0.2060547, -1.1694336, -38.7804871, 119.3902435, -16.0975609, -0.0439765
-0.2084961, -0.2158203, -1.2641602, -43.4756126, 113.5365906, -13.2317076, -0.0486763
-0.0454102, -0.2246094, -1.2895508, -53.6585388, 105.6707306, -10.4878054, -0.0446479
0.1801758, -0.2426758, -1.1323242, -57.8658562, 105.8536606, -11.219512, -0.0396124
0.2509766, -0.2641602, -1.0395508, -62.9268303, 112.8048782, -14.8780489, -0.0379339
0.2607422, -0.3085938, -0.9145508, -63.6585388, 118.5975647, -16.7682934, -0.0332341
0.2182617, -0.3286133, -0.890625, -60.8536606, 127.5609818, -19.0853672, -0.0298772
0.0737305, -0.3515625, -0.8818359, -54.1463432, 130.6707306, -19.6341476, -0.024506
0.0009766, -0.3579102, -0.8969727, -50.8536606, 129.4512177, -19.939024, -0.0191348
-0.1074219, -0.3754883, -0.9887695, -45.6707344, 122.9878082, -20.6097565, -0.011078
-0.1357422, -0.3881836, -1.0581055, -44.2682953, 117.9878082, -20.3048782, -0.0097353
-0.1152344, -0.3896484, -1.2211914, -43.6585388, 107.0731735, -18.4756107, -0.0036927
-0.0571289, -0.3813477, -1.2915039, -43.9024391, 102.9878082, -17.0731716, 0.0043641
0.1157227, -0.3535156, -1.355957, -43.4146347, 101.5853653, -14.9390249, -0.0016785
0.3115234, -0.3085938, -1.284668, -43.1097565, 105.6707306, -14.7560978, -0.0104067
0.3818359, -0.2890625, -1.2050781, -40.7317085, 119.8170776, -16.8292694, -0.0379339
0.4213867, -0.2871094, -1.0102539, -35.2439041, 135.4268341, -21.0365868, -0.0500191
0.3911133, -0.3027344, -0.9238281, -31.4634151, 140.1829376, -23.0487804, -0.0419623
0.2324219, -0.3813477, -0.8237305, -23.5365868, 141.4024353, -25.4878063, -0.0292058
0.1279297, -0.4223633, -0.8286133, -18.780489, 137.9878082, -25.2439022, -0.017792
-0.0478516, -0.472168, -0.9399414, -10.1219511, 127.9878082, -23.4756107, 0.0030213
-0.0932617, -0.4663086, -1.0141602, -7.0121951, 123.1707382, -22.3780499, 0.0198062
-0.0703125, -0.3862305, -1.1230469, -4.2682929, 116.5853653, -22.1951218, 0.0258488
-0.0136719, -0.3222656, -1.1391602, -4.9390244, 116.0365906, -23.4756107, 0.024506
0.1186523, -0.1831055, -1.105957, -9.3292685, 120, -27.9878063, 0.0151064
0.199707, -0.0839844, -1.0766602, -12.560976, 122.6219559, -30, 0.0030213
0.2138672, -0.0600586, -1.0688477, -20.3048782, 125.6707382, -31.280489, -0.0087282
0.2211914, -0.0693359, -1.0610352, -27.3780499, 123.4146347, -28.1707325, -0.0137636
0.2211914, -0.0849609, -1.0649414, -30.3048782, 121.646347, -26.0365868, -0.014435
0.2158203, -0.1386719, -1.1103516, -34.5121956, 118.2926865, -21.1585369, -0.0124208
0.2084961, -0.1601562, -1.1499023, -36.1585388, 117.4390259, -19.4512196, -0.0057069
0.1938477, -0.1679688, -1.2202148, -40.5487823, 117.3170776, -16.0365849, -0.0117494
0.203125, -0.1665039, -1.2163086, -43.1097565, 118.1707382, -14.4512196, -0.0271916
0.2509766, -0.1645508, -1.1166992, -48.4146347, 121.8902435, -14.0243902, -0.0439765
0.2680664, -0.1674805, -1.0400391, -50.6097565, 123.7195129, -14.7560978, -0.0453193
0.2670898, -0.2055664, -0.9287109, -53.5365868, 125.6097565, -17.6219521, -0.0419623
0.2045898, -0.2739258, -0.9174805, -53.9024391, 124.6341476, -18.7195129, -0.0258488
0.1772461, -0.3071289, -0.940918, -53.0487823, 118.1707382, -19.3292694, -0.0057069
0.1640625, -0.3657227, -0.9916992, -50.6707344, 111.2195129, -18.4146347, -0.0016785
0.1791992, -0.3867188, -1.0107422, -49.2682953, 109.0243912, -18.1097565, -0.0010071
0.2231445, -0.4023438, -1.0639648, -46.0365868, 108.3536606, -18.5975609, -0.0171206
0.2441406, -0.3984375, -1.1049805, -43.4756126, 109.3292694, -19.6341476, -0.0345769
0.2939453, -0.3842773, -1.1762695, -37.3170738, 110.6707306, -21.1585369, -0.0379339
0.3251953, -0.3862305, -1.1889648, -33.5365868, 111.0365906, -21.4024391, -0.0325628
0.4179688, -0.4072266, -1.1240234, -26.280489, 113.3536606, -20.7926826, -0.0151064
0.4638672, -0.4174805, -1.0551758, -22.2560978, 116.0975647, -20.7926826, 0.0043641
0.4995117, -0.4228516, -0.9433594, -12.560976, 124.8170776, -23.5975609, 0.0171206
0.3999023, -0.3999023, -0.9663086, -6.280488, 128.9634247, -25.6097565, 0.0224918
0.324707, -0.3842773, -1.0209961, 5.3048782, 132.9268341, -28.4756107, 0.0077211
0.2197266, -0.3505859, -1.1137695, 12.0731707, 129.6341553, -27.9268303, 0.0023499
0.2050781, -0.3320312, -1.1352539, 13.7195129, 126.8292694, -27.2560978, 0.0057069
0.2373047, -0.2773438, -1.152832, 12.4390249, 123.8414688, -26.6463413, 0.0117494
0.2587891, -0.2412109, -1.1635742, 11.0975609, 124.6951218, -27.3170738, 0.011078
0.2919922, -0.1337891, -1.2104492, 6.4634147, 129.5731812, -28.2926826, -0.0070497
0.3046875, -0.0742188, -1.2290039, 2.7439024, 131.8292694, -28.4756107, -0.0057069
0.3422852, 0.0239258, -1.2431641, -7.3170733, 134.2682953, -27.5, 0.0130922
0.3637695, 0.0522461, -1.2255859, -13.9634151, 133.3536682, -26.0365868, 0.0325628
0.3974609, 0.0639648, -1.1416016, -27.4390259, 130.36586, -22.0731716, 0.0449836
0.4140625, 0.0268555, -1.0161133, -33.9024391, 128.6585388, -19.8170738, 0.0560616
0.4101562, -0.0151367, -0.9658203, -42.1341476, 126.5243912, -17.0731716, 0.0533761
0.3618164, -0.1098633, -0.9423828, -45.9756126, 123.1097565, -14.6951227, 0.0439765
0.3349609, -0.1591797, -0.9584961, -47.0121956, 120.5487823, -13.6585369, 0.0271916
0.3081055, -0.2456055, -1.0273438, -49.6341476, 113.4756088, -11.1585369, -0.0010071
0.3188477, -0.2807617, -1.0546875, -51.1585388, 110.1219559, -10.5487804, -0.0271916
0.3745117, -0.3291016, -1.0581055, -54.5731735, 105.3048782, -9.9390249, -0.0466621
0.4194336, -0.3466797, -1.0268555, -55.4268303, 105.2439041, -10.3048782, -0.0560616
0.4926758, -0.3457031, -0.9472656, -54.6341476, 109.0243912, -12.7439032, -0.0547189
0.4985352, -0.3344727, -0.9272461, -53.0487823, 111.646347, -14.3902445, -0.0486763
0.4780273, -0.2729492, -0.9633789, -48.7804871, 115.3048782, -16.5243912, -0.0459907
0.4379883, -0.1958008, -1.0327148, -47.5609779, 115.4878082, -17.0121956, -0.0486763
0.4335938, -0.1625977, -1.0517578, -47.7439041, 113.2317123, -17.560976, -0.0506905
0.4516602, -0.1552734, -1.0429688, -49.7560997, 108.1097565, -17.3780499, -0.0580758
0.4716797, -0.175293, -1.0268555, -50.2439041, 105.3658524, -17.0731716, -0.0621042
0.5043945, -0.2592773, -1.0009766, -46.8902435, 100.9146347, -16.7682934, -0.0654612
0.5219727, -0.3066406, -1.0029297, -43.7195129, 99.3902435, -15.9756098, -0.0762036
0.5429688, -0.3774414, -1.0107422, -35.1829262, 99.9390259, -15.3048782, -0.0822461
0.5551758, -0.3950195, -1.012207, -30.9756107, 101.5853653, -15.3658543, -0.0866102
0.5566406, -0.4140625, -1, -22.439024, 106.4024429, -16.8902435, -0.0963455
0.5424805, -0.4038086, -0.9863281, -18.9024391, 108.9024429, -17.7439022, -0.1017166
0.4814453, -0.3476562, -0.9770508, -13.4146347, 112.9878082, -20.3048782, -0.105745
0.421875, -0.2734375, -1.0019531, -10.9756098, 114.0243912, -21.0365868, -0.105745
0.394043, -0.2290039, -1.0410156, -7.0121951, 113.7195129, -21.7073174, -0.1064164
0.3701172, -0.1733398, -1.1625977, -4.9390244, 109.4512253, -20.4878044, -0.1077592
0.387207, -0.1611328, -1.2246094, -5.3048782, 106.3414688, -19.1463413, -0.1117876
0.4799805, -0.1523438, -1.3012695, -8.4756098, 102.3780518, -15.060976, -0.1282368
0.5449219, -0.1508789, -1.3081055, -10.8536587, 102.3170776, -13.1097565, -0.1379721
0.6464844, -0.1152344, -1.2885742, -15.8536587, 108.6585388, -11.5243902, -0.1514
0.6738281, -0.0825195, -1.2612305, -17.9878044, 114.146347, -11.4634151, -0.154757
0.6660156, -0.0141602, -1.2055664, -22.1341476, 125.0609818, -13.1097565, -0.1440146
0.6308594, 0.0043945, -1.1728516, -24.7560978, 128.1707306, -13.5365858, -0.1366293
0.5517578, -0.0004883, -1.1074219, -31.4634151, 127.68293, -13.9634151, -0.1319295
0.4790039, -0.0668945, -1.0209961, -35.4878044, 124.5121994, -13.1097565, -0.1205158
0.4609375, -0.1035156, -0.96875, -43.0487823, 116.7073212, -10.8536587, -0.1117876
0.4526367, -0.1733398, -0.8613281, -46.6463432, 111.4634171, -9.7560978, -0.0943313
0.449707, -0.2119141, -0.8115234, -46.4024391, 110, -10.060976, -0.0741894
0.4360352, -0.2695312, -0.7817383, -44.2073174, 107.1341476, -11.4634151, -0.0574044
0.425293, -0.2871094, -0.8134766, -43.1097565, 105.3048782, -11.8902445, -0.0459907
0.4057617, -0.3051758, -0.9140625, -41.341465, 100.6707306, -10.9756098, -0.0271916
0.4223633, -0.3041992, -0.956543, -41.4634171, 98.8414688, -10.4268293, -0.0077211
0.503418, -0.2866211, -0.9960938, -42.0121956, 96.1585388, -9.8170738, 0.0063783
0.5541992, -0.2802734, -0.9936523, -42.1951218, 96.3414688, -10.3658543, 0.0104067
0.6303711, -0.2617188, -0.9824219, -41.1585388, 98.1707306, -12.3780489, 0.0167849
0.6616211, -0.2421875, -1.0297852, -40.3048782, 99.7561035, -13.1707315, 0.0238346
0.6577148, -0.2304688, -1.0981445, -37.9878044, 101.2195129, -14.2682934, 0.021149
0.6386719, -0.2163086, -1.2387695, -37.8048782, 100.4268341, -13.4146347, 0.0104067
0.6435547, -0.2124023, -1.2670898, -38.7804871, 100.3048782, -12.5, -0.0097353
0.7045898, -0.2075195, -1.1538086, -41.2195129, 103.7804871, -11.0365858, -0.0285344
0.7412109, -0.2089844, -1.0517578, -41.4634171, 107.1951218, -11.7682934, -0.0359197
0.7270508, -0.2124023, -0.8945312, -38.2926826, 114.0243912, -16.0365849, -0.0459907
0.6757812, -0.2050781, -0.8706055, -35.7926826, 115.6097565, -17.6219521, -0.0463264
0.5415039, -0.1796875, -0.90625, -32.0731697, 114.5121994, -17.5, -0.0446479
0.487793, -0.1665039, -0.9238281, -31.8292694, 111.5243912, -16.280489, -0.0480049
0.4448242, -0.1411133, -0.9301758, -32.6219521, 105.1219559, -12.8048782, -0.0500191
0.4609375, -0.1181641, -0.9150391, -33.1097565, 102.2561035, -11.7682934, -0.0520333
0.4824219, -0.1166992, -0.9208984, -33.4146347, 98.1707306, -11.0365858, -0.0493477
0.5302734, -0.1171875, -0.9404297, -33.4146347, 95.3048782, -9.9390249, -0.0540475
0.5620117, -0.1240234, -0.9545898, -33.4756088, 94.0243912, -8.9634151, -0.0594186
0.6152344, -0.1445312, -0.9858398, -34.3292694, 92.0121994, -6.7073174, -0.0788891
0.6416016, -0.1499023, -1.0043945, -35.0609779, 91.5853653, -5.4268293, -0.109102
0.6694336, -0.1665039, -1.0585938, -35.4268303, 91.5853653, -4.4512196, -0.1144732
0.6787109, -0.1728516, -1.0820312, -35.7317085, 92.1951218, -3.9634147, -0.1064164
0.7016602, -0.1904297, -1.0742188, -36.8902435, 93.9024429, -4.0243902, -0.0903029
0.7143555, -0.2021484, -1.0419922, -37.6829262, 95.18293, -4.5121951, -0.0664683
0.7280273, -0.2338867, -0.9511719, -37.5609779, 97.68293, -6.4634147, -0.0412909
0.7001953, -0.2519531, -0.8857422, -37.0731697, 99.0853653, -7.7439027, -0.0151064
0.6728516, -0.246582, -0.8657227, -35.3048782, 100.7317123, -9.2073174, 0.0063783
0.6098633, -0.1967773, -0.8808594, -33.9024391, 101.8902435, -9.9390249, 0.0157778
0.5830078, -0.1694336, -0.9086914, -33.3536606, 101.5853653, -10.2439022, -0.0030213
0.5649414, -0.1289062, -0.9829102, -33.9024391, 97.5, -11.0365858, -0.0191348
0.5820312, -0.1259766, -1.0180664, -35.1829262, 94.4512253, -11.219512, -0.0137636
0.6464844, -0.159668, -1.0473633, -38.7804871, 89.6341476, -10.6097565, 0.0006714
0.6860352, -0.1831055, -1.043457, -40.2439041, 88.2317123, -9.9390249, 0.0157778
0.7548828, -0.2314453, -1.0068359, -41.8902435, 89.8170776, -8.2317076, 0.0198062
0.777832, -0.2451172, -0.972168, -41.0365868, 92.5, -7.6829271, 0.0224918
0.777832, -0.2490234, -0.8808594, -36.8902435, 99.5121994, -8.719512, 0.0151064
0.7324219, -0.2280273, -0.7856445, -34.9390259, 102.68293, -9.5121956, 0.0050355
0.7001953, -0.2207031, -0.7592773, -29.9390259, 105.8536606, -11.4634151, -0.011078
0.6206055, -0.1992188, -0.7827148, -27.8048782, 102.68293, -13.1097565, -0.0298772
0.5864258, -0.190918, -0.8305664, -27.7439022, 99.146347, -13.1707315, -0.0386053
0.565918, -0.1665039, -0.9370117, -29.3902454, 91.8292694, -12.0731707, -0.0513619
0.5859375, -0.1484375, -0.9731445, -30.7317085, 89.5731735, -11.219512, -0.0500191
0.6630859, -0.1074219, -0.9814453, -31.8902454, 89.0853653, -9.8780489, -0.0553902
0.7041016, -0.0854492, -0.9658203, -32.0121956, 90.5487823, -9.9390249, -0.0597543
0.7631836, -0.0688477, -0.9160156, -31.7682934, 94.2073212, -10.1219511, -0.0674754
0.7695312, -0.0742188, -0.8886719, -31.5853672, 95.3658524, -10.060976, -0.0762036
0.7675781, -0.105957, -0.8251953, -31.2195129, 95.8536606, -9.3902445, -0.0825818
0.7348633, -0.1567383, -0.7744141, -31.0975609, 95.18293, -8.3536587, -0.0889601
0.7177734, -0.1733398, -0.7548828, -29.6341476, 93.5365906, -7.0121951, -0.0929885
0.6738281, -0.1870117, -0.7446289, -27.8048782, 91.8292694, -6.890244, -0.102388
0.6674805, -0.1894531, -0.7495117, -26.8902454, 90.8536606, -7.1951222, -0.1077592
0.6591797, -0.1835938, -0.7939453, -25.5487804, 88.3536606, -8.1707315, -0.1050736
0.6694336, -0.1713867, -0.8237305, -24.8780499, 87.0121994, -8.3536587, -0.1050736
0.7124023, -0.1459961, -0.890625, -25.7317085, 85, -8.4756098, -0.0916457
0.7416992, -0.1235352, -0.9199219, -26.280489, 84.8780518, -8.3536587, -0.0654612
0.8017578, -0.0913086, -0.9418945, -28.4756107, 86.0975647, -7.8658538, -0.0459907
0.8237305, -0.0786133, -0.9306641, -29.7560978, 87.6219559, -7.6219516, -0.0503548
0.8652344, -0.0673828, -0.862793, -31.0365868, 90.4878082, -7.5609756, -0.0688182
0.859375, -0.0922852, -0.796875, -31.5243912, 91.5853653, -7.8658538, -0.0788891
0.84375, -0.1103516, -0.7792969, -31.2195129, 92.5, -8.1707315, -0.0849317
0.7836914, -0.1474609, -0.7915039, -30.6707325, 89.8780518, -7.8658538, -0.073518
0.7592773, -0.159668, -0.8134766, -30.7317085, 88.6585388, -7.1951222, -0.0446479
0.7265625, -0.1674805, -0.8598633, -30.9756107, 86.2804871, -5.670732, -0.0204776
0.734375, -0.1577148, -0.8642578, -31.280489, 85.6707306, -5.4268293, -0.0137636
0.7783203, -0.1259766, -0.8300781, -31.1585369, 86.3414688, -5.5487804, -0.0003357
0.8017578, -0.112793, -0.8046875, -30.7926846, 87.4390259, -6.1585369, -0.0325628
0.8349609, -0.1020508, -0.7626953, -30.060976, 87.7439041, -7.5609756, -0.0594186
0.8374023, -0.1074219, -0.7602539, -30, 87.2560959, -7.8658538, -0.0607614
0.8354492, -0.1235352, -0.7490234, -30, 84.8780518, -7.9268293, -0.045655
0.8261719, -0.1523438, -0.730957, -29.9390259, 83.7195129, -7.3780489, -0.0154421
0.8266602, -0.171875, -0.7280273, -28.1707325, 81.9512177, -6.7073174, -0.010071
0.8173828, -0.1948242, -0.7426758, -25.3658543, 80.7317123, -7.3780489, -0.024506
0.8149414, -0.1987305, -0.762207, -24.2073174, 80.1219559, -7.4390244, -0.0285344
0.8237305, -0.1943359, -0.7929688, -22.3780499, 79.6341476, -7.8048782, -0.0406195
0.8310547, -0.1757812, -0.7998047, -21.5853672, 79.9390259, -7.9268293, -0.0412909
0.8544922, -0.1450195, -0.7958984, -20.3048782, 81.3414688, -8.841464, -0.0379339
0.8637695, -0.1342773, -0.7856445, -18.9634151, 82.1341476, -9.4512196, -0.0412909
0.8735352, -0.1210938, -0.7763672, -17.0731716, 82.8048782, -10.6097565, -0.0453193
0.8666992, -0.1259766, -0.7832031, -16.5243912, 82.7439041, -10.7926836, -0.0433051
0.8569336, -0.1264648, -0.7875977, -16.0975609, 82.6219559, -9.7560978, -0.0382696
0.8505859, -0.1142578, -0.8017578, -15.4878054, 83.4756088, -9.2682924, -0.1064164
0.8452148, -0.1069336, -0.8100586, -13.9024391, 84.2073212, -7.6219516, -0.1453574
0.8427734, -0.0874023, -0.8295898, -13.1707315, 85.3658524, -7.6829271, -0.1064164
0.8461914, -0.0708008, -0.828125, -13.2926836, 85.6097565, -7.8048782, -0.0406195
0.8657227, -0.0556641, -0.7631836, -14.6341467, 87.68293, -7.8048782, 0.0399481
0.875, -0.050293, -0.7104492, -15.3048782, 88.8414688, -7.6829271, 0.1070878
0.8769531, -0.0517578, -0.6030273, -15, 90.7317123, -9.0853662, 0.1460288
0.8662109, -0.0629883, -0.5795898, -14.5731707, 90.6097565, -9.7560978, 0.1440146
0.8188477, -0.0825195, -0.5727539, -13.780488, 88.0487823, -9.6341467, 0.109102
0.7871094, -0.1088867, -0.6113281, -13.780488, 85.8536606, -9.0243902, 0.0647898
0.7827148, -0.1108398, -0.6459961, -14.0243902, 81.8292694, -7.6219516, 0.0318914
0.7939453, -0.097168, -0.7504883, -14.0243902, 80.4268341, -6.890244, -0.0036927
0.8051758, -0.0805664, -0.8056641, -14.8780489, 79.6341476, -5.4268293, -0.0298772
0.8417969, -0.0390625, -0.8657227, -17.0121956, 81.4634171, -5.1219511, -0.03122
0.8657227, -0.0170898, -0.8579102, -18.5365849, 82.5609741, -5.609756, -0.0261845
0.9213867, 0.0043945, -0.7773438, -21.3414631, 86.3414688, -6.4024391, -0.0305486
0.9365234, 0.0048828, -0.7207031, -22.3170738, 87.9878082, -7.2560978, -0.0436408
0.9404297, -0.0356445, -0.6069336, -23.5365868, 88.9634171, -7.8048782, -0.0869459
0.9204102, -0.0717773, -0.581543, -23.6585369, 88.0487823, -7.9878049, -0.1242084
0.8676758, -0.137207, -0.5878906, -23.7195129, 84.0853653, -6.8292685, -0.1292439
0.8310547, -0.1757812, -0.6425781, -23.7195129, 81.5853653, -5.7317076, -0.1279011
0.8286133, -0.1708984, -0.6645508, -22.7439022, 78.4756088, -3.6585367, -0.1185016
0.8530273, -0.1376953, -0.671875, -20.7317085, 78.6585388, -3.3536587, -0.0943313
0.8710938, -0.1176758, -0.6743164, -19.3292694, 79.2682953, -3.8414636, -0.0815747
0.9008789, -0.0737305, -0.6889648, -17.9268303, 79.5731735, -5.3658538, -0.0835889
0.9086914, -0.0610352, -0.6933594, -18.4146347, 79.0243912, -5.9146342, -0.0782177
0.9262695, -0.0493164, -0.6669922, -19.2682934, 77.8658524, -5.670732, -0.0788891
0.9296875, -0.0512695, -0.6357422, -20.1219521, 77.4390259, -5.3048782, -0.0762036
0.9335938, -0.0766602, -0.5576172, -19.6341476, 76.7073212, -4.9390244, -0.0795605
0.9213867, -0.0952148, -0.5292969, -18.8414631, 76.1585388, -5.1829271, -0.0822461
0.8959961, -0.1235352, -0.5087891, -16.7682934, 73.5975647, -5.670732, -0.0815747
0.8779297, -0.1479492, -0.5258789, -15.6707325, 71.7073212, -5.4268293, -0.0795605
0.8759766, -0.1455078, -0.5395508, -14.4512196, 68.0487823, -5, -0.0688182
0.8935547, -0.1230469, -0.559082, -12.8048782, 66.0975647, -4.2682929, -0.0574044
0.8989258, -0.097168, -0.5712891, -11.7682934, 65.9756088, -4.2682929, -0.0459907
0.9243164, -0.0332031, -0.6015625, -9.7560978, 66.4634171, -4.2073174, -0.0386053
0.9291992, -0.003418, -0.6245117, -9.2682924, 66.1585388, -4.6951222, -0.0318914
0.9360352, 0.0239258, -0.671875, -10.3048782, 64.3292694, -4.8170733, -0.0097353
0.9394531, 0.0263672, -0.6826172, -12.1951218, 63.4756126, -4.6341462, 0.0104067
0.9453125, 0.0029297, -0.6635742, -16.4024391, 62.2560997, -3.9634147, 0.0104067
0.9414062, -0.0161133, -0.6328125, -17.8658543, 62.1341476, -3.6585367, 0.0114137
0.9267578, -0.0600586, -0.5844727, -19.1463413, 62.5609779, -3.5975611, 0.0238346
0.9101562, -0.0961914, -0.5791016, -19.1463413, 62.0121956, -3.2926829, 0.0090639
0.9003906, -0.1079102, -0.5981445, -18.6585369, 60.3048782, -3.4146342, -0.0117494
0.8950195, -0.1098633, -0.6723633, -18.7195129, 58.1097565, -2.3170731, -0.0060426
0.9003906, -0.0996094, -0.706543, -19.0853672, 57.5, -1.8292683, 0.0036927
0.9365234, -0.0727539, -0.7333984, -20.1219521, 58.5365868, -0.9146342, 0.0016785
0.9555664, -0.0620117, -0.7192383, -20.2439022, 59.6341476, -0.9146342, -0.0073854
0.9799805, -0.046875, -0.6542969, -20.6097565, 62.2560997, -2.5, -0.0003357
0.9770508, -0.0483398, -0.6157227, -21.1585369, 63.2926826, -2.8658538, 0.0130922
0.9545898, -0.0649414, -0.5473633, -22.7439022, 63.841465, -2.9878049, 0.0339055
0.9423828, -0.0771484, -0.5161133, -23.4146347, 62.8048782, -2.9268293, 0.0453193
0.9111328, -0.1010742, -0.4799805, -24.2073174, 59.9390259, -1.9512196, 0.0204776
0.8964844, -0.1181641, -0.4921875, -23.8414631, 57.8658562, -1.7682927, -0.0154421
0.9047852, -0.1206055, -0.5131836, -22.5, 54.2073174, -1.4634147, -0.0412909
0.9301758, -0.1171875, -0.5566406, -21.0365868, 50.9756126, -1.6463414, -0.0614328
0.9467773, -0.1118164, -0.5688477, -20.2439022, 50.5487823, -2.0731707, -0.0956741
0.9775391, -0.1044922, -0.5751953, -18.4146347, 50.9756126, -2.6829269, -0.1453574
0.9829102, -0.1054688, -0.5727539, -17.8658543, 51.2804909, -3.0487804, -0.1869841
0.9614258, -0.0991211, -0.5898438, -17.0731716, 52.1341476, -3.5365853, -0.2135042
0.9428711, -0.0927734, -0.5996094, -17.5, 52.5, -3.2317073, -0.2437171
0.9082031, -0.0742188, -0.6049805, -20.1219521, 52.4390259, -1.8902439, -0.291722
0.8955078, -0.0561523, -0.5976562, -21.7073174, 53.0487823, -1.0365853, -0.2823224
0.8886719, -0.0146484, -0.5800781, -23.4146347, 53.0487823, 0.3658537, -0.1963836
0.9082031, 0.0166016, -0.5893555, -24.0243912, 52.1951218, 0, -0.0956741
0.9199219, 0.0288086, -0.6079102, -25.5487804, 49.1463432, -0.6097561, 0.0238346
0.9453125, 0.0175781, -0.6469727, -28.9024391, 46.0975609, -0.3048781, 0.1138018
0.9550781, 0.0039062, -0.6542969, -30.7926846, 45.4268303, 0.3048781, 0.1701991
0.9648438, -0.0214844, -0.6474609, -33.2926826, 46.0975609, 2.2560976, 0.1910124
0.9575195, -0.034668, -0.637207, -33.5975609, 47.2560997, 3.4146342, 0.1500572
0.9316406, -0.0356445, -0.5932617, -32.3780479, 49.4512215, 4.0243902, 0.0882887
0.9223633, -0.0292969, -0.5654297, -31.4024391, 49.9390259, 4.1463413, 0.0345769
0.902832, -0.0151367, -0.5141602, -30.4878063, 48.841465, 3.5365853, -0.0224918
0.890625, -0.0136719, -0.5126953, -31.1585369, 47.1951218, 3.1097562, -0.0755322
0.871582, -0.034668, -0.5864258, -35.7317085, 42.5609779, 3.7804878, -0.119173
0.8549805, -0.0546875, -0.6655273, -38.841465, 40, 5.3048782, -0.1668421
0.8569336, -0.0546875, -0.6733398, -41.5243912, 36.8902435, 9.4512196, -0.2074617
0.8862305, -0.0405273, -0.6591797, -39.5121956, 37.8658562, 11.5853662, -0.2145113
0.90625, -0.0224609, -0.6425781, -38.4146347, 39.9390259, 11.5853662, -0.1587854
0.9204102, -0.0063477, -0.6142578, -37.0731697, 43.1097565, 9.6951218, -0.0889601
0.9204102, -0.0112305, -0.5917969, -37.9878044, 43.3536606, 8.9024391, -0.0181277
0.9038086, -0.0517578, -0.5327148, -39.4512215, 41.341465, 8.5365858, 0.0238346
0.8999023, -0.0708008, -0.4980469, -39.7560997, 40.1219521, 9.0853662, 0.0117494
0.902832, -0.1152344, -0.4604492, -38.7804871, 37.5609779, 9.1463413, 0.0077211
0.9018555, -0.1328125, -0.4589844, -37.3780479, 36.2195129, 8.9024391, -0.0419623
0.9082031, -0.1503906, -0.4887695, -34.7560997, 33.5365868, 8.3536587, -0.0372625
0.9282227, -0.1533203, -0.5415039, -33.1097565, 31.8292694, 8.3536587, -0.0117494
0.9462891, -0.1469727, -0.5620117, -30.9146347, 29.6341476, 8.5365858, 0.0137636
0.9799805, -0.144043, -0.5625, -28.5365868, 29.1463413, 7.6219516, 0.0379339
0.9916992, -0.1396484, -0.5517578, -26.9512196, 29.6341476, 7.0731707, 0.06009
0.9838867, -0.1333008, -0.5297852, -24.2682934, 30.4878063, 5.4268293, 0.0614328
0.9726562, -0.1352539, -0.5234375, -23.2317085, 30.3658543, 5, 0.0339055
0.9389648, -0.137207, -0.5297852, -22.1951218, 28.4146347, 4.6341462, 0.0077211
0.918457, -0.1318359, -0.5361328, -22.2560978, 26.8902454, 5.0609756, -0.0167849
0.9077148, -0.1166992, -0.5415039, -22.3780499, 23.5365868, 5.3048782, -0.0486763
0.9125977, -0.1132812, -0.527832, -22.439024, 21.7682934, 5.0609756, -0.0731823
0.9301758, -0.1254883, -0.5117188, -20.6097565, 18.9634151, 4.1463413, -0.0970169
0.9433594, -0.1411133, -0.5219727, -19.6341476, 17.6829281, 3.5975611, -0.109102
0.9428711, -0.1499023, -0.5322266, -18.6585369, 15.7317076, 3.1097562, -0.1104448
0.9306641, -0.1621094, -0.543457, -17.439024, 15.1829271, 3.8414636, -0.1010452
0.9301758, -0.1586914, -0.5400391, -16.8292694, 14.8780489, 4.0243902, -0.0839246
0.9291992, -0.1396484, -0.5263672, -14.6951227, 14.3902445, 3.4146342, -0.0661326
0.9267578, -0.1298828, -0.5244141, -13.5365858, 13.9024391, 3.1707318, -0.0486763
0.9331055, -0.1108398, -0.5268555, -12.5, 12.2560978, 2.5, -0.0288701
0.9384766, -0.1049805, -0.5302734, -11.9512196, 11.219512, 2.5, -0.0560616
0.949707, -0.0898438, -0.5400391, -11.280488, 10.060976, 3.0487804, -0.1252155
0.9545898, -0.0737305, -0.5556641, -10.9756098, 9.5121956, 3.3536587, -0.1077592
0.9589844, -0.0429688, -0.6103516, -11.0975609, 8.5975609, 4.0853658, -0.0493477
0.9609375, -0.0092773, -0.6479492, -11.9512196, 8.5365858, 4.5121951, 0.0073854
0.9648438, 0.0014648, -0.6503906, -14.1463413, 8.2926826, 5.7926831, 0.0480049
0.9672852, 0.0151367, -0.6416016, -17.2560978, 8.1707315, 6.6463418, 0.0741894
0.96875, 0.0136719, -0.6259766, -18.6585369, 8.0487804, 6.9512196, 0.0849317
0.96875, -0.0087891, -0.609375, -21.6463413, 7.0731707, 7.2560978, 0.0795605
0.9643555, -0.0268555, -0.6157227, -23.1097565, 6.0365853, 7.5, 0.0822461
0.9536133, -0.0551758, -0.6391602, -25.3658543, 4.6951222, 8.9024391, 0.0829175
0.9501953, -0.0615234, -0.6464844, -26.280489, 4.3292685, 9.9390249, 0.0788891
0.9550781, -0.065918, -0.6333008, -26.1585369, 4.7560978, 11.341464, 0.0721752
0.9545898, -0.0678711, -0.6210938, -25.5487804, 5.2439027, 11.6463413, 0.0090639
0.9589844, -0.074707, -0.5932617, -24.8170738, 5.7926831, 11.0365858, -0.011078
0.9428711, -0.0976562, -0.5756836, -24.6341476, 5.609756, 10.6707315, 0.0130922
0.925293, -0.105957, -0.5668945, -25.4268303, 4.2073174, 11.280488, 0.0372625
0.9077148, -0.0981445, -0.5478516, -26.1585369, 3.4756098, 12.8658543, 0.0580758
0.9052734, -0.0913086, -0.5371094, -26.7682934, 2.7439024, 13.1707315, 0.0651255
0.9160156, -0.0795898, -0.515625, -26.280489, 0.1829268, 12.0731707, 0.0426337
0.9238281, -0.0874023, -0.5136719, -26.1585369, -2.0121951, 11.341464, 0.0104067
0.9335938, -0.1201172, -0.5292969, -26.4634151, -5.9146342, 10.6097565, -0.017792
0.9375, -0.137207, -0.5351562, -26.5853672, -7.6219516, 11.0365858, -0.0466621
0.9331055, -0.1616211, -0.5410156, -25.6097565, -9.1463413, 12.3170738, -0.0718395
0.9321289, -0.1635742, -0.5415039, -24.2073174, -9.3292685, 13.1097565, -0.0963455
0.9248047, -0.1484375, -0.5488281, -20.8536587, -9.8780489, 13.5365858, -0.1111162
0.9208984, -0.1137695, -0.5791016, -19.3292694, -10.3048782, 13.2926836, -0.1198444
0.9223633, -0.0996094, -0.590332, -19.2073174, -12.7439032, 12.6829271, -0.1299153
0.9360352, -0.0898438, -0.5996094, -20.5487804, -16.280489, 12.7439032, -0.1560998
0.9404297, -0.0859375, -0.5922852, -21.5243912, -17.7439022, 13.1707315, -0.1775845
0.9355469, -0.0874023, -0.5805664, -22.2560978, -19.939024, 14.1463413, -0.1869841
0.9213867, -0.0839844, -0.5834961, -22.7439022, -20.5487804, 14.8780489, -0.1795987
0.9013672, -0.0664062, -0.5805664, -23.9634151, -22.1341476, 16.7073174, -0.1574426
0.9008789, -0.0664062, -0.5722656, -24.8170738, -23.4146347, 16.5243912, -0.1265583
0.9121094, -0.0771484, -0.5561523, -26.5243912, -27.6219521, 16.5243912, -0.0956741
0.9223633, -0.0952148, -0.5522461, -27.1341476, -29.4512196, 16.2195129, -0.0950027
0.9433594, -0.1210938, -0.550293, -27.6219521, -32.5609779, 16.0975609, -0.102388
0.9545898, -0.1469727, -0.5390625, -26.7682934, -32.9878044, 16.6463413, -0.0929885
0.9541016, -0.1523438, -0.527832, -24.3902435, -33.1707306, 16.4024391, -0.0809033
