Application:, Trigno Discover (1.6.5)
Date/Time:, 12/02/2025 17:06:21
Collection Length (seconds):, 35.775
wrist (81457), , , , , , bicep (81139)
sensor mode: 609, , , , , , sensor mode: 40
ACC X (G), ACC Y (G), ACC Z (G), GYRO X (deg/s), GYRO Y (deg/s), GYRO Z (deg/s), EMG 1 (mV)
370.3704 Hz, 370.3704 Hz, 370.3704 Hz, 370.3704 Hz, 370.3704 Hz, 370.3704 Hz, 2148.1481 Hz
0.9526367, -0.140625, -0.3188477, -13.2926836, -6.7682929, -3.9024391, 0.0683146
0.940918, -0.1567383, -0.3237305, -13.841464, -6.4634147, -3.9024391, 0.0710002
0.934082, -0.1616211, -0.3291016, -14.4512196, -6.5853658, -3.7804878, 0.0803998
0.925293, -0.1630859, -0.3330078, -14.0853662, -6.8292685, -3.5975611, 0.0810712
0.9277344, -0.159668, -0.3256836, -13.6585369, -7.0731707, -3.7804878, 0.0757
0.9296875, -0.1513672, -0.328125, -12.1341467, -7.7439027, -4.5731707, 0.0736858
0.9379883, -0.1420898, -0.3295898, -11.5853662, -7.5609756, -4.6951222, 0.0656291
0.9365234, -0.137207, -0.3256836, -11.341464, -7.5609756, -5.1829271, 0.0558938
0.9365234, -0.1401367, -0.3276367, -11.4024391, -7.4390244, -5.0609756, 0.0397803
0.9350586, -0.1411133, -0.3232422, -12.560976, -7.4390244, -4.9390244, 0.0226596
0.9375, -0.15625, -0.3222656, -13.4756098, -7.8658538, -4.5121951, 0.0052033
0.9379883, -0.1601562, -0.3261719, -13.841464, -8.0487804, -4.3292685, -0.0146029
0.9316406, -0.1665039, -0.328125, -13.5975609, -8.4756098, -4.4512196, -0.0337377
0.9306641, -0.1689453, -0.3320312, -13.3536587, -8.9024391, -4.6341462, -0.0464942
0.9335938, -0.1616211, -0.3457031, -12.6219511, -8.719512, -4.6341462, -0.0626078
0.9394531, -0.1606445, -0.3461914, -12.6219511, -8.9634151, -4.9390244, -0.072343
0.9448242, -0.1625977, -0.34375, -12.6219511, -9.0853662, -5.4268293, -0.0699931
0.9448242, -0.1625977, -0.3276367, -12.560976, -8.9634151, -5.5487804, -0.0673075
0.940918, -0.1655273, -0.3139648, -12.7439032, -8.3536587, -5.5487804, -0.0632792
0.9316406, -0.1606445, -0.2924805, -12.5, -8.2317076, -5.9146342, -0.0572366
0.9223633, -0.1542969, -0.284668, -12.5, -7.5609756, -5.7317076, -0.0562295
0.9082031, -0.1376953, -0.2749023, -11.9512196, -7.9268293, -5.670732, -0.0552224
0.9077148, -0.1362305, -0.277832, -11.8902445, -8.4146347, -5.609756, -0.0505226
0.9228516, -0.1274414, -0.2871094, -12.3170738, -9.3902445, -5.5487804, -0.0500191
0.9375, -0.128418, -0.2866211, -12.560976, -9.8780489, -5.4878049, -0.0370947
0.9550781, -0.1386719, -0.2817383, -13.4756098, -9.7560978, -5.3658538, -0.0303807
0.9628906, -0.1381836, -0.2788086, -13.9634151, -9.3292685, -5.1829271, -0.0263523
0.9589844, -0.1367188, -0.2768555, -14.6341467, -8.2317076, -5.1829271, -0.0243381
0.9477539, -0.1259766, -0.2675781, -15.1829271, -7.8658538, -5, -0.0260166
0.9423828, -0.125, -0.2675781, -15.6707325, -8.2926826, -4.8170733, -0.0250095
0.9428711, -0.1416016, -0.2666016, -16.1585369, -8.780488, -5.1829271, -0.0290379
0.9433594, -0.1494141, -0.265625, -16.7682934, -9.3292685, -4.7560978, -0.0263523
0.9555664, -0.1489258, -0.2626953, -16.7073174, -9.0243902, -4.2682929, -0.0172885
0.9624023, -0.1420898, -0.2709961, -16.4634151, -8.780488, -4.1463413, -0.0196384
0.9614258, -0.1347656, -0.2802734, -16.8902435, -7.9878049, -4.2682929, -0.0193027
0.9628906, -0.1298828, -0.2875977, -17.439024, -7.9878049, -4.0243902, -0.0209812
0.9609375, -0.1308594, -0.3071289, -18.7195129, -8.0487804, -4.0243902, -0.0250095
0.9672852, -0.1386719, -0.3198242, -19.2073174, -8.2926826, -4.0853658, -0.0365911
0.9663086, -0.1474609, -0.324707, -20.6707325, -8.3536587, -3.6585367, -0.047837
0.9711914, -0.1401367, -0.3354492, -21.4024391, -8.4146347, -3.3536587, -0.0548867
0.965332, -0.1386719, -0.3413086, -22.0731716, -7.1951222, -3.4146342, -0.0585794
0.9550781, -0.1391602, -0.3427734, -23.4146347, -6.8292685, -3.5975611, -0.0679789
0.9477539, -0.1401367, -0.3457031, -23.7195129, -6.7073174, -3.5975611, -0.0679789
0.9389648, -0.144043, -0.3510742, -24.6951218, -6.4024391, -3.4146342, -0.0632792
0.9365234, -0.1445312, -0.355957, -25.4268303, -6.2195125, -2.9878049, -0.0619364
0.9321289, -0.1298828, -0.355957, -26.280489, -5.670732, -3.0487804, -0.0609293
0.9301758, -0.1240234, -0.3525391, -26.6463413, -5.609756, -3.2317073, -0.0595865
0.9360352, -0.1171875, -0.3378906, -27.0121956, -5.3658538, -4.0853658, -0.0605936
0.9443359, -0.1235352, -0.324707, -27.1951218, -5.7926831, -4.2682929, -0.0708324
0.9428711, -0.1245117, -0.3178711, -27.1341476, -6.280488, -4.0853658, -0.0861067
0.9487305, -0.1293945, -0.315918, -27.1951218, -6.5853658, -3.9634147, -0.0887922
0.9511719, -0.1328125, -0.3134766, -26.6463413, -6.9512196, -3.7195122, -0.0941634
0.9536133, -0.144043, -0.309082, -26.280489, -7.6829271, -3.7804878, -0.0961776
0.9555664, -0.1489258, -0.3012695, -25.3658543, -7.9878049, -4.0853658, -0.0894636
0.9560547, -0.1582031, -0.2783203, -24.5731716, -8.4756098, -3.8414636, -0.0775463
0.956543, -0.1552734, -0.2695312, -23.8414631, -8.1707315, -4.2682929, -0.0666361
0.9545898, -0.1450195, -0.2475586, -22.6829281, -8.9024391, -4.7560978, -0.0491798
0.9555664, -0.1455078, -0.2382812, -21.7682934, -9.3902445, -5.0609756, -0.0310521
0.9575195, -0.1474609, -0.2333984, -20.9756107, -10.7317076, -5.0609756, -0.0119173
0.9628906, -0.1474609, -0.2397461, -20.7926826, -11.4634151, -4.8170733, 0.0038605
0.9672852, -0.1450195, -0.2412109, -20.9146347, -12.7439032, -4.5121951, 0.0206455
0.9770508, -0.1479492, -0.2490234, -20.7317085, -13.4146347, -4.4512196, 0.0347448
0.9838867, -0.1552734, -0.2514648, -21.2195129, -14.6951227, -4.390244, 0.0461585
0.9882812, -0.1655273, -0.2480469, -21.280489, -15.7926836, -3.8414636, 0.0481727
0.9824219, -0.1655273, -0.2495117, -21.280489, -15.9756098, -3.9634147, 0.0498512
0.9746094, -0.152832, -0.2548828, -20.6707325, -16.280489, -3.4146342, 0.0488441
0.972168, -0.1499023, -0.2568359, -20.2439022, -16.4634151, -3.1097562, 0.0481727
0.9794922, -0.1303711, -0.2661133, -20.1829281, -17.3780499, -3.1707318, 0.0548867
0.9785156, -0.1210938, -0.2709961, -20.3658543, -17.9878044, -3.5365853, 0.0574044
0.9863281, -0.1113281, -0.2739258, -20.6097565, -18.9634151, -4.0853658, 0.0560616
1.0004883, -0.1230469, -0.2753906, -20.8536587, -19.3902435, -3.9634147, 0.0542153
1.0058594, -0.1293945, -0.2734375, -22.0731716, -19.5121956, -3.5975611, 0.0488441
1.0073242, -0.1464844, -0.265625, -22.8658543, -19.8170738, -3.2317073, 0.043473
1.0048828, -0.1518555, -0.2597656, -23.2317085, -19.2682934, -3.1097562, 0.0374304
0.9936523, -0.1606445, -0.2573242, -23.2926826, -19.0853672, -2.7439024, 0.0297093
0.9819336, -0.1586914, -0.2607422, -22.8048782, -19.2073174, -3.1707318, 0.0159457
0.9833984, -0.1464844, -0.2758789, -22.2560978, -19.6341476, -3.1707318, -0.0011749
0.9819336, -0.140625, -0.2866211, -22.0121956, -19.5121956, -3.3536587, -0.027863
0.9897461, -0.1298828, -0.3051758, -20.7926826, -20.060976, -3.4146342, -0.0505226
1.0014648, -0.1240234, -0.3085938, -20.1829281, -19.8780499, -3.4146342, -0.064622
1.015625, -0.1171875, -0.3173828, -19.6341476, -19.0243912, -3.4146342, -0.0740215
1, -0.1088867, -0.3217773, -19.5731716, -18.2926826, -3.4146342, -0.0807355
0.9921875, -0.1108398, -0.3256836, -20.1829281, -17.439024, -2.8658538, -0.0894636
0.9760742, -0.1157227, -0.3300781, -20.7317085, -17.3780499, -2.8658538, -0.0981918
0.9619141, -0.1220703, -0.3266602, -21.6463413, -17.8658543, -2.5609756, -0.0985275
0.9555664, -0.1347656, -0.328125, -21.8902435, -17.8658543, -2.0731707, -0.0884565
0.9584961, -0.1391602, -0.3330078, -22.1951218, -17.3170738, -2.4390244, -0.068986
0.956543, -0.1469727, -0.34375, -22.1951218, -16.7073174, -2.8658538, -0.0488441
0.9501953, -0.1479492, -0.3452148, -22.3780499, -16.2195129, -3.0487804, -0.0320592
0.949707, -0.1430664, -0.3427734, -22.1341476, -15.7317076, -3.1097562, -0.0129244
0.9462891, -0.1342773, -0.3364258, -21.7682934, -15.6097565, -2.8658538, -0.0099031
0.9506836, -0.1220703, -0.3271484, -20.7317085, -14.7560978, -2.804878, -0.0297093
0.9521484, -0.1176758, -0.3139648, -20.3048782, -14.8170738, -3.2926829, -0.0540475
0.9506836, -0.1103516, -0.3095703, -20.4878044, -14.4512196, -3.1707318, -0.0706645
0.9536133, -0.1186523, -0.2910156, -21.0365868, -14.4512196, -3.2926829, -0.0706645
0.9541016, -0.1230469, -0.2832031, -21.4024391, -14.4512196, -2.6829269, -0.0726787
0.9526367, -0.1318359, -0.2651367, -21.4634151, -14.8170738, -2.5609756, -0.0720073
0.9545898, -0.1308594, -0.2641602, -21.2195129, -14.6341467, -2.5, -0.0696574
0.953125, -0.1337891, -0.2602539, -20.9756107, -14.6341467, -2.3170731, -0.068986
0.9506836, -0.1333008, -0.2597656, -20.5487804, -14.4512196, -2.1341465, -0.0706645
0.9506836, -0.128418, -0.2641602, -20.1829281, -14.8170738, -1.9512196, -0.0595865
0.9521484, -0.1225586, -0.2626953, -20.3048782, -14.9390249, -1.7073171, -0.0317235
0.953125, -0.1142578, -0.2563477, -20, -15.2439032, -1.7682927, -0.0105745
0.9526367, -0.1098633, -0.2475586, -20.3048782, -15.4268293, -1.8902439, 0.0105745
0.9541016, -0.1147461, -0.2451172, -20.7317085, -15.8536587, -1.2195122, 0.0253452
0.9448242, -0.1166992, -0.2329102, -21.0365868, -15.9146347, -1.097561, 0.0310521
0.9404297, -0.1157227, -0.2250977, -21.3414631, -16.3414631, -0.6707317, 0.0297093
0.9345703, -0.1157227, -0.2216797, -20.7926826, -17.0121956, -0.7317073, 0.0191348
0.9365234, -0.1118164, -0.2265625, -20.5487804, -17.3170738, -0.7926829, 0.0112459
0.934082, -0.1225586, -0.2397461, -20.1219521, -18.4146347, -0.4268293, 0.0016785
0.9423828, -0.1235352, -0.2460938, -20.1219521, -19.2073174, 0.0609756, -0.0082246
0.9526367, -0.1333008, -0.2421875, -20.3658543, -19.5121956, 0.1829268, -0.012253
0.9541016, -0.1367188, -0.2387695, -20.060976, -19.3292694, 0.0609756, -0.008896
0.9477539, -0.1396484, -0.2324219, -19.5121956, -19.5731716, -0.1219512, -0.0045319
0.934082, -0.1376953, -0.2373047, -19.2682934, -19.6951218, 0, -0.0008392
0.9326172, -0.1328125, -0.2416992, -18.7195129, -20.7926826, 0.6097561, -0.0008392
0.9296875, -0.1235352, -0.2485352, -18.1707325, -20.9146347, 0.4878049, -0.0031891
0.9345703, -0.1166992, -0.2548828, -17.2560978, -22.560976, 0.4268293, -0.0102388
0.9501953, -0.1166992, -0.2666016, -15.9756098, -23.6585369, -0.0609756, -0.0140993
0.9560547, -0.1220703, -0.2719727, -15.3048782, -24.0853672, 0.3658537, -0.012253
0.9599609, -0.1269531, -0.2783203, -14.6341467, -23.9634151, 0.3048781, -0.0035248
0.9516602, -0.128418, -0.2773438, -14.0243902, -23.7195129, 0.3658537, 0.0038605
0.9516602, -0.1201172, -0.2724609, -12.9878054, -23.3536587, 0.1219512, 0.0172885
0.9428711, -0.1147461, -0.2680664, -12.6219511, -23.1097565, -0.0609756, 0.0253452
0.9306641, -0.112793, -0.2792969, -12.5, -22.9268303, -0.4268293, 0.026688
0.9350586, -0.1142578, -0.300293, -13.4146347, -22.8048782, -0.2439024, 0.0240024
0.9433594, -0.1162109, -0.3085938, -14.6951227, -23.1707325, 0.0609756, 0.0149386
0.9594727, -0.1225586, -0.3276367, -15.3658543, -22.6829281, 0.0609756, 0.0062104
0.9648438, -0.1225586, -0.3417969, -15.7317076, -22.5, 0.3658537, -0.002182
0.9775391, -0.1206055, -0.3505859, -15.3658543, -20.9146347, 0.0609756, -0.0085603
0.9736328, -0.1196289, -0.3549805, -15.1219511, -20.1219521, 0.2439024, -0.0142672
0.9750977, -0.112793, -0.3520508, -15.060976, -18.6585369, -0.2439024, -0.0253452
0.9702148, -0.109375, -0.347168, -15.3048782, -18.1707325, -0.1219512, -0.0297093
0.9599609, -0.1010742, -0.3422852, -15.6097565, -17.0121956, -0.7926829, -0.0323949
0.9541016, -0.1049805, -0.3398438, -16.2195129, -17.0121956, -0.7926829, -0.0377661
0.9550781, -0.1088867, -0.3364258, -17.1341476, -16.280489, -0.4268293, -0.0498512
0.9575195, -0.1132812, -0.3359375, -17.8048782, -16.0365849, -0.3048781, -0.0627756
0.9648438, -0.1157227, -0.3369141, -17.7439022, -15.6707325, 0.1219512, -0.0713359
0.9711914, -0.1186523, -0.3422852, -17.8048782, -15.4878054, -0.3048781, -0.0780499
0.9790039, -0.1142578, -0.3393555, -17.3170738, -15.3048782, 0, -0.0775463
0.9902344, -0.1103516, -0.3486328, -16.7073174, -14.5731707, 0.0609756, -0.072343
0.9926758, -0.1074219, -0.3481445, -16.5243912, -14.2073174, 0.1219512, -0.0713359
0.9956055, -0.1020508, -0.3374023, -16.3414631, -13.1097565, -0.3048781, -0.0632792
0.9960938, -0.0981445, -0.3305664, -16.1585369, -12.9268293, -0.5487805, -0.0468299
0.9912109, -0.0942383, -0.3193359, -16.5853653, -12.1341467, -0.5487805, -0.0297093
0.9882812, -0.097168, -0.3125, -16.5243912, -11.7073174, -0.3658537, -0.0166171
0.9804688, -0.1040039, -0.3027344, -16.5853653, -11.8292685, -0.2439024, -0.0062104
0.9819336, -0.1069336, -0.2993164, -16.5243912, -12.0731707, 0.1219512, 0.0072175
0.980957, -0.105957, -0.2988281, -16.0975609, -12.3170738, 0.3048781, 0.0146029
0.9873047, -0.1049805, -0.3046875, -15.7317076, -12.4390249, 0.3048781, 0.0129244
0.984375, -0.1040039, -0.3051758, -15.1829271, -12.3170738, 0.1219512, 0.0125887
0.9951172, -0.1025391, -0.3061523, -15, -12.4390249, 0.3048781, 0.0130922
0.9946289, -0.1020508, -0.3012695, -14.6341467, -12.3170738, 0.4268293, 0.0038605
1.0014648, -0.0991211, -0.2875977, -13.4756098, -11.9512196, 0.3658537, -0.0028534
0.996582, -0.1025391, -0.2807617, -13.1097565, -12.0121956, -0.0609756, -0.0062104
0.9897461, -0.1005859, -0.2724609, -12.0731707, -11.8902445, -0.1829268, -0.0087282
0.9887695, -0.0976562, -0.2675781, -11.4024391, -11.7682934, -0.2439024, -0.0078889
0.9833984, -0.1010742, -0.2631836, -11.0975609, -12.5, -0.4268293, -0.0095674
0.9887695, -0.1103516, -0.2558594, -10.6707315, -12.9878054, -0.1219512, -0.01561
0.9931641, -0.1147461, -0.2539062, -9.8170738, -13.2317076, -0.2439024, -0.0238346
0.9902344, -0.1137695, -0.2597656, -9.5731707, -13.4146347, -0.1829268, -0.0364233
0.9892578, -0.1108398, -0.2592773, -8.3536587, -13.5365858, 0.4878049, -0.0438087
0.987793, -0.1000977, -0.2705078, -7.8048782, -13.7195129, 0.4878049, -0.0461585
0.9873047, -0.0947266, -0.2768555, -7.4390244, -13.9634151, 0.5487805, -0.0404517
0.9907227, -0.0883789, -0.2900391, -7.1341467, -14.7560978, 0.7317073, -0.0364233
0.9868164, -0.0830078, -0.2944336, -6.9512196, -14.8780489, 0.8536586, -0.0323949
0.9858398, -0.0849609, -0.2998047, -7.3780489, -15.2439032, 1.5243902, -0.0293736
0.9829102, -0.0854492, -0.3007812, -7.6829271, -15.060976, 1.7073171, -0.0219883
0.9780273, -0.0751953, -0.2983398, -8.1097565, -14.9390249, 2.0121951, -0.0171206
0.9667969, -0.0810547, -0.2983398, -8.780488, -14.9390249, 1.7682927, -0.0135958
0.9604492, -0.0859375, -0.296875, -9.8780489, -15.1829271, 1.9512196, -0.0199741
0.9536133, -0.09375, -0.3056641, -10.3658543, -15.5487804, 2.3780489, -0.0236667
0.9545898, -0.09375, -0.3085938, -10.9756098, -16.3414631, 3.6585367, -0.0263523
0.9570312, -0.0820312, -0.3173828, -10.5487804, -16.8902435, 4.390244, -0.0224918
0.9580078, -0.081543, -0.3208008, -10.1829271, -16.7073174, 4.390244, -0.0216526
0.9628906, -0.0703125, -0.3305664, -9.5731707, -16.5243912, 4.0243902, -0.0199741
0.9672852, -0.0639648, -0.331543, -9.5731707, -16.3414631, 3.6585367, -0.0196384
0.9711914, -0.0742188, -0.3354492, -10.4268293, -16.0365849, 3.7195122, -0.0162814
0.9760742, -0.0859375, -0.3193359, -11.0975609, -15.7926836, 3.7195122, -0.0129244
0.9780273, -0.0878906, -0.3149414, -11.1585369, -15.1829271, 3.5975611, -0.0075532
0.9648438, -0.0864258, -0.2954102, -10.7317076, -14.5731707, 3.2317073, -0.0112459
0.9604492, -0.0795898, -0.2890625, -9.4512196, -13.780488, 3.3536587, -0.0229953
0.9580078, -0.0708008, -0.2739258, -9.0853662, -14.0243902, 2.9878049, -0.0313878
0.9594727, -0.0708008, -0.2768555, -7.9268293, -14.3902445, 2.195122, -0.0404517
0.9633789, -0.0771484, -0.2929688, -6.6463418, -14.3902445, 1.2195122, -0.0448157
0.9628906, -0.0820312, -0.3095703, -6.4024391, -14.2073174, 1.5243902, -0.0548867
0.9648438, -0.1010742, -0.3344727, -8.1707315, -14.1463413, 1.9512196, -0.0699931
0.9614258, -0.1088867, -0.3378906, -8.5975609, -13.9024391, 2.5, -0.0793927
0.9570312, -0.1191406, -0.3344727, -9.4512196, -12.6829271, 2.6219513, -0.0908064
0.9379883, -0.1210938, -0.3349609, -9.0853662, -12.4390249, 2.6219513, -0.0978561
0.9306641, -0.1181641, -0.3339844, -8.2317076, -11.9512196, 1.7073171, -0.0995346
0.9116211, -0.1132812, -0.3378906, -7.2560978, -12.1341467, 1.6463414, -0.0988632
0.9067383, -0.1054688, -0.3398438, -6.0365853, -12.9268293, 1.402439, -0.1030594
0.9125977, -0.1030273, -0.3432617, -5.9146342, -13.1707315, 1.2804878, -0.1294118
0.9130859, -0.0966797, -0.3481445, -5.8536587, -13.7195129, 1.3414634, -0.1421683
0.9101562, -0.0927734, -0.3500977, -6.2195125, -13.2317076, 1.8292683, -0.1384756
0.9086914, -0.078125, -0.3500977, -7.0121951, -12.6829271, 2.3170731, -0.1270619
0.9140625, -0.0507812, -0.3500977, -8.2926826, -12.1951218, 2.6829269, -0.1045701
0.9174805, -0.0405273, -0.3447266, -9.1463413, -12.4390249, 2.4390244, -0.0767071
0.9287109, -0.0493164, -0.3378906, -10.3048782, -13.1097565, 1.6463414, -0.051194
0.9414062, -0.0625, -0.324707, -10.9756098, -13.0487804, 2.2560976, -0.0229953
0.9443359, -0.0664062, -0.3208008, -11.6463413, -12.1951218, 3.2926829, 0.0011749
0.949707, -0.0678711, -0.3310547, -11.7073174, -11.5243902, 3.7195122, 0.0219883
0.9511719, -0.0761719, -0.3388672, -12.2560978, -10.1219511, 3.2926829, 0.0461585
0.9467773, -0.097168, -0.3588867, -12.1951218, -9.9390249, 3.3536587, 0.072343
0.9428711, -0.1118164, -0.3657227, -12.2560978, -9.3902445, 3.1097562, 0.0948348
0.940918, -0.1425781, -0.3842773, -12.4390249, -9.0243902, 3.2317073, 0.1139696
0.9384766, -0.1533203, -0.3964844, -12.4390249, -8.5365858, 3.5975611, 0.1230335
0.9370117, -0.1733398, -0.4179688, -12.1951218, -8.0487804, 3.6585367, 0.1153124
0.9277344, -0.1708984, -0.4272461, -11.8902445, -7.8658538, 3.7195122, 0.1005417
0.9223633, -0.1630859, -0.4399414, -10.7926836, -7.5609756, 3.4756098, 0.0830854
0.9189453, -0.1484375, -0.4365234, -10, -7.6219516, 3.3536587, 0.072343
0.9189453, -0.1308594, -0.4306641, -8.6585369, -8.1097565, 3.0487804, 0.0741894
0.9223633, -0.1074219, -0.4125977, -8.6585369, -7.6829271, 2.804878, 0.0763714
0.9208984, -0.0952148, -0.4033203, -8.780488, -7.5, 2.3170731, 0.0787213
0.9365234, -0.0952148, -0.371582, -9.1463413, -7.3780489, 2.5, 0.0830854
0.9345703, -0.0893555, -0.3608398, -10.1219511, -6.5853658, 2.7439024, 0.0834211
0.9233398, -0.0698242, -0.3388672, -11.219512, -5.4878049, 3.5975611, 0.0827497
0.9194336, -0.0585938, -0.3339844, -11.4634151, -5.1219511, 3.9634147, 0.0733501
0.9238281, -0.0473633, -0.3256836, -12.5, -5.670732, 3.8414636, 0.0582437
0.925293, -0.0458984, -0.3193359, -13.4146347, -6.0975609, 3.9024391, 0.0454871
0.9321289, -0.0546875, -0.3120117, -15.060976, -6.5853658, 4.5121951, 0.0273594
0.9423828, -0.0683594, -0.3198242, -15.7317076, -6.4024391, 5.0609756, 0.0102388
0.9487305, -0.0854492, -0.3305664, -17.3170738, -5.5487804, 5.4878049, -0.0035248
0.9433594, -0.109375, -0.3466797, -18.2317085, -5.3048782, 5.7926831, -0.008896
0.9389648, -0.1210938, -0.3461914, -19.1463413, -4.9390244, 6.4634147, -0.0142672
0.9321289, -0.1401367, -0.347168, -19.3292694, -4.5121951, 6.4634147, -0.0198062
0.9257812, -0.1416016, -0.3535156, -19.3292694, -3.7195122, 6.5853658, -0.0263523
0.9042969, -0.1269531, -0.3969727, -20.1219521, -0.4268293, 7.7439027, -0.0377661
0.8911133, -0.1166992, -0.4267578, -21.280489, 1.8292683, 8.719512, -0.0471656
0.8818359, -0.0986328, -0.4780273, -25.7317085, 4.9390244, 10.4878054, -0.0498512
0.8808594, -0.0922852, -0.484375, -28.0487804, 5.7926831, 10.7317076, -0.0495155
0.8852539, -0.0732422, -0.4780273, -32.3170738, 7.5609756, 11.280488, -0.0458228
0.8969727, -0.0571289, -0.4863281, -34.6341476, 9.0853662, 11.4024391, -0.0471656
0.9013672, -0.0522461, -0.4936523, -40.2439041, 12.1341467, 12.4390249, -0.0464942
0.9023438, -0.0527344, -0.4975586, -43.2926826, 12.9268293, 12.9268293, -0.0453193
0.8999023, -0.0546875, -0.4892578, -47.8048782, 12.560976, 13.9634151, -0.0387732
0.9194336, -0.0585938, -0.4711914, -50.1829262, 10.5487804, 14.7560978, -0.0317235
0.9296875, -0.0673828, -0.4599609, -51.0365868, 10.1219511, 14.7560978, -0.023331
0.9404297, -0.1000977, -0.4472656, -51.9512215, 9.2682924, 13.9634151, -0.0193027
0.9418945, -0.1142578, -0.4418945, -52.3170738, 8.841464, 14.2073174, -0.0182956
0.9306641, -0.1342773, -0.4365234, -52.4390259, 7.3170733, 14.8780489, -0.01561
0.9282227, -0.140625, -0.4213867, -52.1341476, 5.8536587, 15.4268293, -0.0186313
0.9365234, -0.1420898, -0.40625, -50.0609779, 3.5975611, 15.7926836, -0.0216526
0.9575195, -0.1318359, -0.3950195, -48.841465, 2.7439024, 15.7317076, -0.0260166
0.9584961, -0.1264648, -0.3881836, -47.4390259, 1.2804878, 15.1829271, -0.0290379
0.9741211, -0.1230469, -0.3803711, -47.1341476, 0.7317073, 15.6707325, -0.0276951
0.984375, -0.1196289, -0.3569336, -47.3780518, -0.1219512, 16.280489, -0.0310521
0.9936523, -0.1181641, -0.3217773, -46.4634171, 0, 16.5243912, -0.0397803
0.9946289, -0.1171875, -0.3066406, -45.2439041, 0, 16.3414631, -0.0610971
0.9858398, -0.1103516, -0.3017578, -41.7073174, -0.3048781, 16.0365849, -0.0773785
0.980957, -0.1137695, -0.3056641, -40.4878044, -0.6097561, 15.9756098, -0.0884565
0.9750977, -0.1259766, -0.3291016, -37.5609779, -0.9756098, 16.1585369, -0.096849
0.9765625, -0.1308594, -0.3432617, -37.1341476, -1.2195122, 16.0975609, -0.0951705
0.9765625, -0.1557617, -0.3623047, -36.7682953, -1.1585366, 16.2195129, -0.0876173
0.9726562, -0.1826172, -0.3696289, -36.8292694, -1.4634147, 16.0975609, -0.0783856
0.965332, -0.1918945, -0.3632812, -36.2804871, -1.5243902, 15.6707325, -0.0676432
0.9448242, -0.1933594, -0.3369141, -36.0975609, -1.1585366, 15.6097565, -0.0585794
0.9296875, -0.1865234, -0.3237305, -34.4512215, -0.6707317, 14.8780489, -0.0475013
0.9160156, -0.1547852, -0.3007812, -32.9878044, -1.097561, 13.780488, -0.04448
0.9121094, -0.1474609, -0.2958984, -32.6219521, -1.3414634, 12.9268293, -0.0404517
0.9169922, -0.1376953, -0.2885742, -32.5, -2.3780489, 12.5, -0.0381018
0.9174805, -0.1420898, -0.2929688, -32.3780479, -3.3536587, 12.2560978, -0.0350805
0.9467773, -0.1591797, -0.2998047, -31.9512196, -4.8170733, 12.0121956, -0.0270237
0.9599609, -0.1650391, -0.3032227, -31.341465, -5.1829271, 12.1341467, -0.024506
0.972168, -0.184082, -0.3125, -29.7560978, -4.8170733, 12.1341467, -0.0307164
0.9697266, -0.1870117, -0.3203125, -29.7560978, -4.3292685, 12.1951218, -0.0399481
0.9624023, -0.1860352, -0.3256836, -29.0243912, -2.9268293, 12.5, -0.0501869
0.9501953, -0.1938477, -0.324707, -29.0243912, -2.6829269, 12.3170738, -0.061265
0.9375, -0.1879883, -0.324707, -28.2926826, -2.2560976, 12.6829271, -0.0669718
0.9208984, -0.1782227, -0.3383789, -27.1341476, -2.2560976, 12.6829271, -0.0703288
0.9150391, -0.1728516, -0.3500977, -26.5243912, -2.4390244, 12.7439032, -0.0659648
0.9125977, -0.1508789, -0.3911133, -26.8292694, -1.8292683, 13.2317076, -0.057908
0.9086914, -0.1401367, -0.4057617, -27.1951218, -2.0731707, 13.4756098, -0.0558938
0.9272461, -0.1259766, -0.3886719, -28.9634151, -2.6829269, 14.4512196, -0.0488441
0.9448242, -0.1225586, -0.3662109, -29.4512196, -2.804878, 14.5121956, -0.0290379
0.9760742, -0.1147461, -0.3398438, -29.5121956, -1.5853659, 12.8048782, -0.0142672
0.9702148, -0.112793, -0.3305664, -29.2682934, -0.6097561, 12.0731707, -0.0075532
0.9560547, -0.1157227, -0.3374023, -30.1219521, 0.3658537, 11.8902445, -0.008896
0.9326172, -0.1230469, -0.3505859, -30.4878063, 0.2439024, 12.4390249, -0.0085603
0.9248047, -0.1293945, -0.3588867, -31.5853672, -0.7317073, 14.5731707, -0.0166171
0.9174805, -0.1323242, -0.3608398, -31.8292694, -0.6097561, 15.9756098, -0.026688
0.918457, -0.1323242, -0.3579102, -31.9512196, -0.7926829, 16.4024391, -0.0280308
0.9262695, -0.1245117, -0.3388672, -31.6463413, 0.1219512, 16.1585369, -0.017792
0.9384766, -0.1210938, -0.3291016, -31.4634151, 0.9146342, 15.3048782, 0.0041962
0.9370117, -0.1186523, -0.3066406, -32.2560997, 2.0121951, 14.3292685, 0.0219883
0.9335938, -0.1225586, -0.2973633, -32.9878044, 2.5609756, 13.9634151, 0.0374304
0.9194336, -0.1279297, -0.2861328, -34.1463432, 2.0731707, 14.5121956, 0.0501869
0.9067383, -0.1430664, -0.2861328, -34.4512215, 1.5853659, 14.9390249, 0.051194
0.902832, -0.1499023, -0.2880859, -34.2073174, 0.9756098, 16.0365849, 0.0495155
0.9013672, -0.1655273, -0.3027344, -33.841465, 0.3048781, 16.5243912, 0.0421302
0.9013672, -0.1635742, -0.3100586, -32.8048782, -1.1585366, 16.7682934, 0.0330663
0.9057617, -0.1777344, -0.3115234, -31.341465, -1.7073171, 16.5243912, 0.0260166
0.9091797, -0.1826172, -0.3041992, -30.3658543, -2.0121951, 16.0975609, 0.0142672
0.9042969, -0.184082, -0.3041992, -28.9634151, -2.3170731, 14.9390249, 0.0038605
0.9052734, -0.1821289, -0.3085938, -28.2926826, -2.3780489, 15.060976, -0.0068818
0.8920898, -0.1835938, -0.3076172, -27.6219521, -2.5, 15.1829271, -0.01561
0.8867188, -0.1875, -0.3076172, -27.6219521, -2.5609756, 15.3658543, -0.0260166
0.8803711, -0.184082, -0.2983398, -27.4390259, -3.5365853, 15.9756098, -0.0339055
0.8935547, -0.1865234, -0.2915039, -27.1951218, -3.9024391, 16.0975609, -0.0404517
0.8964844, -0.1850586, -0.2949219, -25.6707325, -4.5121951, 15.8536587, -0.0464942
0.9072266, -0.1821289, -0.2973633, -24.7560978, -4.8170733, 15.2439032, -0.0574044
0.9116211, -0.1777344, -0.3032227, -24.0243912, -3.9634147, 15, -0.057908
0.9174805, -0.175293, -0.3232422, -23.7195129, -3.7195122, 14.6951227, -0.0572366
0.921875, -0.1777344, -0.3286133, -23.780489, -3.9634147, 14.6951227, -0.0565652
0.9301758, -0.1791992, -0.3330078, -23.5365868, -4.4512196, 15, -0.0594186
0.9326172, -0.1865234, -0.3334961, -22.6829281, -4.6341462, 15, -0.0619364
0.9438477, -0.1933594, -0.3320312, -21.7073174, -4.5121951, 14.3292685, -0.0626078
0.9423828, -0.1928711, -0.3344727, -21.3414631, -4.2682929, 14.0243902, -0.0572366
0.9418945, -0.1943359, -0.3408203, -20.060976, -3.7804878, 13.4756098, -0.0520333
0.9311523, -0.1914062, -0.3359375, -20, -3.5365853, 13.5365858, -0.043473
0.9311523, -0.1884766, -0.328125, -19.3292694, -3.3536587, 13.4146347, -0.0313878
0.9272461, -0.184082, -0.3212891, -18.9024391, -3.5975611, 12.9878054, -0.0283665
0.925293, -0.1816406, -0.3251953, -18.1097565, -3.8414636, 12.8658543, -0.0229953
0.9228516, -0.1801758, -0.3393555, -18.0487804, -3.8414636, 12.1951218, -0.0216526
0.9262695, -0.1791992, -0.3378906, -18.2926826, -3.9024391, 12.0121956, -0.0193027
0.9335938, -0.1806641, -0.3325195, -18.2926826, -3.9634147, 11.4024391, -0.0179599
0.9360352, -0.1811523, -0.3286133, -18.1097565, -4.2073174, 11.341464, -0.0124208
0.940918, -0.1728516, -0.3271484, -17.0731716, -3.7195122, 10.9756098, -0.0119173
0.9423828, -0.1660156, -0.3339844, -16.9512196, -3.5975611, 10.9756098, -0.0135958
0.9389648, -0.1572266, -0.3398438, -16.8292694, -3.1707318, 10.9756098, -0.0191348
0.9428711, -0.1459961, -0.3564453, -16.7682934, -3.2317073, 10.9756098, -0.0193027
0.9472656, -0.1430664, -0.3618164, -17.0731716, -3.9024391, 11.0975609, -0.0196384
0.953125, -0.1450195, -0.3706055, -17.560976, -4.3292685, 10.9756098, -0.0229953
0.9506836, -0.1484375, -0.3701172, -18.3536587, -4.6951222, 10.6097565, -0.0441444
0.9667969, -0.1650391, -0.3554688, -19.0243912, -4.8170733, 10.2439022, -0.0686503
0.9682617, -0.1757812, -0.3442383, -18.4756107, -4.7560978, 9.5121956, -0.0861067
0.9731445, -0.1928711, -0.3222656, -16.8902435, -4.2073174, 8.6585369, -0.1025559
0.9648438, -0.1938477, -0.315918, -15.6097565, -4.0243902, 8.6585369, -0.1156481
0.9541016, -0.1791992, -0.309082, -13.7195129, -4.0243902, 9.1463413, -0.1290761
0.9555664, -0.1704102, -0.3076172, -13.3536587, -3.9024391, 9.5731707, -0.1374685
0.9619141, -0.1513672, -0.3076172, -12.4390249, -4.3292685, 9.3292685, -0.1411612
0.9736328, -0.1435547, -0.3286133, -12.3780489, -4.6951222, 8.9634151, -0.1341115
0.9833984, -0.1484375, -0.3369141, -12.9268293, -5.670732, 8.4146347, -0.1163195
0.9956055, -0.1733398, -0.3544922, -13.5365858, -6.0365853, 8.0487804, -0.0918135
0.9990234, -0.1757812, -0.3623047, -14.2682934, -6.1585369, 8.5365858, -0.0666361
0.9985352, -0.1826172, -0.3696289, -14.6341467, -5.1829271, 8.5365858, -0.0350805
1.0014648, -0.1835938, -0.3706055, -14.7560978, -4.7560978, 8.780488, -0.012253
1.0126953, -0.1787109, -0.371582, -13.780488, -4.6951222, 8.1707315, 0.008896
1.0166016, -0.1801758, -0.3720703, -13.7195129, -5.1829271, 7.7439027, 0.0370947
1.0185547, -0.1899414, -0.3789062, -13.6585369, -5.9146342, 6.7682929, 0.0703288
1.0219727, -0.1948242, -0.3769531, -13.6585369, -5.9146342, 6.4634147, 0.0971847
1.0166016, -0.2045898, -0.371582, -14.2073174, -6.0365853, 6.5243902, 0.1163195
1.0009766, -0.2099609, -0.3657227, -14.1463413, -5.5487804, 6.5853658, 0.1237049
0.9946289, -0.2050781, -0.3613281, -13.9024391, -4.6951222, 6.890244, 0.119173
0.9824219, -0.1850586, -0.34375, -13.2926836, -4.390244, 6.7682929, 0.1052415
0.9731445, -0.1694336, -0.3364258, -11.8902445, -4.6341462, 6.4024391, 0.0871138
0.9672852, -0.1450195, -0.3359375, -10.9756098, -5.3048782, 6.280488, 0.0488441
0.9672852, -0.1362305, -0.3378906, -10.9146347, -5.9756098, 5.9756098, -0.0015106
0.980957, -0.1259766, -0.3417969, -11.7073174, -7.4390244, 5.5487804, -0.0330663
0.9897461, -0.1318359, -0.3374023, -12.1341467, -7.8048782, 5.4878049, -0.0518654
1.0019531, -0.1489258, -0.3310547, -11.7073174, -8.780488, 5, -0.0552224
0.9926758, -0.1567383, -0.3271484, -11.5853662, -8.841464, 4.8780489, -0.0498512
0.9868164, -0.1552734, -0.3271484, -10.3048782, -8.5365858, 5.1829271, -0.0464942
0.9663086, -0.1474609, -0.3261719, -9.4512196, -8.6585369, 5.609756, -0.0431373
0.9584961, -0.140625, -0.3276367, -8.1707315, -9.3902445, 5.9146342, -0.0357519
0.949707, -0.1318359, -0.3305664, -7.6219516, -10.4268293, 5.7926831, -0.0303807
0.953125, -0.1381836, -0.3398438, -7.5, -11.7682934, 5.1829271, -0.0236667
0.9638672, -0.1459961, -0.3442383, -7.6219516, -12.3780489, 5.1829271, -0.0099031
0.9667969, -0.1455078, -0.3466797, -7.5609756, -12.0121956, 5.4268293, 0.0119173
0.9746094, -0.1425781, -0.3491211, -7.6829271, -11.7682934, 5.7926831, 0.030045
0.9770508, -0.1342773, -0.3510742, -7.5609756, -12.0121956, 6.0975609, 0.0481727
0.9750977, -0.1240234, -0.3588867, -7.0731707, -13.0487804, 6.5853658, 0.0616007
0.9814453, -0.105957, -0.3603516, -6.5243902, -13.780488, 7.1951222, 0.0669718
0.9829102, -0.1000977, -0.3574219, -6.7073174, -13.780488, 7.8048782, 0.0639506
0.9873047, -0.0961914, -0.347168, -7.1341467, -14.0853662, 7.7439027, 0.0582437
0.9907227, -0.0981445, -0.3432617, -8.1097565, -14.1463413, 7.6219516, 0.0522011
0.9892578, -0.1230469, -0.3364258, -8.6585369, -14.0853662, 7.2560978, 0.0488441
0.9853516, -0.1416016, -0.3310547, -9.6341467, -14.5121956, 6.8292685, 0.040116
0.9794922, -0.171875, -0.3339844, -10, -15.060976, 7.3780489, 0.0273594
0.9804688, -0.1791992, -0.3334961, -9.5731707, -14.8780489, 7.6829271, 0.0179599
0.972168, -0.1835938, -0.3222656, -8.2317076, -14.3292685, 8.4146347, 0.0124208
0.9731445, -0.1738281, -0.3164062, -7.4390244, -13.9024391, 8.5975609, 0.0028534
0.9716797, -0.1621094, -0.3076172, -6.1585369, -13.6585369, 7.7439027, -0.0045319
0.9726562, -0.152832, -0.315918, -5.609756, -13.4756098, 7.2560978, -0.0169528
0.9702148, -0.1552734, -0.3217773, -6.9512196, -13.780488, 6.890244, -0.0196384
0.9726562, -0.1542969, -0.3173828, -7.7439027, -14.2682934, 7.1341467, -0.0193027
0.9755859, -0.1582031, -0.3154297, -8.6585369, -15.1829271, 7.3170733, -0.0223239
0.9794922, -0.1577148, -0.3032227, -8.9634151, -15.6097565, 7.2560978, -0.0288701
0.9775391, -0.1533203, -0.3046875, -8.2926826, -15.060976, 7.0121951, -0.0317235
0.9648438, -0.1425781, -0.3076172, -7.3170733, -15.2439032, 6.9512196, -0.0313878
0.9584961, -0.1323242, -0.3139648, -7.1341467, -15.6707325, 7.5609756, -0.0323949
0.9521484, -0.1181641, -0.3286133, -7.6219516, -16.2195129, 7.8658538, -0.0359197
0.9541016, -0.1210938, -0.3339844, -8.2926826, -16.4024391, 8.1707315, -0.0417945
0.9599609, -0.1269531, -0.3476562, -8.9634151, -16.4024391, 8.2317076, -0.0446479
0.9702148, -0.1337891, -0.359375, -9.4512196, -16.5853653, 7.9878049, -0.0454871
0.9682617, -0.1342773, -0.3671875, -10, -16.7682934, 8.0487804, -0.0446479
0.965332, -0.1411133, -0.3876953, -10.4878054, -16.8292694, 8.1707315, -0.0433051
0.9633789, -0.140625, -0.3925781, -11.0975609, -16.7682934, 8.5365858, -0.0407874
0.9619141, -0.1484375, -0.3813477, -12.0121956, -16.5243912, 8.5975609, -0.0428016
0.9643555, -0.1523438, -0.3710938, -12.3170738, -16.8902435, 8.4756098, -0.0412909
0.9570312, -0.1601562, -0.3579102, -12.0731707, -17.439024, 8.1707315, -0.0357519
0.9501953, -0.1601562, -0.3496094, -11.5853662, -17.560976, 8.2317076, -0.0377661
0.9379883, -0.1518555, -0.3349609, -11.4024391, -17.3170738, 8.6585369, -0.0397803
0.9282227, -0.1489258, -0.3325195, -11.4634151, -17.6829281, 8.9634151, -0.0404517
0.9326172, -0.144043, -0.3266602, -11.7073174, -18.4146347, 9.5731707, -0.0384375
0.9360352, -0.1357422, -0.3359375, -11.5243902, -19.0243912, 9.5731707, -0.0404517
0.9462891, -0.1396484, -0.3369141, -12.0121956, -20.2439022, 9.5731707, -0.0384375
0.9570312, -0.1479492, -0.3393555, -12.2560978, -20.4878044, 9.8170738, -0.0411231
0.9614258, -0.1557617, -0.3339844, -12.5, -21.5853672, 9.6951218, -0.0387732
0.9702148, -0.1660156, -0.3203125, -12.5, -21.8902435, 9.5731707, -0.0387732
0.9667969, -0.1748047, -0.3129883, -12.5, -21.8292694, 9.8780489, -0.04448
0.9604492, -0.1748047, -0.2978516, -12.0121956, -22.1951218, 9.7560978, -0.0468299
0.9516602, -0.1777344, -0.2929688, -12.0121956, -22.439024, 9.6951218, -0.0485084
0.9414062, -0.1831055, -0.2929688, -11.8292685, -24.0243912, 9.8170738, -0.0451514
0.940918, -0.1865234, -0.3017578, -11.7073174, -24.4512196, 9.8780489, -0.0397803
0.9418945, -0.1894531, -0.3139648, -11.8292685, -25.7926826, 10, -0.0417945
0.9501953, -0.1889648, -0.3364258, -12.0121956, -26.280489, 10.060976, -0.0448157
0.9580078, -0.1879883, -0.34375, -11.5853662, -26.9512196, 9.9390249, -0.043473
0.9672852, -0.1826172, -0.3583984, -11.219512, -27.0731716, 9.6951218, -0.0377661
0.9672852, -0.1806641, -0.3554688, -10.7926836, -27.0731716, 9.3902445, -0.0323949
0.9648438, -0.1806641, -0.3432617, -10.4268293, -27.0731716, 8.841464, -0.0350805
0.956543, -0.1743164, -0.3413086, -10.6097565, -27.1951218, 8.5365858, -0.0391089
0.9448242, -0.1738281, -0.3408203, -10.9146347, -27.6829281, 7.9878049, -0.0397803
0.9399414, -0.1811523, -0.3432617, -11.4024391, -28.1707325, 8.1097565, -0.0340734
0.9384766, -0.1992188, -0.340332, -12.1341467, -30, 8.1097565, -0.0283665
0.9414062, -0.2050781, -0.3447266, -12.4390249, -30.7317085, 8.4146347, -0.036759
0.9428711, -0.2080078, -0.3520508, -12.0121956, -31.2195129, 7.9268293, -0.0515297
0.9467773, -0.2021484, -0.3608398, -11.5853662, -31.280489, 7.7439027, -0.0696574
0.9472656, -0.2001953, -0.3686523, -10.6707315, -30.3048782, 7.6219516, -0.0795605
0.953125, -0.1875, -0.3681641, -10.6707315, -30.2439022, 7.5609756, -0.0814069
0.9521484, -0.1796875, -0.3662109, -10.4268293, -29.6341476, 7.3780489, -0.0847639
0.9594727, -0.168457, -0.3657227, -10.9756098, -29.7560978, 7.1951222, -0.0850996
0.9589844, -0.1640625, -0.3686523, -11.4634151, -29.7560978, 6.9512196, -0.0834211
0.9575195, -0.1616211, -0.3745117, -12.4390249, -29.5121956, 7.1341467, -0.0780499
0.9580078, -0.1625977, -0.3720703, -12.8048782, -29.3292694, 7.5609756, -0.0736858
0.9575195, -0.1557617, -0.3706055, -13.4756098, -29.0243912, 8.1097565, -0.064622
0.9501953, -0.1533203, -0.3754883, -13.9024391, -28.841465, 8.1097565, -0.0525368
0.9443359, -0.1420898, -0.3886719, -14.7560978, -28.7195129, 8.5975609, -0.0431373
0.9379883, -0.144043, -0.3999023, -15.4878054, -28.6585369, 8.5975609, -0.0273594
0.9423828, -0.1479492, -0.3945312, -16.8902435, -28.1097565, 8.780488, -0.008896
0.9399414, -0.1523438, -0.3745117, -17.6829281, -27.6219521, 8.9024391, 0.0092317
0.9370117, -0.1508789, -0.371582, -18.1097565, -26.8292694, 8.719512, 0.0276951
0.918457, -0.1499023, -0.3793945, -18.4756107, -26.6463413, 8.719512, 0.043473
0.909668, -0.1523438, -0.3852539, -19.0853672, -26.8902454, 9.2073174, 0.0495155
0.9091797, -0.1591797, -0.3959961, -20.9146347, -27.560976, 9.9390249, 0.0433051
0.9135742, -0.1591797, -0.3955078, -21.4024391, -28.1097565, 10.060976, 0.0337377
0.9243164, -0.1665039, -0.3969727, -22.1951218, -28.7195129, 10.2439022, 0.0169528
0.9277344, -0.1650391, -0.3935547, -22.560976, -28.3536587, 10, -0.0062104
0.9394531, -0.1630859, -0.4042969, -23.4756107, -27.6219521, 10.2439022, -0.0332341
0.9370117, -0.1567383, -0.4169922, -23.9024391, -27.560976, 10.3048782, -0.0485084
0.9370117, -0.1518555, -0.4248047, -25.1219521, -27.4390259, 10.9146347, -0.0533761
0.9375, -0.1411133, -0.440918, -25.7317085, -27.7439022, 11.219512, -0.0372625
0.9448242, -0.1445312, -0.4379883, -27.3170738, -28.3536587, 11.280488, -0.0159457
0.9477539, -0.1601562, -0.425293, -28.9634151, -29.0243912, 11.280488, 0.0065461
0.9467773, -0.1723633, -0.4067383, -29.6951218, -29.0853672, 11.280488, 0.0273594
0.9428711, -0.1962891, -0.3666992, -30.1829281, -28.4756107, 11.7682934, 0.0360876
0.9360352, -0.2036133, -0.3466797, -30.060976, -28.0487804, 11.6463413, 0.0360876
0.9213867, -0.2036133, -0.3237305, -29.0243912, -27.1951218, 12.0121956, 0.0374304
0.9135742, -0.1923828, -0.3198242, -28.4146347, -27.2560978, 12.3170738, 0.0360876
0.9072266, -0.175293, -0.3237305, -27.3780499, -27.9878063, 12.6219511, 0.0411231
0.918457, -0.1621094, -0.3374023, -27.4390259, -28.6585369, 12.5, 0.0548867
0.9277344, -0.1591797, -0.3378906, -27.3170738, -29.3902454, 12.4390249, 0.0676432
0.9501953, -0.1674805, -0.3330078, -27.7439022, -29.8170738, 12.3780489, 0.0736858
0.9545898, -0.1723633, -0.3237305, -28.0487804, -29.7560978, 11.5853662, 0.0715038
0.9482422, -0.1923828, -0.3129883, -27.4390259, -29.3292694, 11.5853662, 0.066804
0.9418945, -0.1977539, -0.3105469, -26.9512196, -29.3902454, 11.8292685, 0.0589151
0.9199219, -0.1923828, -0.3217773, -25.5487804, -29.9390259, 12.1951218, 0.051194
0.9086914, -0.1850586, -0.3369141, -25.1829281, -30.1829281, 12.7439032, 0.0428016
0.9072266, -0.1743164, -0.3598633, -24.5731716, -31.280489, 12.7439032, 0.0421302
0.9135742, -0.1757812, -0.3706055, -24.8780499, -31.7682934, 12.6219511, 0.040116
0.9257812, -0.1850586, -0.3730469, -24.9390259, -32.7439041, 11.7073174, 0.0357519
0.9399414, -0.2075195, -0.3862305, -24.8780499, -32.9268303, 11.219512, 0.026688
0.9433594, -0.2202148, -0.387207, -24.6951218, -32.8658562, 10.7926836, 0.0139315
0.9448242, -0.2294922, -0.3935547, -24.2682934, -32.6219521, 10.9756098, -0.0062104
0.9414062, -0.2319336, -0.3984375, -23.0487804, -32.5, 11.4634151, -0.0394446
0.9331055, -0.2202148, -0.4052734, -21.7073174, -32.1341476, 11.6463413, -0.0659648
0.9306641, -0.2128906, -0.4047852, -21.5243912, -32.0121956, 12.0731707, -0.0783856
0.9287109, -0.199707, -0.4047852, -21.2195129, -31.5243912, 11.6463413, -0.0881209
0.9296875, -0.1879883, -0.402832, -21.0975609, -31.6463413, 12.0121956, -0.094667
0.9331055, -0.1674805, -0.4057617, -21.5243912, -31.341465, 11.7073174, -0.0970169
0.9331055, -0.1611328, -0.4082031, -22.1341476, -31.341465, 12.0121956, -0.1018845
0.9296875, -0.1508789, -0.4238281, -23.5975609, -32.1951218, 12.3170738, -0.1012131
0.9296875, -0.1508789, -0.4262695, -24.0853672, -32.5, 12.3780489, -0.0948348
0.9321289, -0.1557617, -0.4277344, -25, -32.8658562, 13.1097565, -0.0810712
0.9345703, -0.1625977, -0.4238281, -25.1829281, -32.8658562, 13.1097565, -0.0595865
0.9423828, -0.1660156, -0.4208984, -25.3658543, -32.8048782, 13.1097565, -0.0287022
0.9433594, -0.1787109, -0.4111328, -26.0975609, -32.2560997, 13.1097565, -0.0082246
0.9370117, -0.1899414, -0.4067383, -26.1585369, -32.1951218, 13.0487804, 0.0038605
0.9277344, -0.2050781, -0.4038086, -26.5243912, -32.3170738, 13.1707315, 0.0132601
0.9248047, -0.2124023, -0.3969727, -26.4024391, -32.2560997, 13.2317076, 0.0058747
0.9248047, -0.2138672, -0.3876953, -25.1219521, -32.0731697, 13.3536587, -0.0028534
0.9213867, -0.2099609, -0.3837891, -24.8170738, -31.7073174, 13.3536587, -0.0149386
0.9135742, -0.2084961, -0.3813477, -24.0243912, -31.5243912, 13.1707315, -0.018967
0.9052734, -0.1938477, -0.3925781, -23.7195129, -31.0365868, 13.1097565, -0.0219883
0.9033203, -0.1860352, -0.3999023, -24.2682934, -31.280489, 13.2926836, -0.0223239
0.9047852, -0.1738281, -0.4169922, -24.3902435, -31.4634151, 13.6585369, -0.0142672
0.90625, -0.1704102, -0.4282227, -25, -31.7682934, 13.780488, -0.0025177
0.9194336, -0.175293, -0.440918, -25.1829281, -32.5609779, 13.6585369, 0.0062104
0.921875, -0.1845703, -0.4482422, -25.6707325, -32.5609779, 13.2926836, 0.0172885
0.9267578, -0.2138672, -0.4545898, -26.8292694, -32.7439041, 13.2317076, 0.0280308
0.9272461, -0.2226562, -0.456543, -26.7682934, -32.6219521, 13.3536587, 0.0280308
0.9194336, -0.2353516, -0.4482422, -26.2195129, -32.3170738, 13.5365858, 0.0226596
0.9116211, -0.2314453, -0.4428711, -25.4268303, -32.0121956, 13.9634151, 0.0149386
0.8950195, -0.2207031, -0.4331055, -24.1463413, -31.8292694, 14.2073174, 0.0005035
0.8950195, -0.2143555, -0.4379883, -23.6585369, -31.7073174, 14.3902445, -0.0135958
0.8950195, -0.2138672, -0.4418945, -23.8414631, -32.3170738, 14.0853662, -0.0151064
0.902832, -0.2172852, -0.4501953, -23.9024391, -32.8658562, 14.2073174, -0.0169528
0.9057617, -0.2128906, -0.4550781, -24.0243912, -33.3536606, 13.7195129, -0.0219883
0.9106445, -0.2202148, -0.4702148, -23.9024391, -33.5975609, 13.4146347, -0.0298772
0.9086914, -0.222168, -0.4692383, -23.5975609, -33.6585388, 13.5365858, -0.0394446
0.9204102, -0.2294922, -0.4658203, -23.0487804, -32.9878044, 13.6585369, -0.0542153
0.9174805, -0.2285156, -0.456543, -22.9878063, -32.7439041, 13.780488, -0.063447
0.9077148, -0.2294922, -0.4384766, -22.560976, -32.1951218, 13.5365858, -0.0720073
0.8979492, -0.2329102, -0.4301758, -22.560976, -31.7682934, 14.0853662, -0.0770428
0.875, -0.2280273, -0.4414062, -22.5, -31.8902454, 13.841464, -0.0800641
0.8671875, -0.2128906, -0.453125, -22.5, -32.6829262, 14.1463413, -0.0793927
0.8710938, -0.2094727, -0.4575195, -22.7439022, -33.9024391, 14.3902445, -0.0753643
0.8867188, -0.2036133, -0.456543, -22.6829281, -34.8170738, 14.2073174, -0.0706645
0.8955078, -0.2016602, -0.4521484, -22.560976, -36.0975609, 13.4756098, -0.0647898
0.9023438, -0.2080078, -0.434082, -22.8658543, -36.6463432, 12.6829271, -0.0663005
0.9033203, -0.2099609, -0.425293, -22.8658543, -36.7682953, 12.9878054, -0.0676432
0.8911133, -0.2045898, -0.418457, -24.0243912, -37.0731697, 14.4512196, -0.0673075
0.887207, -0.1982422, -0.4169922, -24.1463413, -37.4390259, 15.2439032, -0.0641184
0.8852539, -0.1933594, -0.4257812, -24.5121956, -39.0243912, 15.5487804, -0.0592508
0.887207, -0.1923828, -0.4282227, -24.6341476, -39.8780479, 15.3048782, -0.0565652
0.9086914, -0.1987305, -0.440918, -24.3902435, -41.4634171, 15.2439032, -0.0464942
0.9189453, -0.2060547, -0.4506836, -24.2682934, -41.8292694, 15.2439032, -0.0364233
0.9248047, -0.2143555, -0.4467773, -24.5731716, -42.5609779, 15.8536587, -0.0280308
0.9291992, -0.2192383, -0.4375, -24.7560978, -42.3780479, 15.8536587, -0.0105745
0.9262695, -0.2216797, -0.4311523, -24.3292694, -42.1341476, 16.4634151, 0.0018463
0.9145508, -0.2192383, -0.4331055, -23.4756107, -42.8048782, 16.6463413, 0.0104067
0.9042969, -0.2128906, -0.4404297, -23.4146347, -42.9878044, 17.2560978, 0.0139315
0.8950195, -0.2011719, -0.4711914, -23.7195129, -44.0243912, 18.1707325, 0.0146029
0.8945312, -0.2011719, -0.4824219, -23.6585369, -44.2073174, 18.5975609, 0.0139315
0.8999023, -0.199707, -0.5004883, -24.0243912, -45, 18.6585369, 0.0065461
0.9057617, -0.1923828, -0.5043945, -24.1463413, -45, 18.6585369, 0.0025177
0.9018555, -0.1933594, -0.5043945, -24.9390259, -45.2439041, 18.3536587, 0.0005035
0.8999023, -0.1967773, -0.5029297, -25.3048782, -45.4878044, 18.5975609, 0.0018463
0.8984375, -0.2045898, -0.4956055, -25.9756107, -45.9146347, 18.780489, -0.002182
0.8930664, -0.2133789, -0.4824219, -26.4634151, -46.2195129, 19.0243912, -0.0216526
0.8891602, -0.2158203, -0.4760742, -26.5243912, -46.4634171, 18.780489, -0.0515297
0.8793945, -0.2260742, -0.4677734, -26.5853672, -47.5, 19.0853672, -0.0770428
0.878418, -0.234375, -0.4658203, -26.3414631, -47.7439041, 19.1463413, -0.1010452
0.8759766, -0.2348633, -0.4648438, -26.0975609, -48.5975609, 19.8170738, -0.1143053
0.8798828, -0.2304688, -0.4663086, -25.5487804, -49.0853653, 20.060976, -0.1163195
0.8852539, -0.2158203, -0.472168, -24.8170738, -49.2682953, 20.3048782, -0.1196765
0.8964844, -0.203125, -0.4858398, -24.5121956, -49.8170738, 20.4878044, -0.1200122
0.902832, -0.1918945, -0.4853516, -24.9390259, -50.6097565, 20.5487804, -0.1156481
0.909668, -0.1860352, -0.4873047, -25.1829281, -51.0365868, 20.7926826, -0.1022202
0.909668, -0.1855469, -0.487793, -25.5487804, -51.4024391, 20.2439022, -0.0787213
0.9072266, -0.1889648, -0.5014648, -26.0365868, -51.8902435, 20.4268303, -0.0572366
0.9038086, -0.1933594, -0.4970703, -26.5853672, -52.8048782, 21.280489, -0.0357519
0.8964844, -0.1982422, -0.4990234, -27.3170738, -53.841465, 21.7682934, -0.0129244
0.8930664, -0.2041016, -0.496582, -27.0731716, -54.0853653, 22.0121956, 0.0092317
0.8911133, -0.2167969, -0.4824219, -26.8292694, -54.6951218, 21.5853672, 0.0206455
0.8916016, -0.2216797, -0.4790039, -26.5243912, -55.3048782, 21.5243912, 0.026688
0.890625, -0.2319336, -0.4824219, -25.7926826, -55.9146347, 21.1585369, 0.0085603
0.8818359, -0.2397461, -0.4907227, -25.3658543, -55.9146347, 21.1585369, -0.0246738
0.8764648, -0.2431641, -0.4931641, -24.1463413, -56.5243912, 21.1585369, -0.047837
0.878418, -0.2426758, -0.4863281, -23.9634151, -56.9512215, 21.4634151, -0.0565652
0.8823242, -0.2475586, -0.4760742, -22.1341476, -58.2317085, 21.4024391, -0.0629435
0.890625, -0.2407227, -0.4638672, -21.4024391, -58.9024391, 21.2195129, -0.0632792
0.8857422, -0.2382812, -0.4663086, -20, -58.841465, 20.5487804, -0.0555581
0.8642578, -0.2397461, -0.4858398, -19.5731716, -59.3902435, 20.7317085, -0.0377661
0.8564453, -0.2397461, -0.5078125, -19.6951218, -59.8780518, 20.9146347, -0.0209812
0.8496094, -0.2348633, -0.5307617, -19.8780499, -60.4878044, 21.5853672, -0.0109102
0.8525391, -0.2324219, -0.5429688, -20.1219521, -60.6707344, 21.4024391, 0.0065461
0.8603516, -0.2324219, -0.5512695, -19.7560978, -61.9512215, 20.9756107, 0.0265202
0.8745117, -0.2426758, -0.5419922, -19.5731716, -62.1341476, 20.4268303, 0.0622721
0.8813477, -0.2514648, -0.5292969, -19.6951218, -62.4390259, 19.4512196, 0.0965133
0.8847656, -0.2763672, -0.496582, -19.6951218, -61.8292694, 18.9634151, 0.1233692
0.8789062, -0.28125, -0.4833984, -19.2073174, -60.7317085, 18.6585369, 0.1346151
0.8520508, -0.2856445, -0.4960938, -18.8414631, -60.5487823, 18.4756107, 0.1326009
0.8413086, -0.2866211, -0.5239258, -17.8048782, -60.0609779, 19.2073174, 0.1166552
0.8188477, -0.2827148, -0.6015625, -17.0731716, -62.0121956, 20.3658543, 0.0985275
0.8183594, -0.2915039, -0.6445312, -16.9512196, -63.4146347, 20.7926826, 0.0800641
0.8378906, -0.2998047, -0.6865234, -16.4024391, -66.3414612, 21.7682934, 0.0589151
0.8510742, -0.3066406, -0.6777344, -15.7317076, -67.3780518, 21.7073174, 0.0414588
0.8710938, -0.3061523, -0.6240234, -14.6951227, -66.9512177, 21.8902435, 0.0253452
0.8686523, -0.3017578, -0.5546875, -14.1463413, -66.2195129, 21.5243912, 0.0092317
0.8574219, -0.2983398, -0.5273438, -13.2317076, -64.0243912, 21.8292694, -0.0031891
0.815918, -0.2827148, -0.5078125, -13.1097565, -63.2317085, 21.8292694, -0.0142672
0.7949219, -0.2744141, -0.5214844, -12.9268293, -63.1707344, 23.0487804, -0.0209812
0.7592773, -0.2490234, -0.5917969, -12.4390249, -63.9024391, 24.0853672, -0.0253452
0.7475586, -0.222168, -0.6469727, -11.341464, -66.7682953, 26.8902454, -0.0285344
0.7797852, -0.2006836, -0.7333984, -11.280488, -70.7926865, 29.5731716, -0.0330663
0.815918, -0.2084961, -0.7397461, -12.1341467, -72.5609741, 29.8170738, -0.036759
0.8764648, -0.2358398, -0.730957, -13.4146347, -72.5609741, 28.5365868, -0.0411231
0.8886719, -0.253418, -0.7231445, -14.2073174, -71.6463394, 28.1707325, -0.047837
0.8676758, -0.2983398, -0.7236328, -15.6707325, -69.0243912, 27.9878063, -0.0501869
0.8212891, -0.3193359, -0.730957, -16.5243912, -68.1097565, 28.7195129, -0.0649577
0.800293, -0.3188477, -0.737793, -17.3780499, -67.9268341, 30.9756107, -0.0874495
0.7768555, -0.315918, -0.7475586, -17.7439022, -68.3536606, 32.2560997, -0.1089342
0.7797852, -0.3027344, -0.7441406, -17.0121956, -70.18293, 34.0853653, -0.1240406
0.8037109, -0.2866211, -0.7431641, -16.0975609, -70.8536606, 34.8170738, -0.1337758
0.8193359, -0.2807617, -0.7490234, -15.6707325, -70.9756088, 35, -0.1305867
0.8364258, -0.2695312, -0.7773438, -16.5243912, -71.2195129, 35.6097565, -0.1096056
0.847168, -0.2631836, -0.7929688, -17.2560978, -71.4634171, 36.0975609, -0.0706645
0.8540039, -0.262207, -0.8125, -19.5731716, -71.9512177, 37.8658562, -0.0256809
0.8540039, -0.2636719, -0.8110352, -20.6707325, -71.8292694, 38.7195129, 0.012253
0.8544922, -0.2695312, -0.7973633, -22.8048782, -71.4024429, 40.4268303, 0.0419623
0.8354492, -0.2729492, -0.7822266, -23.1707325, -71.2804871, 41.341465, 0.06009
0.8242188, -0.2685547, -0.7749023, -24.2073174, -71.4024429, 42.3780479, 0.0624399
0.8066406, -0.2739258, -0.7607422, -24.3902435, -71.9512177, 42.8658562, 0.0602579
0.8007812, -0.2768555, -0.7460938, -25.4878063, -73.4146347, 43.7804871, 0.0488441
0.8051758, -0.2836914, -0.7207031, -26.1585369, -74.7560959, 44.1463432, 0.0461585
0.8041992, -0.2929688, -0.7026367, -25.9146347, -75.2439041, 44.3902435, 0.0441444
0.8120117, -0.3041992, -0.6777344, -25.3658543, -76.0975647, 44.5731735, 0.036759
0.8125, -0.3164062, -0.6679688, -25.3048782, -76.5853653, 44.8170738, 0.0240024
0.8017578, -0.3222656, -0.6987305, -24.8170738, -77.2560959, 45.3048782, 0.0099031
0.7963867, -0.3222656, -0.7236328, -24.7560978, -78.0487823, 45.9146347, -0.0035248
0.7963867, -0.3417969, -0.7573242, -24.6951218, -80.6097565, 47.5609779, -0.0273594
0.8193359, -0.3544922, -0.7587891, -24.0853672, -81.5243912, 47.9268303, -0.0473335
0.8242188, -0.3540039, -0.7504883, -22.9268303, -82.68293, 47.5, -0.0552224
0.8330078, -0.3632812, -0.7280273, -22.3170738, -82.5609741, 47.0121956, -0.0609293
0.8237305, -0.3681641, -0.7109375, -21.280489, -82.0731735, 46.2804871, -0.0673075
0.8051758, -0.3701172, -0.6899414, -20.2439022, -82.0121994, 46.2804871, -0.0716716
0.7963867, -0.3725586, -0.6826172, -19.6341476, -82.8658524, 46.7073174, -0.0726787
0.784668, -0.387207, -0.6801758, -18.2926826, -84.4512253, 46.7682953, -0.0817426
0.7817383, -0.3896484, -0.6933594, -17.0121956, -85.0609741, 46.7682953, -0.0928206
0.7705078, -0.4033203, -0.7490234, -15, -86.646347, 47.3780518, -0.1022202
0.7617188, -0.4023438, -0.8046875, -15.060976, -87.7439041, 48.1097565, -0.1065843
0.7607422, -0.418457, -0.8110352, -16.0975609, -90.7926865, 49.5731735, -0.1062486
0.7749023, -0.3930664, -0.7822266, -14.7560978, -90.7317123, 50.2439041, -0.0971847
0.7749023, -0.3691406, -0.7890625, -10.1829271, -88.3536606, 49.2073174, -0.0807355
0.7661133, -0.3212891, -0.8193359, -7.9878049, -87.6219559, 48.7804871, -0.0619364
0.7631836, -0.3051758, -0.8305664, -7.3780489, -87.9268341, 47.9878044, -0.0431373
0.7768555, -0.2919922, -0.828125, -10.1829271, -90.2439041, 47.3170738, -0.0246738
0.78125, -0.3041992, -0.8149414, -11.8292685, -91.2804871, 47.0731735, -0.005539
0.7885742, -0.3344727, -0.7958984, -13.5975609, -92.0731735, 46.5243912, 0.0109102
0.7822266, -0.3486328, -0.7939453, -13.9024391, -91.8292694, 46.2195129, 0.0261845
0.7636719, -0.3803711, -0.7900391, -13.7195129, -92.3170776, 46.4634171, 0.0421302
0.7578125, -0.3994141, -0.7802734, -13.0487804, -92.8658524, 46.4634171, 0.0501869
0.7353516, -0.4189453, -0.7539062, -11.7073174, -94.2073212, 46.8292694, 0.0515297
0.7290039, -0.421875, -0.7299805, -10.3658543, -94.6341476, 46.9512215, 0.0428016
0.7197266, -0.4145508, -0.7363281, -7.6219516, -96.4024429, 47.1951218, 0.0263523
0.7104492, -0.4101562, -0.7700195, -6.280488, -97.1341476, 47.5, 0.0130922
0.7104492, -0.4130859, -0.7954102, -3.5975611, -99.6951218, 47.9878044, 0.0038605
0.7246094, -0.4321289, -0.8349609, -1.1585366, -102.3780518, 48.4756126, -0.0082246
0.7333984, -0.4355469, -0.8496094, 0, -103.3536606, 48.5975609, -0.0193027
0.7451172, -0.4233398, -0.8554688, 2.6829269, -103.6585388, 48.9634171, -0.0270237
0.7539062, -0.4111328, -0.8496094, 3.7804878, -103.6585388, 49.1463432, -0.0404517
0.762207, -0.3818359, -0.8442383, 5.3658538, -102.9878082, 49.1463432, -0.0525368
0.7573242, -0.3686523, -0.8466797, 5.3658538, -102.9878082, 49.0243912, -0.0605936
0.7539062, -0.3564453, -0.8544922, 4.2682929, -104.4512253, 49.5121956, -0.0699931
0.7529297, -0.3608398, -0.8505859, 4.0243902, -105.18293, 49.6341476, -0.0703288
0.7543945, -0.3686523, -0.8466797, 2.6219513, -106.4024429, 48.6585388, -0.0720073
0.7602539, -0.3847656, -0.831543, 2.5609756, -107.0731735, 48.4146347, -0.068986
0.7578125, -0.3964844, -0.8242188, 2.9878049, -107.8658524, 47.9878044, -0.0599222
0.7392578, -0.4077148, -0.8476562, 3.7804878, -108.3536606, 48.9024391, -0.054551
0.7275391, -0.4111328, -0.8754883, 3.9024391, -108.6585388, 49.5731735, -0.0458228
0.7124023, -0.3979492, -0.9448242, 3.8414636, -110.9146347, 51.7073174, -0.0394446
0.7148438, -0.3945312, -0.9663086, 3.9634147, -112.0121994, 52.4390259, -0.0471656
0.7329102, -0.3935547, -0.9863281, 3.1097562, -113.5365906, 52.8048782, -0.0515297
0.746582, -0.3984375, -0.9790039, 2.9268293, -113.9634171, 52.5609779, -0.0574044
0.7734375, -0.3925781, -0.9379883, 2.5, -112.5, 51.5853653, -0.0595865
0.7612305, -0.3955078, -0.8881836, 2.195122, -111.1585388, 50.9146347, -0.0619364
0.7485352, -0.3974609, -0.8745117, 1.5243902, -109.4512253, 50.4268303, -0.0605936
0.7075195, -0.3935547, -0.8745117, 1.2195122, -109.2682953, 50.6707344, -0.0639506
0.6831055, -0.3891602, -0.8964844, 0.1829268, -110.4878082, 52.2560997, -0.0639506
0.65625, -0.3886719, -0.9423828, 0.1829268, -113.4146347, 54.1463432, -0.0602579
0.6538086, -0.3959961, -0.9589844, -0.2439024, -115.1219559, 54.7560997, -0.0540475
0.6904297, -0.4091797, -0.9589844, -0.2439024, -116.4024429, 54.5121956, -0.0350805
0.7094727, -0.4243164, -0.9389648, -0.5487805, -116.646347, 53.9024391, -0.014435
0.7436523, -0.4589844, -0.8769531, -0.7926829, -115.7926865, 52.7439041, 0.008896
0.7426758, -0.4702148, -0.8515625, -0.4878049, -114.8780518, 52.1341476, 0.0263523
0.7246094, -0.4912109, -0.8198242, 0.5487805, -113.3536606, 52.3780518, 0.0317235
0.6616211, -0.4736328, -0.847168, 0.7926829, -112.8048782, 52.9878044, 0.0290379
0.6303711, -0.4541016, -0.8745117, 1.8902439, -113.2926865, 55.3658562, 0.0263523
0.5898438, -0.4023438, -0.9331055, 2.4390244, -114.5121994, 56.2804909, 0.0196384
0.5820312, -0.3745117, -0.9521484, 1.9512196, -117.0121994, 56.9512215, 0.0186313
0.590332, -0.3413086, -0.9682617, 0.1219512, -119.146347, 56.7682953, 0.0208133
0.6025391, -0.3344727, -0.9741211, -1.4634147, -119.3292694, 56.7073174, 0.0273594
0.6254883, -0.347168, -0.9833984, -5.3048782, -119.3902435, 57.2560997, 0.0347448
0.6323242, -0.3632812, -0.9897461, -7.5, -119.4512253, 57.5609779, 0.036759
0.6401367, -0.3979492, -0.9980469, -9.8780489, -120, 59.3292694, 0.0231632
0.6362305, -0.4179688, -1.003418, -10.7317076, -119.9390259, 60.3658562, 0.0072175
0.6459961, -0.440918, -0.9946289, -12.0731707, -118.8414688, 60.6097565, -0.0062104
0.6245117, -0.4541016, -0.9658203, -12.2560978, -117.5609818, 60.5487823, -0.0146029
0.6103516, -0.4458008, -0.9492188, -12.1951218, -116.7073212, 60.8536606, -0.0203098
0.5839844, -0.4355469, -0.9365234, -12.1341467, -116.4024429, 60.7317085, -0.0290379
0.5693359, -0.4335938, -0.9394531, -12.0731707, -116.8902435, 60.3658562, -0.0303807
0.5410156, -0.4418945, -0.9741211, -12.0121956, -118.9634171, 60.7317085, -0.0310521
0.53125, -0.4521484, -1.003418, -11.8902445, -120.1219559, 61.0975609, -0.0354162
0.5429688, -0.4829102, -1.0581055, -11.7682934, -121.9512253, 61.1585388, -0.0340734
0.5532227, -0.4916992, -1.0766602, -11.4634151, -122.4390259, 60.9146347, -0.0250095
0.5742188, -0.5136719, -1.0668945, -10.9756098, -122.9268341, 61.1585388, -0.0119173
0.5874023, -0.5161133, -1.0463867, -10.4878054, -122.3780518, 61.0365868, 0.0011749
0.5957031, -0.5004883, -0.9916992, -9.1463413, -120, 60.6707344, 0.0105745
0.5776367, -0.4677734, -0.9663086, -8.5365858, -118.7804871, 60.3048782, 0.0142672
0.5595703, -0.4545898, -0.9638672, -7.8658538, -118.1707382, 59.8170738, 0.0223239
0.5336914, -0.4550781, -0.9736328, -7.7439027, -118.5975647, 59.6341476, 0.0203098
0.5170898, -0.465332, -0.972168, -7.9268293, -120.6707382, 59.9390259, 0.0142672
0.5214844, -0.4897461, -0.9716797, -7.2560978, -122.5, 59.5731735, 0.0112459
0.5180664, -0.5097656, -0.9775391, -6.6463418, -122.6219559, 59.2073174, 0.0124208
0.5102539, -0.5288086, -0.9848633, -3.7804878, -123.5975647, 60, 0.0196384
0.5039062, -0.5322266, -0.9892578, -1.9512196, -123.4146347, 60.5487823, 0.0273594
0.4912109, -0.4995117, -0.9936523, 1.5853659, -122.1951218, 61.5853691, 0.0260166
0.4873047, -0.4692383, -0.9970703, 2.5609756, -121.8292694, 61.7073174, 0.0213169
0.4741211, -0.421875, -0.9921875, 3.0487804, -120.9756088, 61.2195129, 0.0199741
0.46875, -0.4008789, -1.0019531, 2.3170731, -121.7073212, 60.9146347, 0.0132601
0.4707031, -0.4086914, -1.0024414, 0.0609756, -123.7195129, 61.2195129, 0.0058747
0.4794922, -0.4423828, -0.9951172, -0.9756098, -125.2439041, 61.7682953, -0.0005035
0.496582, -0.4677734, -0.9775391, -2.6829269, -126.8292694, 62.8658562, -0.0179599
0.5078125, -0.5083008, -0.9384766, -1.5243902, -126.8902435, 63.4146347, -0.0330663
0.5009766, -0.5224609, -0.9296875, -0.5487805, -126.2804871, 63.5365868, -0.0438087
0.4633789, -0.5151367, -0.9472656, 1.5243902, -123.9024429, 64.0853653, -0.0538796
0.4404297, -0.5024414, -0.9667969, 2.5, -123.1097565, 64.2073212, -0.061265
0.3950195, -0.4682617, -0.9868164, 2.0121951, -123.6585388, 64.6341476, -0.0649577
0.3876953, -0.4462891, -0.9863281, 1.1585366, -124.4512253, 64.4512177, -0.0673075
0.3979492, -0.4047852, -0.9765625, -0.6097561, -127.2561035, 62.8658562, -0.0693217
0.4228516, -0.3999023, -0.980957, -1.6463414, -128.8414612, 61.7073174, -0.0713359
0.4335938, -0.4204102, -0.9863281, -4.0243902, -131.5243988, 61.5243912, -0.0666361
0.4580078, -0.4775391, -0.9995117, -4.5731707, -132.6829224, 62.1341476, -0.0636149
0.46875, -0.5083008, -1.0058594, -4.390244, -133.1097565, 64.2073212, -0.0676432
0.4643555, -0.5283203, -1.0205078, -2.7439024, -129.5731812, 65.5487823, -0.0740215
0.4477539, -0.5234375, -1.0258789, -1.402439, -127.3780518, 65.9756088, -0.0827497
0.3979492, -0.4868164, -1.0258789, 0.7926829, -124.0243912, 66.3414612, -0.0877852
0.3735352, -0.4677734, -1.0219727, 1.5853659, -123.2317123, 65.8536606, -0.0961776
0.3447266, -0.4404297, -1.0200195, 0.9756098, -125.0609818, 64.5121994, -0.1028916
0.3422852, -0.4433594, -1.0258789, 0, -127.0731735, 64.2073212, -0.0997024
0.340332, -0.4667969, -1.0473633, -2.0731707, -131.646347, 63.9024391, -0.0941634
0.3598633, -0.4916992, -1.0566406, -2.804878, -132.8048859, 64.6951218, -0.0793927
0.3652344, -0.4956055, -1.0541992, -3.8414636, -132.3780518, 66.0365906, -0.061265
0.3642578, -0.4775391, -1.0498047, -4.2073174, -131.2195129, 66.7682953, -0.0379339
0.3569336, -0.4672852, -1.0483398, -5.1219511, -128.4146423, 67.0731735, -0.0129244
0.3339844, -0.4560547, -1.0336914, -5.7317076, -127.68293, 67.5609741, 0.0099031
0.3227539, -0.4624023, -1.0200195, -6.3414636, -127.9878082, 68.1097565, 0.0166171
0.3261719, -0.4716797, -0.9902344, -7.3780489, -129.8780518, 68.5365906, 0.0186313
0.3286133, -0.4760742, -0.9760742, -7.3170733, -130.7926788, 67.9878082, 0.0223239
0.3188477, -0.4985352, -0.9736328, -7.1341467, -132.0121918, 67.9268341, 0.0243381
0.2915039, -0.5200195, -1.0131836, -6.8292685, -131.8902435, 68.0487823, 0.0229953
0.2749023, -0.5292969, -1.0327148, -6.0975609, -131.646347, 70, 0.0203098
0.2744141, -0.5395508, -1.0541992, -5.4268293, -131.9512177, 70.7317123, 0.0048676
0.2792969, -0.5390625, -1.0498047, -4.0243902, -132.86586, 71.4024429, -0.0075532
0.2954102, -0.5175781, -1.0415039, -3.4756098, -132.86586, 70.8536606, -0.0142672
0.2875977, -0.5019531, -1.0390625, -2.8658538, -132.2561035, 69.5731735, -0.0135958
0.2607422, -0.4741211, -1.0678711, -4.6341462, -131.8902435, 69.6341476, -0.0162814
0.2495117, -0.4697266, -1.0810547, -6.0365853, -132.3170776, 70.6097565, -0.0083925
0.2402344, -0.4521484, -1.0766602, -9.6951218, -131.5243988, 72.2560959, -0.0041962
0.2363281, -0.4414062, -1.0844727, -11.0365858, -131.7682953, 72.0121994, -0.0070497
0.2236328, -0.4711914, -1.0776367, -11.9512196, -134.6951294, 72.3780518, -0.008896
0.2563477, -0.5546875, -1.0078125, -11.4024391, -136.4024353, 73.1097565, -0.0117494
0.2797852, -0.5854492, -0.9741211, -8.9634151, -136.5853729, 74.6341476, -0.01561
0.2739258, -0.5883789, -0.9345703, -6.8292685, -134.8780518, 74.9390259, -0.0224918
0.2509766, -0.5766602, -0.9487305, -3.0487804, -130.7317047, 74.5121994, -0.0391089
0.1826172, -0.5522461, -0.9980469, -2.3170731, -129.6341553, 74.2073212, -0.0619364
0.1640625, -0.5410156, -1.0307617, -1.8292683, -131.2195129, 74.3292694, -0.0678111
0.1357422, -0.5117188, -1.0947266, -3.6585367, -134.6341553, 74.5121994, -0.0639506
0.1469727, -0.4990234, -1.1176758, -4.6951222, -136.4634247, 74.3902435, -0.0580758
0.1860352, -0.4951172, -1.1289062, -6.5243902, -138.2317047, 73.4756088, -0.0461585
0.2119141, -0.5014648, -1.1088867, -6.8292685, -138.5365906, 73.2317123, -0.0337377
0.2661133, -0.5166016, -1.0532227, -6.4024391, -136.7682953, 73.1097565, -0.0203098
0.2626953, -0.5136719, -1.0219727, -6.2195125, -134.7561035, 73.0487823, -0.0109102
0.2387695, -0.5136719, -1.0117188, -7.2560978, -129.8780518, 72.8048782, -0.0015106
0.1723633, -0.515625, -1.0068359, -7.7439027, -128.5975647, 72.9878082, 0.0104067
0.1391602, -0.5112305, -1.0058594, -8.9024391, -129.2073212, 74.3292694, 0.0206455
0.0913086, -0.5063477, -1.0053711, -9.3902445, -130.5487823, 74.2073212, 0.0313878
0.0776367, -0.4995117, -1.003418, -9.8780489, -133.4146423, 74.5731735, 0.0475013
0.078125, -0.4819336, -1.0043945, -10.2439022, -135.6097565, 73.9634171, 0.0629435
0.0800781, -0.4726562, -1.0117188, -10.8536587, -136.4024353, 73.5365906, 0.0629435
0.0947266, -0.4697266, -1.0302734, -12.7439032, -137.9878082, 73.2926865, 0.0599222
0.1044922, -0.4741211, -1.0415039, -13.4756098, -138.5365906, 73.5365906, 0.0500191
0.125, -0.4902344, -1.0532227, -14.5121956, -138.6585388, 74.2682953, 0.0404517
0.1323242, -0.5170898, -1.0415039, -14.5121956, -138.0487823, 74.6341476, 0.026688
0.1333008, -0.5332031, -1.019043, -13.4146347, -136.4634247, 74.7560959, 0.0105745
0.1303711, -0.5576172, -0.9526367, -12.5, -135.7926788, 74.8170776, -0.0041962
0.1123047, -0.5625, -0.9228516, -9.4512196, -133.7195129, 74.5121994, -0.0162814
0.0600586, -0.5493164, -0.9125977, -8.0487804, -132.3780518, 74.5121994, -0.0229953
0.0239258, -0.5375977, -0.9301758, -5.2439027, -132.1951294, 74.3292694, -0.0276951
-0.0224609, -0.5200195, -0.9702148, -4.2073174, -134.2073212, 74.3902435, -0.0407874
-0.0297852, -0.512207, -1.0009766, -3.7195122, -135.7317047, 74.5121994, -0.0525368
-0.0249023, -0.4848633, -1.0610352, -5.609756, -138.1097565, 74.2682953, -0.0605936
-0.0092773, -0.4692383, -1.0898438, -6.890244, -138.5975647, 74.2682953, -0.061265
0.0405273, -0.449707, -1.1069336, -9.9390249, -139.4512177, 73.9634171, -0.0652934
0.1054688, -0.4707031, -1.0644531, -11.280488, -139.9390259, 73.7804871, -0.0659648
0.1308594, -0.4848633, -1.0307617, -12.8048782, -138.5365906, 72.7439041, -0.0731823
0.1318359, -0.5205078, -0.9702148, -12.8048782, -136.7682953, 72.2560959, -0.0716716
0.1137695, -0.5351562, -0.9624023, -12.0731707, -133.2317047, 72.4390259, -0.0773785
0.0307617, -0.5507812, -1.0043945, -10.4268293, -130.5487823, 73.6585388, -0.0941634
-0.0107422, -0.5498047, -1.0371094, -9.8780489, -130.6707306, 74.6341476, -0.0997024
-0.0625, -0.5200195, -1.074707, -8.780488, -132.1341553, 75.4268341, -0.1032273
-0.0600586, -0.4941406, -1.0615234, -8.780488, -133.2317047, 74.5121994, -0.1062486
-0.0317383, -0.4477539, -0.9848633, -10.3048782, -134.7561035, 70.8536606, -0.1044022
-0.0180664, -0.4321289, -0.9458008, -12.1951218, -134.9390259, 69.2073212, -0.1025559
-0.0239258, -0.4106445, -0.8969727, -16.6463413, -134.2682953, 67.0121994, -0.0904707
-0.0664062, -0.4208984, -0.9174805, -18.9634151, -134.2073212, 66.9512177, -0.0793927
-0.0888672, -0.4414062, -0.9477539, -21.5243912, -135.4268341, 69.3902435, -0.0726787
-0.1142578, -0.4907227, -1.0263672, -21.6463413, -136.3414612, 70.8536606, -0.0595865
-0.0966797, -0.5166016, -1.0478516, -19.5731716, -138.5365906, 72.8658524, -0.0458228
-0.0380859, -0.5620117, -1.0351562, -15.8536587, -139.9390259, 73.1097565, -0.0285344
-0.0048828, -0.5751953, -1.0112305, -14.1463413, -139.6341553, 72.5, -0.012253
0.003418, -0.5390625, -0.9799805, -12.7439032, -134.8170776, 70.6707306, 0.0038605
-0.0131836, -0.5048828, -0.9814453, -13.2926836, -132.8048859, 70, 0.0095674
-0.0771484, -0.4394531, -0.9936523, -16.280489, -131.8292694, 68.2926865, 0.0169528
-0.1030273, -0.4145508, -0.987793, -17.9878044, -132.5609741, 67.8048782, 0.0218204
-0.1357422, -0.390625, -0.9619141, -21.280489, -135.3048859, 67.4390259, 0.030045
-0.144043, -0.4111328, -0.9501953, -22.3780499, -136.0365906, 67.0731735, 0.0468299
-0.1479492, -0.4355469, -0.9482422, -24.0853672, -136.4634247, 68.0487823, 0.0629435
-0.1328125, -0.4873047, -0.9609375, -24.1463413, -136.5853729, 69.0243912, 0.0760357
-0.125, -0.4995117, -0.956543, -22.6829281, -135.9756165, 70.6707306, 0.0894636
-0.097168, -0.4980469, -0.9272461, -21.0975609, -135.4268341, 69.6341476, 0.0944991
-0.09375, -0.4975586, -0.9033203, -20.3658543, -135.1829224, 68.4756088, 0.0904707
-0.1030273, -0.5083008, -0.8603516, -19.5731716, -134.146347, 65.9756088, 0.0847639
-0.1245117, -0.5112305, -0.8544922, -19.1463413, -133.5975647, 65.4878082, 0.0636149
-0.1987305, -0.4970703, -0.8588867, -18.0487804, -132.1951294, 66.3414612, 0.0522011
-0.2324219, -0.4663086, -0.8642578, -17.1341476, -131.646347, 67.2560959, 0.0381018
-0.2807617, -0.3764648, -0.8789062, -16.5243912, -131.8902435, 67.1951218, 0.0250095
-0.2797852, -0.3139648, -0.8891602, -16.7682934, -133.0487823, 66.0975647, 0.0172885
-0.2651367, -0.3129883, -0.8989258, -19.8170738, -136.5853729, 64.3902435, 0.0105745
-0.2045898, -0.3896484, -0.9296875, -21.7073174, -138.3536682, 64.0853653, 0.0052033
-0.1738281, -0.4482422, -0.9526367, -23.9024391, -140.4268341, 65.6707306, 0.0005035
-0.1259766, -0.5327148, -0.9570312, -21.280489, -138.6585388, 68.3536606, -0.0125887
-0.1113281, -0.5488281, -0.9428711, -18.9634151, -135.9756165, 68.7804871, -0.0404517
-0.1293945, -0.4970703, -0.9038086, -14.3902445, -130.1829224, 67.4390259, -0.0572366
-0.1606445, -0.4399414, -0.8974609, -13.7195129, -127.7439041, 65.7926865, -0.0649577
-0.253418, -0.3452148, -0.8984375, -15.7317076, -127.0121994, 62.9878082, -0.0673075
-0.2773438, -0.3242188, -0.8833008, -18.4146347, -128.7804871, 62.5609779, -0.064622
-0.2851562, -0.3339844, -0.8476562, -22.3170738, -132.5609741, 62.0121956, -0.0584115
-0.2822266, -0.3847656, -0.8266602, -24.2073174, -133.6585388, 62.0121956, -0.0572366
-0.2758789, -0.4057617, -0.8217773, -25.2439022, -133.2926788, 63.0487823, -0.0569009
-0.2734375, -0.4233398, -0.8505859, -24.6341476, -132.1951294, 63.7804909, -0.0525368
-0.2832031, -0.4160156, -0.8857422, -23.2317085, -131.0365906, 65.2439041, -0.0485084
-0.2841797, -0.3964844, -0.949707, -22.7439022, -131.4634247, 65.9756088, -0.0464942
-0.2646484, -0.3969727, -0.9575195, -22.9268303, -131.5853729, 65.4878082, -0.0350805
-0.2172852, -0.40625, -0.9179688, -23.3536587, -131.8902435, 63.7804909, -0.0216526
-0.1967773, -0.4101562, -0.8925781, -23.3536587, -130.7317047, 62.7439041, -0.0112459
-0.2128906, -0.3945312, -0.8891602, -24.6951218, -126.646347, 62.0121956, -0.0082246
-0.2407227, -0.3837891, -0.9082031, -25.1829281, -124.8780518, 62.4390259, -0.005539
-0.2875977, -0.3632812, -0.9389648, -26.5853672, -123.4756088, 63.7195129, -0.002182
-0.2949219, -0.3608398, -0.9511719, -27.1951218, -123.9634171, 63.9634171, -0.0018463
-0.2773438, -0.3725586, -0.9467773, -29.1463413, -124.5731735, 63.2926826, -0.0063783
-0.2509766, -0.4091797, -0.9360352, -30.1219521, -124.6951218, 62.6219521, -0.0109102
-0.2392578, -0.4326172, -0.9453125, -31.4024391, -123.4756088, 62.3170738, -0.0149386
-0.237793, -0.4599609, -0.9472656, -31.8902454, -121.5243912, 63.4756126, -0.0176242
-0.2363281, -0.4594727, -0.9345703, -30.8536587, -120.36586, 63.2926826, -0.0196384
-0.2314453, -0.4355469, -0.8618164, -30.5487804, -118.7804871, 61.1585388, -0.0206455
-0.2392578, -0.4150391, -0.8129883, -31.1585369, -118.1707382, 59.2682953, -0.0172885
-0.2924805, -0.3842773, -0.7441406, -33.3536606, -117.0121994, 56.4634171, -0.0162814
-0.3334961, -0.3774414, -0.7421875, -34.4512215, -117.68293, 56.1585388, -0.0219883
-0.3925781, -0.3964844, -0.7709961, -34.7560997, -120.18293, 58.4146347, -0.0313878
-0.4033203, -0.434082, -0.7739258, -33.841465, -121.646347, 59.6951218, -0.0495155
-0.3896484, -0.4350586, -0.765625, -29.3902454, -122.68293, 60.7926826, -0.0605936
-0.3745117, -0.4067383, -0.7856445, -27.2560978, -122.5609818, 60.1219521, -0.063447
-0.3632812, -0.3969727, -0.7963867, -25.7317085, -121.5243912, 58.1097565, -0.0693217
-0.3500977, -0.3540039, -0.8393555, -27.8658543, -120.2439041, 56.2195129, -0.0720073
-0.3398438, -0.3530273, -0.8525391, -30.1219521, -120.4268341, 55.8536606, -0.0694896
-0.3188477, -0.3569336, -0.8793945, -33.2317085, -121.5243912, 54.7560997, -0.0693217
-0.3115234, -0.3686523, -0.9145508, -33.9634171, -122.1341476, 54.8780518, -0.0741894
-0.2910156, -0.3999023, -0.9614258, -34.6341476, -121.7682953, 56.2195129, -0.0814069
-0.277832, -0.4213867, -0.949707, -34.0853653, -120.7317123, 57.3780518, -0.0720073
-0.2446289, -0.4174805, -0.8808594, -32.4390259, -116.7073212, 57.68293, -0.0558938
-0.2666016, -0.3505859, -0.8266602, -32.1341476, -113.9634171, 56.7682953, -0.047837
-0.3027344, -0.3188477, -0.8188477, -34.5731697, -109.146347, 54.4512215, -0.0475013
-0.3691406, -0.2822266, -0.8178711, -36.1585388, -108.6585388, 54.2073174, -0.054551
-0.3955078, -0.2890625, -0.8295898, -40.3658562, -109.6341476, 53.9634171, -0.0656291
-0.4150391, -0.3251953, -0.8662109, -43.5365868, -111.5243912, 55.18293, -0.0840925
-0.409668, -0.3500977, -0.8925781, -44.1463432, -111.646347, 56.2195129, -0.1072557
-0.3720703, -0.3950195, -0.9174805, -43.7195129, -110.9756088, 57.1341476, -0.1149767
-0.3383789, -0.4072266, -0.9042969, -43.2317085, -110.1219559, 56.9512215, -0.1065843
-0.2832031, -0.4013672, -0.8530273, -42.5, -107.0121994, 54.5731735, -0.090135
-0.2792969, -0.3842773, -0.8222656, -43.2926826, -104.8780518, 52.7439041, -0.0619364
-0.3208008, -0.3408203, -0.809082, -46.9512215, -100.7926865, 50, -0.0364233
-0.3886719, -0.3183594, -0.8120117, -48.841465, -99.7561035, 49.5121956, -0.0182956
-0.4179688, -0.3149414, -0.8051758, -52.1341476, -98.8414688, 49.2073174, 0.0078889
-0.4453125, -0.3081055, -0.7426758, -52.6829262, -98.8414688, 49.5121956, 0.0290379
-0.4516602, -0.2929688, -0.7104492, -52.8658562, -99.0853653, 48.3536606, 0.0574044
-0.4692383, -0.2890625, -0.6923828, -53.9024391, -100.3658524, 46.9512215, 0.0884565
-0.4736328, -0.3027344, -0.6977539, -54.2073174, -101.646347, 47.1951218, 0.1151446
-0.4697266, -0.3613281, -0.6831055, -54.6951218, -103.5365906, 49.2073174, 0.1277333
-0.4614258, -0.3808594, -0.6699219, -53.841465, -103.7804871, 49.3292694, 0.1287404
-0.4624023, -0.3730469, -0.6333008, -51.0975609, -101.646347, 48.4146347, 0.1186694
-0.4755859, -0.3515625, -0.6342773, -49.8780518, -100.6707306, 47.3170738, 0.1045701
-0.5258789, -0.2983398, -0.6640625, -49.2682953, -99.9390259, 46.4024391, 0.0850996
-0.5444336, -0.2802734, -0.706543, -49.5121956, -101.0365906, 46.8292694, 0.0663005
-0.5273438, -0.2822266, -0.7246094, -48.1707344, -104.6951218, 48.4756126, 0.0555581
-0.4829102, -0.2944336, -0.7441406, -47.4390259, -105.9146347, 48.7804871, 0.0441444
-0.4575195, -0.293457, -0.7446289, -46.4634171, -103.7195129, 48.4756126, 0.033402
-0.4296875, -0.2910156, -0.7207031, -46.5853653, -99.7561035, 47.1341476, 0.030045
-0.4204102, -0.2905273, -0.699707, -46.7682953, -98.2317123, 46.4634171, 0.0246738
-0.4370117, -0.2919922, -0.6479492, -47.9268303, -96.2804871, 44.5731735, 0.0085603
-0.4575195, -0.2890625, -0.6352539, -48.7804871, -95.7926865, 44.4512215, -0.0109102
-0.515625, -0.2749023, -0.6577148, -49.4512215, -94.9390259, 45.2439041, -0.0323949
-0.5361328, -0.2666016, -0.6801758, -49.6341476, -94.6341476, 46.4634171, -0.0471656
-0.5493164, -0.2646484, -0.7314453, -48.5975609, -94.5121994, 47.8658562, -0.0535439
-0.5102539, -0.2802734, -0.7700195, -48.2317085, -94.0243912, 47.8048782, -0.0616007
-0.4780273, -0.2949219, -0.7807617, -47.8658562, -93.1097565, 46.7073174, -0.0639506
-0.4125977, -0.3291016, -0.7412109, -47.3780518, -92.2561035, 46.0365868, -0.0699931
-0.3901367, -0.3325195, -0.6987305, -46.2195129, -88.9634171, 44.4512215, -0.0741894
-0.3984375, -0.3061523, -0.6308594, -44.9390259, -84.0243912, 41.0365868, -0.0842603
-0.4326172, -0.2792969, -0.6298828, -45.6707344, -81.5853653, 39.5731735, -0.0840925
-0.5385742, -0.2338867, -0.6655273, -48.7195129, -79.8170776, 39.0853653, -0.0773785
-0.581543, -0.2163086, -0.6845703, -50.3048782, -80.9146347, 39.7560997, -0.063447
-0.5922852, -0.2128906, -0.65625, -52.0121956, -83.5975647, 40.2439041, -0.0538796
-0.5698242, -0.2260742, -0.6269531, -52.0121956, -84.146347, 40, -0.0421302
-0.5366211, -0.2661133, -0.565918, -51.0975609, -83.1097565, 38.5365868, -0.0313878
-0.5424805, -0.2856445, -0.5307617, -50.4268303, -82.3170776, 38.4756088, -0.0290379
-0.5561523, -0.277832, -0.5146484, -49.0853653, -80.6097565, 38.5975609, -0.0260166
-0.5893555, -0.2402344, -0.4790039, -48.4756126, -79.9390259, 38.1707344, -0.0229953
-0.6113281, -0.2211914, -0.4643555, -47.1951218, -80.6707306, 36.341465, -0.018967
-0.6640625, -0.2089844, -0.4648438, -47.5, -82.5, 35.6097565, -0.0130922
-0.6767578, -0.222168, -0.4707031, -47.6219521, -84.4512253, 36.1585388, -0.0102388
-0.6669922, -0.2685547, -0.4838867, -45.5487823, -87.1341476, 38.7804871, -0.0109102
-0.6445312, -0.2924805, -0.4960938, -43.6585388, -87.1341476, 39.3292694, -0.0115816
-0.5961914, -0.3110352, -0.5229492, -40.0609779, -84.146347, 39.0243912, -0.0095674
-0.5844727, -0.3237305, -0.5415039, -38.5365868, -82.8658524, 38.841465, -0.0075532
-0.5605469, -0.3271484, -0.5834961, -35.0609779, -81.1585388, 38.4756088, -0.0052033
-0.5463867, -0.2797852, -0.6201172, -33.9634171, -80.3048782, 37.9878044, -0.0125887
-0.5493164, -0.2426758, -0.6347656, -32.9878044, -77.6219559, 35.7317085, -0.026688
-0.565918, -0.1757812, -0.6337891, -33.3536606, -76.3414688, 34.1463432, -0.0293736
-0.5722656, -0.1674805, -0.6083984, -35.0609779, -75.3048782, 32.3780479, -0.0384375
-0.5668945, -0.1782227, -0.5473633, -36.4634171, -75.3658524, 31.5853672, -0.0498512
-0.5698242, -0.1914062, -0.5317383, -36.5243912, -75.4268341, 31.7073174, -0.0659648
-0.5986328, -0.21875, -0.5556641, -36.7682953, -74.0853653, 33.1707306, -0.0807355
-0.6147461, -0.2319336, -0.574707, -36.5853653, -73.2317123, 34.1463432, -0.0847639
-0.6157227, -0.2402344, -0.5766602, -35.6097565, -72.0121994, 35.0609779, -0.0834211
-0.5805664, -0.2368164, -0.546875, -34.1463432, -70.7926865, 34.3292694, -0.0793927
-0.5756836, -0.230957, -0.5424805, -32.8658562, -67.9878082, 31.5243912, -0.0659648
-0.5825195, -0.2265625, -0.5585938, -33.3536606, -66.5853653, 30.4878063, -0.0485084
-0.5932617, -0.2299805, -0.5771484, -34.7560997, -65.2439041, 29.8170738, -0.0320592
-0.590332, -0.2358398, -0.59375, -35.1219521, -64.9390259, 30.060976, -0.0243381
-0.581543, -0.2382812, -0.5874023, -34.5121956, -63.841465, 29.3902454, -0.01561
-0.559082, -0.2495117, -0.5644531, -32.8658562, -61.5853691, 28.1097565, -0.0001678
-0.5585938, -0.2509766, -0.5517578, -31.8292694, -60.0609779, 27.9878063, 0.0058747
-0.565918, -0.2426758, -0.5322266, -29.9390259, -57.3780518, 27.560976, 0.0011749
-0.5834961, -0.21875, -0.5258789, -29.8780499, -55.7317085, 27.0121956, -0.0162814
-0.6210938, -0.1430664, -0.4819336, -31.7682934, -52.0121956, 24.8780499, -0.0221561
-0.6733398, -0.0957031, -0.4067383, -33.6585388, -51.0365868, 23.0487804, -0.0313878
-0.6992188, -0.1010742, -0.3676758, -38.1097565, -52.1951218, 20.6097565, -0.051194
-0.7197266, -0.1738281, -0.2988281, -39.2073174, -54.5121956, 20.7926826, -0.0599222
-0.7104492, -0.2133789, -0.2797852, -38.0487823, -59.1463432, 23.0487804, -0.0605936
-0.6870117, -0.2739258, -0.265625, -35.7317085, -59.6341476, 23.6585369, -0.057908
-0.6757812, -0.284668, -0.2763672, -29.0243912, -57.7439041, 23.3536587, -0.0491798
-0.684082, -0.2529297, -0.3374023, -23.9024391, -53.1097565, 20.9146347, -0.0350805
-0.6923828, -0.2207031, -0.3891602, -22.9878063, -51.341465, 19.8780499, -0.0231632
-0.7001953, -0.1811523, -0.480957, -24.2682934, -49.5731735, 18.4756107, -0.0048676
-0.6855469, -0.1669922, -0.4912109, -24.7560978, -49.7560997, 17.8048782, 0.0172885
-0.6308594, -0.1474609, -0.4404297, -24.2682934, -48.7804871, 15, 0.0407874
-0.6030273, -0.140625, -0.3608398, -23.1707325, -47.8048782, 13.1097565, 0.0575723
-0.6118164, -0.1435547, -0.3374023, -22.8658543, -45.3048782, 10.7926836, 0.0693217
-0.6533203, -0.1567383, -0.3417969, -23.5975609, -44.5121956, 11.0365858, 0.0736858
-0.6762695, -0.1621094, -0.3676758, -24.1463413, -44.5731735, 13.3536587, 0.0686503
-0.6884766, -0.1630859, -0.4194336, -24.0853672, -44.4512215, 14.2682934, 0.0562295
-0.6791992, -0.1606445, -0.4331055, -22.560976, -43.4146347, 15.1829271, 0.0438087
-0.6445312, -0.1508789, -0.4355469, -20.1219521, -40.4878044, 13.5365858, 0.0298772
-0.6293945, -0.1464844, -0.4438477, -19.939024, -38.6585388, 12.5, 0.0152743
-0.6191406, -0.1416016, -0.4555664, -20.9146347, -35.3658562, 11.0975609, 0.0035248
-0.6220703, -0.1396484, -0.4511719, -21.3414631, -34.0853653, 10.3658543, 0.0003357
-0.6264648, -0.1225586, -0.4326172, -22.8658543, -32.0121956, 8.9024391, -0.0008392
-0.6450195, -0.1025391, -0.4150391, -23.1707325, -30.060976, 7.8048782, -0.0070497
-0.6586914, -0.1025391, -0.4169922, -23.7195129, -28.1097565, 6.8292685, -0.0102388
-0.6655273, -0.1230469, -0.449707, -24.5121956, -27.560976, 7.1341467, -0.018967
-0.6591797, -0.1430664, -0.46875, -25.7926826, -26.0975609, 7.8048782, -0.0283665
-0.6381836, -0.1879883, -0.4536133, -25.9146347, -24.9390259, 7.8048782, -0.036759
-0.6230469, -0.199707, -0.425293, -23.7195129, -21.4024391, 6.890244, -0.04448
-0.6123047, -0.1904297, -0.3608398, -19.6341476, -16.4634151, 4.0853658, -0.0513619
-0.6303711, -0.1767578, -0.3378906, -18.3536587, -14.3902445, 2.5, -0.057908
-0.6674805, -0.1523438, -0.3276367, -17.7439022, -11.5853662, 1.4634147, -0.0639506
-0.6850586, -0.1445312, -0.3354492, -18.1707325, -10.8536587, 0.7926829, -0.0753643
-0.7124023, -0.1313477, -0.3476562, -18.8414631, -10.1829271, -0.4268293, -0.0849317
-0.7060547, -0.1445312, -0.3476562, -19.2073174, -10, -1.402439, -0.0948348
-0.6987305, -0.1660156, -0.3359375, -18.1707325, -9.0853662, -2.3170731, -0.1008774
-0.6796875, -0.1870117, -0.3125, -17.0731716, -8.2317076, -2.6219513, -0.103563
-0.6762695, -0.1821289, -0.3041992, -13.3536587, -5.609756, -3.4146342, -0.0971847
-0.6899414, -0.1660156, -0.3046875, -9.0853662, -3.4756098, -4.8780489, -0.0760357
-0.6982422, -0.159668, -0.2958984, -6.5853658, -3.1707318, -5.609756, -0.0505226
-0.675293, -0.175293, -0.2197266, -2.5, -3.5365853, -7.8048782, -0.0260166
-0.6674805, -0.1835938, -0.1870117, -1.0365853, -3.2926829, -9.1463413, -0.0203098
-0.6826172, -0.1904297, -0.2143555, -0.5487805, -1.0365853, -10.8536587, -0.0162814
-0.7036133, -0.1875, -0.269043, -1.402439, -0.3048781, -10.8536587, -0.0206455
-0.7270508, -0.15625, -0.3862305, -2.5609756, -0.4268293, -9.8170738, -0.0364233
-0.6884766, -0.121582, -0.4042969, -2.195122, -0.4268293, -10.1219511, -0.0485084
-0.6523438, -0.0922852, -0.3852539, -1.0365853, 2.1341465, -12.560976, -0.0518654
-0.6171875, -0.0615234, -0.3686523, -0.9756098, 4.4512196, -14.6341467, -0.0505226
-0.6298828, -0.0620117, -0.3857422, -4.0243902, 8.6585369, -16.5243912, -0.0471656
-0.6552734, -0.078125, -0.4379883, -8.719512, 9.6341467, -14.5121956, -0.0448157
-0.6572266, -0.0913086, -0.4584961, -10.4878054, 9.5731707, -13.6585369, -0.0431373
-0.6298828, -0.121582, -0.4580078, -10.6707315, 11.1585369, -12.9878054, -0.0404517
-0.6157227, -0.1376953, -0.4321289, -9.4512196, 12.6219511, -13.3536587, -0.0404517
-0.5942383, -0.1499023, -0.3696289, -6.7682929, 17.3170738, -14.6341467, -0.0256809
-0.5996094, -0.1455078, -0.3598633, -6.7073174, 19.6341476, -15.6097565, -0.0099031
-0.6401367, -0.1308594, -0.3852539, -8.9634151, 22.6829281, -16.5853653, 0.0048676
-0.6796875, -0.1342773, -0.4321289, -10.2439022, 22.9268303, -16.5243912, 0.0271916
-0.6777344, -0.1464844, -0.4379883, -11.7073174, 22.6829281, -15.7926836, 0.0481727
-0.6357422, -0.1723633, -0.4213867, -10.6707315, 23.4146347, -16.1585369, 0.057908
-0.6171875, -0.1782227, -0.4101562, -7.2560978, 26.7682934, -17.5, 0.0548867
-0.5976562, -0.1777344, -0.4116211, -4.6341462, 31.8292694, -19.7560978, 0.0448157
-0.6025391, -0.1728516, -0.4145508, -4.1463413, 33.9024391, -20.7926826, 0.0246738
-0.6137695, -0.1660156, -0.3984375, -4.390244, 35.7317085, -22.1341476, -0.0050355
-0.6196289, -0.1713867, -0.3769531, -4.2073174, 36.5243912, -22.8658543, -0.0344091
-0.6254883, -0.1625977, -0.3374023, -3.2926829, 38.4756088, -25, -0.0773785
-0.6367188, -0.1645508, -0.3422852, -3.1707318, 39.7560997, -25.8536587, -0.1139696
-0.6704102, -0.1748047, -0.3876953, -4.1463413, 41.9512215, -25.6097565, -0.13579
-0.6567383, -0.190918, -0.4067383, -4.3292685, 42.0121956, -24.8170738, -0.1441825
-0.6357422, -0.1923828, -0.4003906, -2.9268293, 42.5, -24.4512196, -0.1524071
-0.5981445, -0.1860352, -0.3603516, -1.2195122, 43.5365868, -25.4878063, -0.1592889
-0.590332, -0.1831055, -0.3452148, 2.1341465, 47.0731735, -28.1097565, -0.1586175
-0.6074219, -0.1855469, -0.3535156, 3.3536587, 49.8780518, -29.0243912, -0.1572747
-0.621582, -0.1904297, -0.3662109, 3.2317073, 50.0609779, -28.7195129, -0.1502251
-0.6289062, -0.1884766, -0.4013672, 3.1707318, 49.8170738, -27.8048782, -0.1203479
-0.6225586, -0.1865234, -0.4243164, 3.0487804, 50.1829262, -27.6829281, -0.0757
-0.6074219, -0.1791992, -0.4765625, 3.1097562, 52.1951218, -28.4756107, -0.0135958
-0.6054688, -0.1660156, -0.4916992, 3.0487804, 53.2926826, -29.1463413, 0.0374304
-0.5834961, -0.1455078, -0.4819336, 2.804878, 55.6707344, -30, 0.0797284
-0.5639648, -0.1230469, -0.4477539, 2.3780489, 57.1951218, -30.7926846, 0.124712
-0.5649414, -0.1166992, -0.4477539, 1.2804878, 59.7560997, -32.8048782, 0.1519036
-0.5878906, -0.1362305, -0.4916992, 0.1829268, 60.6097565, -33.2926826, 0.160296
-0.5957031, -0.1552734, -0.5224609, -2.0121951, 60.3048782, -31.7682934, 0.156939
-0.5756836, -0.1987305, -0.5717773, -2.3170731, 59.6951218, -29.2682934, 0.1542535
-0.5546875, -0.2124023, -0.5961914, -1.7073171, 60.7317085, -28.7195129, 0.1472038
-0.5263672, -0.2260742, -0.6499023, -0.2439024, 65, -28.780489, 0.1240406
-0.5195312, -0.2192383, -0.6591797, 0.2439024, 67.5609741, -29.3902454, 0.0978561
-0.5029297, -0.2036133, -0.6166992, 0.6707317, 72.0121994, -31.8902454, 0.0777142
-0.5019531, -0.1958008, -0.5751953, 0.6097561, 74.2073212, -33.9634171, 0.0616007
-0.5297852, -0.1826172, -0.512207, -0.8536586, 77.1951218, -37.5, 0.0508583
-0.5878906, -0.199707, -0.5024414, -2.0731707, 77.3780518, -37.8658562, 0.0448157
-0.6088867, -0.2216797, -0.5136719, -4.7560978, 75.6097565, -36.6463432, 0.0394446
-0.6157227, -0.2714844, -0.5297852, -5.4268293, 74.2682953, -35.3658562, 0.0317235
-0.6054688, -0.2939453, -0.534668, -2.8658538, 73.1097565, -33.9634171, 0.023331
-0.578125, -0.3149414, -0.5405273, 2.5609756, 74.6951218, -35.1219521, 0.0152743
-0.5693359, -0.309082, -0.5429688, 5.1829271, 76.5243912, -36.5243912, 0.0048676
-0.5712891, -0.2841797, -0.5322266, 8.1097565, 80.1219559, -38.9024391, -0.0130922
-0.5776367, -0.2675781, -0.5268555, 8.2317076, 80.8536606, -40, -0.0297093
-0.5908203, -0.2260742, -0.5249023, 6.0365853, 81.0365906, -42.5, -0.0411231
-0.6020508, -0.2094727, -0.5200195, 4.6951222, 80.6707306, -43.4756126, -0.0538796
-0.6083984, -0.1889648, -0.5439453, 1.0365853, 78.7804871, -44.8780479, -0.0632792
-0.6035156, -0.1933594, -0.5712891, -0.8536586, 78.0487823, -45.0609779, -0.0770428
-0.5888672, -0.2138672, -0.574707, -3.5975611, 76.4634171, -44.6341476, -0.0793927
-0.5473633, -0.2543945, -0.5419922, -3.9024391, 75.8536606, -44.3292694, -0.0787213
-0.5297852, -0.2670898, -0.5283203, -2.5609756, 76.646347, -44.5121956, -0.0746929
-0.5249023, -0.2861328, -0.5117188, -0.9146342, 79.2682953, -45.5487823, -0.0679789
-0.5317383, -0.2915039, -0.5092773, -0.0609756, 80.5487823, -45.9756126, -0.0726787
-0.5566406, -0.3022461, -0.519043, 0.5487805, 81.1585388, -46.0975609, -0.0713359
-0.5664062, -0.3056641, -0.5297852, 0.6097561, 80.8536606, -46.1585388, -0.0632792
-0.5693359, -0.2924805, -0.5864258, 0.6097561, 80.1219559, -46.1585388, -0.0542153
-0.5698242, -0.2861328, -0.6171875, 0.4878049, 80.0609741, -46.7682953, -0.0441444
-0.5605469, -0.265625, -0.6625977, 0.4878049, 80.6097565, -47.2560997, -0.0377661
-0.5288086, -0.253418, -0.6635742, 0.6707317, 80.6707306, -47.8048782, -0.0327306
-0.5043945, -0.2553711, -0.6591797, 1.8902439, 81.0975647, -50.1829262, -0.0364233
-0.4833984, -0.262207, -0.6713867, 2.5609756, 81.8292694, -51.1585388, -0.0397803
-0.4760742, -0.2758789, -0.6782227, 2.5, 83.2317123, -50.3048782, -0.0377661
-0.4702148, -0.2792969, -0.6787109, 2.5, 85.6707306, -48.1097565, -0.0491798
-0.4716797, -0.2758789, -0.6787109, 2.4390244, 87.6219559, -47.1951218, -0.0592508
-0.4941406, -0.2412109, -0.7128906, 2.804878, 92.6219559, -46.9512215, -0.0627756
-0.5107422, -0.2250977, -0.7412109, 2.0731707, 94.7561035, -47.0731735, -0.0637827
-0.5366211, -0.2055664, -0.7705078, -0.3048781, 96.3414688, -47.3170738, -0.064622
-0.5366211, -0.2060547, -0.7597656, -2.195122, 95.9756088, -47.2560997, -0.0605936
-0.4941406, -0.2270508, -0.7128906, -2.8658538, 94.2682953, -48.4146347, -0.0582437
-0.4589844, -0.2636719, -0.6884766, -3.0487804, 93.9634171, -49.5121956, -0.0466621
-0.4501953, -0.284668, -0.7089844, -4.6341462, 94.8170776, -49.4512215, -0.0290379
-0.4658203, -0.3154297, -0.7700195, -6.2195125, 96.2195129, -48.4756126, -0.0159457
-0.465332, -0.3203125, -0.7905273, -9.5731707, 98.6585388, -45.1829262, -0.0099031
-0.4550781, -0.2983398, -0.7573242, -11.1585369, 100.9146347, -44.3902435, -0.0068818
-0.449707, -0.2802734, -0.7036133, -10.3048782, 101.7682953, -45.5487823, -0.0041962
-0.4619141, -0.2348633, -0.6118164, -8.4146347, 103.5975647, -49.3902435, -0.0028534
-0.4750977, -0.2294922, -0.5927734, -8.4146347, 103.7804871, -50.9146347, -0.0095674
-0.5161133, -0.2368164, -0.6181641, -10.9146347, 102.4390259, -50.7317085, -0.0193027
-0.5283203, -0.2495117, -0.6396484, -13.2317076, 101.0975647, -49.2682953, -0.0253452
-0.5175781, -0.277832, -0.6704102, -16.9512196, 98.1097565, -47.1341476, -0.0344091
-0.4746094, -0.3105469, -0.6674805, -17.6219521, 97.0731735, -47.3170738, -0.0411231
-0.4526367, -0.331543, -0.6645508, -15.3658543, 95.9146347, -50, -0.0407874
-0.4262695, -0.3896484, -0.6699219, -13.1707315, 94.9390259, -51.5853653, -0.0417945
-0.4155273, -0.4287109, -0.6689453, -6.0975609, 93.2317123, -52.6219521, -0.0491798
-0.3876953, -0.4980469, -0.6655273, 2.804878, 91.7682953, -52.1951218, -0.0552224
-0.3754883, -0.5166016, -0.6665039, 7.6219516, 91.646347, -51.8292694, -0.0679789
-0.3857422, -0.5058594, -0.6987305, 16.0975609, 93.8414688, -51.9512215, -0.0854353
-0.40625, -0.4770508, -0.7319336, 19.2073174, 95.9756088, -51.7073174, -0.0978561
-0.4560547, -0.4003906, -0.8110352, 22.1341476, 100.0609818, -51.7682953, -0.1059129
-0.4707031, -0.3549805, -0.8476562, 22.2560978, 100.9756088, -51.6463432, -0.0955062
-0.4814453, -0.2714844, -0.8896484, 19.2073174, 100.7926865, -53.7195129, -0.082414
-0.4594727, -0.2211914, -0.9067383, 16.9512196, 99.7561035, -55.18293, -0.064622
-0.4389648, -0.2089844, -0.9116211, 9.8780489, 98.4146347, -58.7195129, -0.0453193
-0.3808594, -0.2182617, -0.9291992, 5.5487804, 97.8048782, -60, -0.0273594
-0.3520508, -0.2460938, -0.9389648, -3.9024391, 97.1951218, -59.9390259, -0.0062104
-0.3032227, -0.3168945, -0.921875, -10.9756098, 96.9512253, -56.9512215, 0.0087282
-0.2753906, -0.3457031, -0.8901367, -12.6829271, 97.9878082, -55.3048782, 0.0176242
-0.2475586, -0.3857422, -0.7802734, -12.1341467, 102.9878082, -53.1707344, 0.0166171
-0.2509766, -0.3847656, -0.7158203, -10.1219511, 106.5853653, -53.3536606, 0.0152743
-0.3110352, -0.3515625, -0.6699219, -6.7682929, 113.0487823, -54.5121956, 0.0095674
-0.3569336, -0.3378906, -0.6914062, -6.5853658, 114.3292694, -54.1463432, 0.0018463
-0.4384766, -0.3168945, -0.8085938, -11.0975609, 112.1341476, -51.4024391, -0.012253
-0.4584961, -0.3305664, -0.9125977, -14.6951227, 109.146347, -49.4512215, -0.0360876
-0.4306641, -0.3466797, -0.9331055, -21.4634151, 101.8292694, -47.3780518, -0.0495155
-0.3325195, -0.3828125, -0.9199219, -23.3536587, 99.0853653, -47.8658562, -0.0327306
-0.2822266, -0.402832, -0.9135742, -23.5365868, 95.8536606, -51.4634171, -0.0028534
-0.2163086, -0.4350586, -0.9589844, -21.0365868, 96.5243912, -53.3536606, 0.0276951
-0.2016602, -0.4555664, -1.0058594, -20, 98.1707306, -52.6829262, 0.0555581
-0.1762695, -0.4921875, -1.0717773, -17.6219521, 100.9756088, -48.7195129, 0.0595865
-0.1586914, -0.5131836, -1.0649414, -15.7926836, 103.2317123, -47.0731735, 0.0505226
-0.1235352, -0.5332031, -0.965332, -8.841464, 108.0487823, -47.6219521, 0.0320592
-0.1123047, -0.5307617, -0.8989258, -4.390244, 111.1585388, -49.5121956, 0.0142672
-0.1577148, -0.4990234, -0.8339844, 2.5609756, 117.4390259, -54.3902435, -0.0028534
-0.2504883, -0.4736328, -0.8876953, 4.1463413, 119.8170776, -55.9756126, -0.0129244
-0.2915039, -0.4716797, -0.9345703, 4.0243902, 119.8170776, -56.0975609, -0.0229953
-0.3227539, -0.4926758, -0.9980469, 2.6219513, 117.8048782, -55, -0.0317235
-0.3027344, -0.5048828, -0.996582, 2.195122, 112.8048782, -54.3902435, -0.0381018
-0.234375, -0.5253906, -0.9536133, 6.4024391, 111.5243912, -57.3170738, -0.0424659
-0.1958008, -0.5268555, -0.921875, 9.3902445, 112.68293, -59.5121956, -0.0424659
-0.1650391, -0.5112305, -0.8364258, 15, 118.1707382, -62.6219521, -0.0454871
-0.1650391, -0.4916992, -0.7944336, 16.9512196, 120.9756088, -63.3536606, -0.0384375
-0.199707, -0.4248047, -0.7324219, 18.1097565, 125.18293, -63.2317085, -0.030045
-0.2529297, -0.3666992, -0.7304688, 17.5, 125.9146347, -62.6219521, -0.0256809
-0.2832031, -0.3486328, -0.753418, 13.9024391, 123.2926865, -60.9756126, -0.0216526
-0.3212891, -0.3227539, -0.8369141, 11.280488, 120.6707382, -59.8170738, -0.012253
-0.3237305, -0.3105469, -0.8842773, 5.5487804, 114.7561035, -57.5609779, 0.0018463
-0.2822266, -0.3051758, -0.9970703, 2.2560976, 112.0731735, -56.6463432, 0.0179599
-0.2436523, -0.3139648, -1.0703125, -3.9024391, 107.8658524, -56.0975609, 0.0352483
-0.1552734, -0.3476562, -1.215332, -11.341464, 104.5121994, -55.1219521, 0.0501869
-0.1000977, -0.3725586, -1.2446289, -15.1219511, 104.2682953, -55, 0.0656291
0.0205078, -0.4326172, -1.1835938, -19.8780499, 105.4878082, -54.5731735, 0.0710002
0.0820312, -0.4555664, -1.1035156, -20.6707325, 107.6219559, -55.6097565, 0.0693217
0.1191406, -0.4589844, -0.9614258, -19.6951218, 115.8536606, -59.6951218, 0.0558938
0.019043, -0.4262695, -0.9311523, -19.1463413, 120.7926865, -61.0365868, 0.0240024
-0.0644531, -0.4199219, -0.9511719, -20.2439022, 127.3170776, -60.18293, -0.0058747
-0.1821289, -0.4243164, -0.9819336, -21.5853672, 127.1951218, -57.5609779, -0.0350805
-0.2104492, -0.434082, -0.9726562, -23.6585369, 122.4390259, -54.0243912, -0.0552224
-0.2255859, -0.4541016, -0.9111328, -23.9024391, 119.2073212, -53.841465, -0.0720073
-0.2246094, -0.4638672, -0.8769531, -21.8902435, 116.2195129, -57.1951218, -0.0827497
-0.2236328, -0.4711914, -0.8676758, -19.0853672, 117.7439041, -61.5853691, -0.0814069
-0.2226562, -0.4746094, -0.8964844, -18.5975609, 118.7195129, -62.68293, -0.0740215
-0.206543, -0.4912109, -0.972168, -19.2073174, 118.6585388, -63.2317085, -0.0666361
-0.1835938, -0.5146484, -1.0029297, -19.3902435, 117.5, -62.8658562, -0.0569009
-0.0917969, -0.5595703, -1.0097656, -17.8048782, 114.4512253, -63.2926826, -0.0404517
-0.0117188, -0.5703125, -0.9746094, -15.6707325, 113.9634171, -64.0853653, -0.0142672
0.0126953, -0.5615234, -0.9824219, -10.2439022, 117.86586, -66.5243912, 0.005539
-0.0087891, -0.5263672, -1.0629883, -8.0487804, 120.9146347, -66.9512177, 0.0199741
-0.0253906, -0.5107422, -1.1259766, -6.4634147, 125.36586, -65.4268341, 0.018967
-0.0390625, -0.4970703, -1.2050781, -7.1951222, 126.0975647, -63.9024391, 0.0129244
-0.027832, -0.4858398, -1.2045898, -8.841464, 125.2439041, -61.1585388, 0.0058747
0.0209961, -0.4433594, -1.1035156, -10.3658543, 125.9146347, -62.6219521, -0.0062104
0.0356445, -0.4086914, -1.0327148, -11.0365858, 127.6219559, -64.6341476, -0.0129244
0.0200195, -0.3417969, -0.9321289, -13.5975609, 132.6829224, -69.0243912, -0.0216526
-0.0126953, -0.3110352, -0.9116211, -17.0121956, 134.146347, -69.8780518, -0.0283665
-0.0942383, -0.2851562, -0.9086914, -26.6463413, 132.5, -68.1097565, -0.0290379
-0.1333008, -0.2978516, -0.8974609, -31.341465, 129.2682953, -66.1585388, -0.0250095
-0.121582, -0.3139648, -0.8706055, -38.2926826, 120.9756088, -62.5, -0.0236667
-0.0834961, -0.355957, -0.8041992, -39.2682953, 117.3780518, -61.7682953, -0.0209812
-0.0668945, -0.3769531, -0.7773438, -36.6463432, 114.0853653, -61.7073174, -0.017792
-0.0532227, -0.4072266, -0.7373047, -34.3902435, 114.6951218, -61.341465, -0.01561
-0.0566406, -0.4116211, -0.7373047, -29.6951218, 118.4756088, -59.8170738, -0.0137636
-0.0634766, -0.4111328, -0.8066406, -27.0121956, 120.5487823, -58.2317085, -0.0137636
-0.0634766, -0.4135742, -0.862793, -25.9146347, 119.6341476, -57.5, -0.0129244
-0.0366211, -0.4511719, -1.0161133, -25.1829281, 113.9024429, -56.6463432, -0.0057069
-0.0087891, -0.4848633, -1.1152344, -24.7560978, 109.7561035, -55.9756126, 0.0045319
0.0639648, -0.5561523, -1.2983398, -23.9024391, 103.7195129, -52.9878044, 0.0130922
0.1660156, -0.5771484, -1.3500977, -23.5975609, 103.4146347, -51.7682953, 0.014435
0.2260742, -0.5581055, -1.3012695, -21.0975609, 110.4878082, -51.6463432, 0.0045319
0.3041992, -0.4858398, -1.0825195, -19.4512196, 116.7682953, -53.841465, -0.0109102
0.3076172, -0.4482422, -0.9707031, -17.1951218, 129.6951294, -61.8902435, -0.0246738
0.2099609, -0.3920898, -0.8120117, -15.8536587, 136.5853729, -67.8658524, -0.0370947
0.121582, -0.3818359, -0.7871094, -15.5487804, 136.7073212, -67.8658524, -0.0572366
-0.0537109, -0.3930664, -0.8261719, -15.4268293, 131.7682953, -62.68293, -0.0713359
-0.1147461, -0.4208984, -0.8588867, -14.6341467, 127.8048782, -58.7195129, -0.0803998
-0.1420898, -0.4892578, -0.9077148, -9.9390249, 119.9390259, -53.0487823, -0.0908064
-0.1103516, -0.5229492, -0.9204102, -6.0975609, 116.4024429, -52.0731735, -0.090135
-0.0283203, -0.5546875, -0.9682617, 2.9268293, 113.6585388, -54.1463432, -0.0815747
0.0595703, -0.5356445, -1.0444336, 6.9512196, 114.2682953, -55.5487823, -0.0681468
0.1010742, -0.5136719, -1.0756836, 10.6707315, 116.646347, -57.5, -0.0501869
0.1943359, -0.4487305, -1.0961914, 10.5487804, 118.2926865, -57.8658562, -0.036759
0.2294922, -0.4047852, -1.0942383, 6.7073174, 120.9756088, -58.841465, -0.0169528
0.2314453, -0.3007812, -1.1054688, -0.5487805, 123.4756088, -60, 0.0035248
0.2036133, -0.2436523, -1.1157227, -5.0609756, 124.8170776, -59.5731735, 0.01561
0.1401367, -0.1513672, -1.1313477, -16.4634151, 127.0121994, -58.1707344, 0.0171206
0.1196289, -0.1328125, -1.1176758, -22.6829281, 126.9512253, -57.5, 0.0139315
0.109375, -0.1586914, -1.043457, -33.4756088, 124.2073212, -56.2804909, 0.0078889
0.1171875, -0.1953125, -0.9960938, -37.6219521, 122.0731735, -56.0365868, 0.0031891
0.1254883, -0.2788086, -0.90625, -43.7195129, 118.4146347, -54.3902435, 0.0031891
0.1323242, -0.3432617, -0.8310547, -45.7317085, 117.9268341, -52.9268303, 0.0048676
0.1259766, -0.3696289, -0.7915039, -48.4146347, 118.8414688, -50.6097565, 0.0025177
0.1113281, -0.3964844, -0.7275391, -48.4756126, 119.5121994, -49.9390259, 0.002182
0.0976562, -0.4003906, -0.7119141, -47.4390259, 119.9390259, -50.4268303, 0.0035248
0.0776367, -0.4248047, -0.7412109, -45.1219521, 118.0487823, -51.4634171, 0.0015106
0.0668945, -0.4501953, -0.7875977, -43.2926826, 116.5243912, -50.9146347, -0.0015106
0.081543, -0.5229492, -0.9267578, -39.3292694, 111.9512253, -49.6951218, -0.0036927
0.112793, -0.5742188, -0.9848633, -35.9146347, 109.6951218, -48.5975609, -0.0068818
0.2255859, -0.6762695, -1.0302734, -25.1219521, 107.3170776, -47.8658562, -0.0149386
0.2890625, -0.7182617, -1.0292969, -17.6219521, 107.5, -48.5975609, -0.0198062
0.3989258, -0.7431641, -0.9790039, -1.7073171, 113.5975647, -52.3780518, -0.0271916
0.4169922, -0.6767578, -0.9931641, 5.670732, 119.0243912, -54.6951218, -0.0370947
0.3793945, -0.6152344, -1.043457, 14.2682934, 130.9756165, -58.5975609, -0.0468299
0.2587891, -0.4833984, -1.2143555, 15.7317076, 134.8170776, -59.5731735, -0.054551
0.2021484, -0.421875, -1.300293, 12.0121956, 136.7682953, -58.1097565, -0.0639506
0.1606445, -0.3261719, -1.4091797, 4.1463413, 131.2195129, -56.6463432, -0.068986
0.1826172, -0.2983398, -1.4057617, 0.2439024, 127.5, -57.0121956, -0.0740215
0.2983398, -0.2875977, -1.2763672, -5.670732, 122.4390259, -60.8536606, -0.0728466
0.3608398, -0.3046875, -1.1533203, -6.9512196, 121.9512253, -62.9878082, -0.0716716
0.4458008, -0.3378906, -0.8857422, -8.719512, 125.18293, -66.1585388, -0.0696574
0.4492188, -0.3491211, -0.784668, -9.2682924, 128.6585388, -65.9756088, -0.0656291
0.3686523, -0.3291016, -0.7060547, -12.1341467, 134.9390259, -62.2560997, -0.068986
0.2128906, -0.2758789, -0.7558594, -14.5731707, 137.4390259, -59.2073174, -0.0736858
0.140625, -0.2485352, -0.8046875, -20.9756107, 137.8048859, -53.3536606, -0.070161
0.0561523, -0.2250977, -0.9033203, -23.9024391, 135.0609741, -51.341465, -0.0565652
0.0571289, -0.2338867, -0.9375, -29.8170738, 125, -49.3292694, -0.0607614
0.1542969, -0.2958984, -0.9829102, -34.6951218, 112.8048782, -49.0853653, -0.0822461
0.2319336, -0.3383789, -0.9995117, -37.0121956, 107.8658524, -48.4756126, -0.1042344
0.4033203, -0.4267578, -1.0498047, -40.6707344, 102.68293, -46.8902435, -0.1089342
0.4873047, -0.4589844, -1.0761719, -43.0487823, 102.6219559, -45.4878044, -0.1044022
0.6044922, -0.4868164, -1.0942383, -46.1585388, 105.9146347, -44.5731735, -0.0995346
0.6367188, -0.4790039, -1.0869141, -47.7439041, 108.8414688, -44.7560997, -0.0904707
0.6367188, -0.4428711, -1.0517578, -49.3292694, 115.18293, -47.1341476, -0.0746929
0.5717773, -0.4116211, -1.0087891, -49.3292694, 118.1707382, -48.6585388, -0.061265
0.5209961, -0.4052734, -0.9931641, -49.4512215, 120.6707382, -50.8536606, -0.0438087
0.4375, -0.4169922, -0.9736328, -48.9024391, 120.6707382, -50.9756126, -0.018967
0.4077148, -0.4296875, -0.9628906, -46.0975609, 118.7804871, -50.6097565, 0.0031891
0.3857422, -0.480957, -0.940918, -40.6707344, 115.7317123, -50.1219521, 0.0293736
0.3911133, -0.5102539, -0.9345703, -36.5853653, 114.3902435, -50.3048782, 0.0522011
0.4091797, -0.5664062, -0.9438477, -27.560976, 113.7195129, -51.2804909, 0.0629435
0.4228516, -0.5805664, -0.9575195, -23.1097565, 113.9634171, -51.6463432, 0.0656291
0.4462891, -0.5864258, -0.9916992, -14.8170738, 115, -51.8902435, 0.056733
0.4624023, -0.5717773, -1.0068359, -10.9756098, 115.4878082, -51.8902435, 0.0364233
0.4946289, -0.5322266, -1.0263672, -5, 116.0975647, -52.2560997, 0.0018463
0.5273438, -0.4799805, -1.0166016, -2.6219513, 116.2195129, -53.0487823, -0.0176242
0.5390625, -0.4482422, -1.0136719, 1.2195122, 117.0121994, -53.5365868, -0.0117494
0.5439453, -0.3803711, -1.0126953, 1.8902439, 117.68293, -53.6585388, 0.0062104
0.5380859, -0.3413086, -1.0273438, 1.8902439, 119.3902435, -52.8048782, 0.0280308
0.5361328, -0.2836914, -1.0756836, -1.5853659, 119.6341476, -51.1585388, 0.033402
0.5351562, -0.2709961, -1.1064453, -4.5121951, 119.0243912, -50.3048782, 0.0354162
0.5537109, -0.2685547, -1.1811523, -11.6463413, 116.4634171, -48.5365868, 0.0370947
0.5693359, -0.2724609, -1.2104492, -15.3048782, 114.6341476, -47.4390259, 0.0320592
0.6196289, -0.3027344, -1.2104492, -20.7317085, 112.0121994, -45.2439041, 0.026688
0.6518555, -0.3227539, -1.1821289, -22.7439022, 111.5853653, -44.6341476, 0.0151064
0.7006836, -0.3486328, -1.1005859, -25.3048782, 113.1097565, -45.3048782, 0.0124208
0.6899414, -0.3417969, -1.0170898, -25.6707325, 115.0609818, -45.6707344, 0.0095674
0.6616211, -0.3295898, -0.9814453, -28.7195129, 119.146347, -46.1585388, 0.0075532
0.5800781, -0.2880859, -0.9160156, -30.5487804, 120.7926865, -45.9756126, 0.0062104
0.5400391, -0.2695312, -0.878418, -35.4268303, 121.8292694, -44.7560997, 0.0124208
0.4833984, -0.2456055, -0.8041992, -39.3292694, 118.4146347, -43.9634171, 0.0182956
0.4667969, -0.2480469, -0.7875977, -40.8536606, 116.0365906, -43.7804871, 0.0293736
0.453125, -0.2714844, -0.8037109, -43.7804871, 110.7926865, -42.8048782, 0.040116
0.4555664, -0.2875977, -0.8349609, -45.4878044, 107.68293, -41.5853653, 0.0424659
0.5068359, -0.3432617, -0.8837891, -48.3536606, 102.5, -38.7804871, 0.030045
0.5498047, -0.375, -0.890625, -49.0243912, 99.8170776, -37.9268303, 0.0199741
0.6479492, -0.4291992, -0.8959961, -47.2560997, 95.7926865, -37.9878044, 0.0105745
0.7172852, -0.472168, -0.90625, -45.2439041, 94.7561035, -39.0853653, -0.002182
0.734375, -0.4926758, -0.9057617, -38.5365868, 95.7926865, -40, -0.0104067
0.7421875, -0.512207, -0.8613281, -35.3048782, 97.8048782, -40.2439041, -0.0176242
0.7363281, -0.5083008, -0.8208008, -27.8048782, 103.3536606, -40.9146347, -0.018967
0.7021484, -0.4873047, -0.7641602, -19.6951218, 108.0487823, -43.841465, -0.0169528
0.6577148, -0.4746094, -0.7709961, -16.0365849, 108.9024429, -45.3048782, -0.0184634
0.5566406, -0.4482422, -0.8774414, -11.0975609, 107.5, -45.8536606, -0.0166171
0.5141602, -0.4458008, -0.9560547, -10.060976, 105.4878082, -45.1219521, -0.0176242
0.5029297, -0.456543, -1.0791016, -9.6951218, 100.4878082, -42.3170738, -0.0209812
0.5332031, -0.4643555, -1.1108398, -8.719512, 98.4146347, -41.5243912, -0.0260166
0.6347656, -0.4555664, -1.1137695, -4.6951222, 97.8048782, -43.6585388, -0.0290379
0.7089844, -0.4174805, -1.0805664, -1.9512196, 99.3902435, -45.7317085, -0.0377661
0.7368164, -0.3916016, -1.0639648, 2.195122, 105.4878082, -48.841465, -0.043473
0.7495117, -0.3300781, -1.0258789, 2.804878, 108.6585388, -49.7560997, -0.051194
0.7470703, -0.296875, -1.0004883, -0.6707317, 114.0243912, -48.7195129, -0.0582437
0.7260742, -0.2490234, -0.9506836, -6.5853658, 116.2804871, -47.7439041, -0.0639506
0.7075195, -0.2275391, -0.9423828, -9.7560978, 116.2195129, -47.3780518, -0.0679789
0.6625977, -0.2182617, -0.9750977, -16.280489, 115.4878082, -45.8536606, -0.0619364
0.6401367, -0.222168, -1.0048828, -19.2682934, 114.8170776, -44.3292694, -0.0565652
0.6337891, -0.2490234, -1.0395508, -25.4878063, 112.7439041, -41.9512215, -0.0459907
0.6518555, -0.2695312, -1.0356445, -27.3780499, 111.2195129, -41.1585388, -0.0350805
0.703125, -0.3095703, -0.9941406, -29.8170738, 109.146347, -40.9146347, -0.0298772
0.7319336, -0.3320312, -0.934082, -30.3048782, 108.8414688, -41.2195129, -0.0250095
0.7353516, -0.3374023, -0.902832, -31.4634151, 110.36586, -40.5487823, -0.0182956
0.7294922, -0.3222656, -0.8369141, -32.0121956, 111.646347, -40.1829262, -0.0149386
0.7246094, -0.3046875, -0.7988281, -33.9024391, 113.4756088, -39.6341476, -0.018967
0.703125, -0.2915039, -0.7231445, -35.3048782, 112.6219559, -40.0609779, -0.0219883
0.6914062, -0.2963867, -0.6923828, -36.2195129, 111.2195129, -40.4878044, -0.0250095
0.6650391, -0.3208008, -0.6611328, -36.6463432, 107.3170776, -40.2439041, -0.0290379
0.6547852, -0.3432617, -0.6616211, -36.4024391, 105.4268341, -39.3902435, -0.026688
0.6538086, -0.3813477, -0.6879883, -34.6951218, 102.0121994, -36.4024391, -0.0283665
0.6625977, -0.387207, -0.7104492, -32.8048782, 100.7926865, -35.5487823, -0.0354162
0.7011719, -0.4067383, -0.7602539, -28.6585369, 97.6219559, -35.7317085, -0.051194
0.7304688, -0.4228516, -0.7836914, -26.6463413, 96.7682953, -35.7317085, -0.0619364
0.7431641, -0.4228516, -0.7749023, -22.2560978, 95.9146347, -36.5243912, -0.0676432
0.7607422, -0.394043, -0.7475586, -19.7560978, 96.1585388, -36.9512215, -0.0753643
0.7651367, -0.3696289, -0.7392578, -15.2439032, 98.2317123, -37.9878044, -0.0894636
0.7490234, -0.3071289, -0.765625, -12.6829271, 99.6951218, -39.1463432, -0.1188373
0.7319336, -0.2807617, -0.8037109, -12.8658543, 99.6341476, -39.3292694, -0.1451896
0.7167969, -0.2509766, -0.9169922, -16.7073174, 97.8658524, -38.4146347, -0.16701
0.7167969, -0.2514648, -0.9643555, -18.7195129, 96.1585388, -37.6219521, -0.1680171
0.7612305, -0.2709961, -1.0083008, -22.560976, 92.1951218, -36.4024391, -0.1478752
0.8012695, -0.2890625, -0.9912109, -23.0487804, 90.6707306, -36.6463432, -0.1173266
0.8720703, -0.3237305, -0.9057617, -20.7317085, 90.7317123, -38.7195129, -0.0914778
0.9086914, -0.3496094, -0.8017578, -18.9634151, 92.1341476, -39.9390259, -0.0673075
0.9042969, -0.3549805, -0.7734375, -15.3658543, 97.6219559, -41.4024391, -0.0471656
0.84375, -0.3588867, -0.7597656, -14.7560978, 100.7926865, -41.0975609, -0.0270237
0.8056641, -0.3544922, -0.7905273, -16.3414631, 104.6951218, -38.5975609, -0.0048676
0.7319336, -0.3374023, -0.8725586, -19.6951218, 105.6097565, -35.3658562, 0.0146029
0.7084961, -0.328125, -0.9189453, -21.2195129, 104.6341476, -34.0853653, 0.0305486
0.7143555, -0.3085938, -0.9736328, -22.6829281, 102.0731735, -33.9634171, 0.0360876
0.7451172, -0.3056641, -0.9750977, -22.439024, 100.9146347, -34.8170738, 0.0287022
0.8144531, -0.2924805, -0.9106445, -20.1829281, 100.7317123, -38.2317085, 0.0288701
0.871582, -0.2788086, -0.8134766, -18.9024391, 102.0121994, -39.8780479, 0.033402
0.8813477, -0.2753906, -0.7651367, -17.8048782, 105.4878082, -42.8048782, 0.040116
0.8623047, -0.2675781, -0.7128906, -18.5975609, 107.6219559, -43.1097565, 0.0555581
0.8344727, -0.2670898, -0.7011719, -21.9512196, 110.18293, -41.7073174, 0.0733501
0.7744141, -0.2773438, -0.6796875, -24.1463413, 110.36586, -40.1829262, 0.0897993
0.7509766, -0.2822266, -0.6679688, -26.7073174, 109.5731735, -37.1341476, 0.0971847
0.7270508, -0.2792969, -0.6557617, -25.4268303, 107.0731735, -36.0975609, 0.0877852
0.7236328, -0.2714844, -0.6650391, -23.780489, 105.6707306, -36.0365868, 0.0793927
0.7456055, -0.2543945, -0.722168, -21.6463413, 102.4390259, -37.0121956, 0.0696574
0.7651367, -0.2514648, -0.7578125, -21.4024391, 100.2439041, -37.6829262, 0.0480049
0.8359375, -0.2651367, -0.7993164, -23.2926826, 96.8292694, -39.0243912, 0.0219883
0.902832, -0.2832031, -0.7851562, -24.0243912, 95.1219559, -39.1463432, -0.0129244
0.9262695, -0.2900391, -0.7661133, -24.5731716, 93.4146347, -39.6951218, -0.0419623
0.9492188, -0.284668, -0.7119141, -24.3292694, 93.5365906, -39.3292694, -0.0627756
0.9394531, -0.2783203, -0.6860352, -23.5975609, 94.7561035, -38.2926826, -0.0726787
0.9135742, -0.2680664, -0.6523438, -23.2317085, 95.6707306, -37.7439041, -0.0673075
0.8959961, -0.2612305, -0.6450195, -22.9268303, 96.7682953, -36.8902435, -0.0441444
0.859375, -0.2612305, -0.6318359, -22.9878063, 95.3048782, -36.0975609, -0.0179599
0.8491211, -0.2573242, -0.6376953, -22.439024, 93.9024429, -35.6097565, 0.0065461
0.8457031, -0.2519531, -0.6586914, -20.9756107, 90.3658524, -35, 0.0263523
0.8491211, -0.2539062, -0.6796875, -19.6951218, 88.3536606, -34.6341476, 0.0320592
0.8706055, -0.246582, -0.7075195, -17.2560978, 85, -33.7195129, 0.0260166
0.9033203, -0.222168, -0.7075195, -16.4024391, 83.9024429, -33.4146347, 0.0253452
0.9204102, -0.2143555, -0.7041016, -15, 82.3170776, -32.9878044, 0.0240024
0.9443359, -0.2041016, -0.6884766, -14.7560978, 82.2560959, -33.2317085, 0.0226596
0.9458008, -0.2026367, -0.684082, -15.4268293, 83.4756088, -33.3536606, 0.0246738
0.9370117, -0.2177734, -0.6728516, -16.1585369, 84.0853653, -33.2317085, 0.0287022
0.9238281, -0.2294922, -0.6630859, -17.6829281, 84.9390259, -32.1951218, 0.0285344
0.9052734, -0.2397461, -0.6259766, -17.3170738, 84.8170776, -30.9146347, 0.0246738
0.9047852, -0.2387695, -0.6108398, -16.6463413, 84.8780518, -30.7926846, 0.0182956
0.8989258, -0.2290039, -0.59375, -14.3292685, 84.7560959, -31.2195129, 0.01561
0.8984375, -0.2207031, -0.6000977, -13.5975609, 85.5487823, -31.280489, 0.0119173
0.8969727, -0.1948242, -0.6274414, -13.6585369, 85.4878082, -31.5853672, 0.0038605
0.8994141, -0.1757812, -0.6611328, -14.2073174, 85.18293, -31.5243912, -0.0052033
0.9072266, -0.1704102, -0.6679688, -16.0365849, 83.7195129, -31.1585369, -0.0102388
0.9291992, -0.1708984, -0.6689453, -16.6463413, 82.9268341, -31.0365868, -0.0135958
0.9414062, -0.1767578, -0.6591797, -17.1341476, 81.5243912, -31.4634151, -0.0169528
0.9599609, -0.1816406, -0.6474609, -16.9512196, 81.4024429, -31.8292694, -0.0280308
0.9619141, -0.1933594, -0.6435547, -17.5, 81.7682953, -32.3780479, -0.0416266
0.9560547, -0.2001953, -0.6645508, -19.0243912, 82.1341476, -32.5, -0.0540475
0.949707, -0.2075195, -0.6796875, -20.5487804, 82.0121994, -32.0121956, -0.0713359
0.9360352, -0.2226562, -0.7314453, -23.7195129, 81.2804871, -30.6707325, -0.0840925
0.9326172, -0.2329102, -0.7529297, -24.7560978, 80.7926865, -29.8780499, -0.0904707
0.9282227, -0.2382812, -0.7792969, -25.6707325, 79.4512177, -28.3536587, -0.0891279
0.9365234, -0.234375, -0.7402344, -24.9390259, 78.7195129, -28.1097565, -0.0861067
0.9438477, -0.2275391, -0.7041016, -22.1341476, 78.5365906, -29.1463413, -0.0847639
0.9418945, -0.2128906, -0.6240234, -20.060976, 78.4146347, -30.1829281, -0.0807355
0.9321289, -0.2104492, -0.5878906, -17.2560978, 78.6585388, -32.3170738, -0.073518
0.9077148, -0.2050781, -0.5473633, -16.2195129, 77.3780518, -32.1341476, -0.0713359
0.8994141, -0.2080078, -0.543457, -17.0121956, 76.4024429, -31.5853672, -0.0679789
0.8989258, -0.2016602, -0.5473633, -18.4146347, 73.4146347, -29.2682934, -0.0565652
0.9008789, -0.1962891, -0.5595703, -18.5975609, 71.8292694, -28.5365868, -0.051194
0.9155273, -0.1938477, -0.5966797, -18.0487804, 68.3536606, -27.1341476, -0.0505226
0.9262695, -0.1870117, -0.6132812, -17.439024, 66.7682953, -26.4634151, -0.0532082
0.9501953, -0.1923828, -0.644043, -15, 63.1707344, -26.1585369, -0.0518654
0.9648438, -0.1923828, -0.6401367, -14.0853662, 62.3170738, -26.280489, -0.0498512
0.9677734, -0.1914062, -0.6293945, -13.0487804, 60.9756126, -26.5243912, -0.043473
0.9619141, -0.2021484, -0.5737305, -12.6219511, 60.6707344, -26.7682934, -0.0337377
0.9560547, -0.2128906, -0.5463867, -12.4390249, 59.4512215, -28.1707325, -0.0307164
0.9248047, -0.2490234, -0.4956055, -11.7073174, 58.4146347, -28.9024391, -0.026688
0.9111328, -0.2626953, -0.4804688, -10.9756098, 57.8658562, -28.9634151, -0.0290379
0.8774414, -0.2885742, -0.4794922, -9.0243902, 54.7560997, -28.0487804, -0.0313878
0.8666992, -0.2885742, -0.4863281, -7.6219516, 52.6219521, -27.5, -0.0391089
0.8710938, -0.265625, -0.4980469, -4.4512196, 47.9268303, -26.6463413, -0.0357519
0.8916016, -0.2529297, -0.5014648, -2.2560976, 46.0365868, -26.8902454, -0.0325628
0.9384766, -0.2148438, -0.5102539, 1.3414634, 42.6219521, -27.9268303, -0.0325628
0.9628906, -0.1811523, -0.5800781, 2.1341465, 41.6463432, -28.5975609, -0.0298772
0.9746094, -0.1679688, -0.6362305, 0.7926829, 40.1829262, -27.6219521, -0.0229953
0.9887695, -0.1621094, -0.7260742, -1.4634147, 39.5121956, -26.4634151, -0.0203098
0.9941406, -0.1567383, -0.746582, -6.890244, 37.5609779, -23.9024391, -0.0171206
1.0087891, -0.1459961, -0.7275391, -10.3048782, 35.9146347, -22.3780499, -0.017792
1.0073242, -0.1362305, -0.699707, -10.2439022, 35.9756088, -22.5, -0.017792
1.0029297, -0.1088867, -0.6499023, -9.8170738, 36.7682953, -23.2926826, -0.018967
0.9916992, -0.1030273, -0.6381836, -10.1829271, 37.1951218, -23.3536587, -0.0290379
0.9536133, -0.0976562, -0.6445312, -13.780488, 38.1097565, -21.4024391, -0.0384375
0.9438477, -0.0966797, -0.6557617, -16.6463413, 37.8658562, -19.8780499, -0.0451514
0.9282227, -0.090332, -0.6694336, -22.8048782, 36.7682953, -15.7926836, -0.054551
0.9282227, -0.1005859, -0.6538086, -24.9390259, 35.6707344, -14.3292685, -0.0619364
0.9355469, -0.1064453, -0.6411133, -25.8536587, 33.3536606, -12.6829271, -0.0699931
0.9345703, -0.125, -0.6108398, -25.8536587, 32.3780479, -12.4390249, -0.076875
0.9316406, -0.1376953, -0.6000977, -25.8536587, 30.5487804, -11.9512196, -0.0815747
0.9306641, -0.1567383, -0.5893555, -26.8902454, 28.6585369, -10.8536587, -0.0887922
0.9331055, -0.1660156, -0.581543, -27.8048782, 27.1341476, -10.4268293, -0.0740215
0.9458008, -0.1967773, -0.5737305, -28.4756107, 24.5731716, -10.060976, -0.0446479
0.949707, -0.2075195, -0.5732422, -28.3536587, 23.5975609, -9.5731707, -0.0142672
0.9511719, -0.2299805, -0.5927734, -27.0731716, 22.439024, -8.719512, 0.0176242
0.9521484, -0.2329102, -0.6049805, -26.5853672, 22.3780499, -8.2926826, 0.0446479
0.9487305, -0.2207031, -0.6132812, -25.1829281, 21.2195129, -7.2560978, 0.0642863
0.9467773, -0.2036133, -0.6005859, -24.9390259, 20.9146347, -6.9512196, 0.0736858
0.9501953, -0.1933594, -0.5932617, -23.780489, 19.2682934, -7.6829271, 0.0746929
0.9482422, -0.2021484, -0.5717773, -23.0487804, 18.6585369, -8.2317076, 0.0733501
0.9433594, -0.2089844, -0.5654297, -22.9268303, 17.1341476, -8.1097565, 0.0639506
0.921875, -0.2231445, -0.5507812, -24.0243912, 16.0365849, -7.3170733, 0.0516976
0.9135742, -0.2275391, -0.546875, -24.3292694, 15.4878054, -6.4634147, 0.0287022
0.890625, -0.2299805, -0.5375977, -24.0243912, 13.3536587, -5.7926831, 0.0028534
0.8891602, -0.2280273, -0.5292969, -23.4756107, 12.0731707, -5.8536587, -0.0229953
0.894043, -0.234375, -0.5327148, -21.6463413, 9.3902445, -6.2195125, -0.0481727
0.8989258, -0.2397461, -0.5400391, -20.7317085, 7.9878049, -6.4634147, -0.0656291
0.9111328, -0.2480469, -0.5556641, -19.2682934, 6.0975609, -6.2195125, -0.0814069
0.9169922, -0.2460938, -0.578125, -18.6585369, 5.5487804, -6.2195125, -0.0882887
0.9135742, -0.2451172, -0.5898438, -17.5, 4.2073174, -5.670732, -0.0854353
0.9013672, -0.2456055, -0.6220703, -17.1951218, 3.6585367, -5.4268293, -0.0807355
0.8989258, -0.2436523, -0.6308594, -16.7682934, 2.3780489, -5.0609756, -0.0649577
0.8935547, -0.234375, -0.6401367, -16.5243912, 1.7073171, -4.2073174, -0.0518654
0.8876953, -0.2231445, -0.6386719, -16.5243912, 1.2195122, -3.7195122, -0.0458228
0.8837891, -0.1928711, -0.6308594, -16.4634151, 0.6707317, -3.1707318, -0.0337377
0.8876953, -0.1787109, -0.6313477, -16.8292694, 0, -3.1707318, -0.0270237
0.8901367, -0.159668, -0.6279297, -17.9878044, -2.4390244, -2.804878, -0.023331
0.8979492, -0.15625, -0.6274414, -18.2926826, -3.6585367, -2.3170731, -0.0263523
0.9140625, -0.1577148, -0.621582, -20.060976, -5.7926831, -0.1219512, -0.0283665
0.9213867, -0.1611328, -0.6279297, -20.7317085, -6.280488, 0.9146342, -0.0317235
0.9169922, -0.1669922, -0.6279297, -21.8902435, -7.2560978, 2.1341465, -0.0391089
0.9042969, -0.1796875, -0.6186523, -22.8048782, -7.4390244, 3.1707318, -0.0421302
0.8930664, -0.1816406, -0.6123047, -23.1707325, -9.0243902, 4.2073174, -0.0404517
0.887207, -0.1967773, -0.5874023, -23.1707325, -10.9756098, 4.5731707, -0.0394446
0.8847656, -0.2050781, -0.5756836, -22.6829281, -12.1341467, 4.8170733, -0.0384375
0.8833008, -0.2138672, -0.5610352, -21.5243912, -13.5975609, 5.3658538, -0.0428016
0.8789062, -0.2138672, -0.5615234, -21.4634151, -14.6341467, 5.609756, -0.0522011
0.8769531, -0.2124023, -0.5717773, -21.0365868, -16.5243912, 6.6463418, -0.0585794
0.8779297, -0.2172852, -0.5776367, -21.3414631, -17.9268303, 7.1341467, -0.0562295
0.8862305, -0.234375, -0.5844727, -21.4024391, -20.6707325, 7.3170733, -0.0394446
0.8959961, -0.2558594, -0.5854492, -20.9756107, -22.0121956, 7.3170733, -0.0105745
0.9008789, -0.2714844, -0.5878906, -19.939024, -24.3292694, 7.6219516, 0.0339055
0.890625, -0.2680664, -0.5922852, -19.2073174, -24.9390259, 7.8658538, 0.0815747
0.8857422, -0.2617188, -0.5957031, -17.7439022, -26.5853672, 8.5365858, 0.1226978
0.8803711, -0.2387695, -0.6225586, -17.1951218, -29.1463413, 8.9024391, 0.1465324
0.8818359, -0.2290039, -0.6357422, -17.0731716, -30.9146347, 9.1463413, 0.1535821
0.894043, -0.2158203, -0.6411133, -17.3170738, -34.0243912, 9.7560978, 0.1428397
0.9072266, -0.2133789, -0.6313477, -17.2560978, -35.2439041, 9.8170738, 0.1257191
0.9272461, -0.2084961, -0.5883789, -16.2195129, -37.5, 9.8780489, 0.1059129
0.9287109, -0.2080078, -0.5688477, -15.8536587, -38.2317085, 9.8780489, 0.0814069
0.9208984, -0.222168, -0.543457, -15.7926836, -39.6951218, 10.3658543, 0.0582437
0.9057617, -0.237793, -0.5371094, -15.7317076, -40.6707344, 11.0365858, 0.0384375
0.90625, -0.2451172, -0.5400391, -15.6097565, -43.1097565, 12.6829271, 0.0132601
0.9013672, -0.2573242, -0.5688477, -14.8780489, -44.7560997, 13.5975609, -0.0179599
0.909668, -0.2568359, -0.5844727, -13.4146347, -47.8658562, 14.7560978, -0.0649577
0.9272461, -0.2495117, -0.6098633, -10.7317076, -50.2439041, 15.6097565, -0.1017166
0.9355469, -0.2407227, -0.6235352, -9.7560978, -50.9146347, 15.5487804, -0.1297475
0.9384766, -0.2158203, -0.6538086, -8.9024391, -51.4024391, 15.9146347, -0.1592889
0.9379883, -0.2045898, -0.6665039, -9.2682924, -51.7073174, 16.0975609, -0.1962158
0.9291992, -0.1787109, -0.6943359, -10.4878054, -52.8048782, 16.8292694, -0.2106508
0.9238281, -0.1694336, -0.7114258, -11.6463413, -53.6585388, 17.1951218, -0.2198825
0.9155273, -0.1606445, -0.7363281, -14.6341467, -55.3048782, 18.4146347, -0.2224002
0.909668, -0.1503906, -0.7363281, -15.8536587, -56.2195129, 19.1463413, -0.2099794
0.9140625, -0.1469727, -0.7211914, -17.9878044, -58.0487823, 19.6341476, -0.1824521
0.9262695, -0.1489258, -0.6713867, -18.5975609, -58.7195129, 19.7560978, -0.1465324
0.9296875, -0.1625977, -0.6464844, -19.939024, -59.4512215, 18.8414631, -0.1052415
0.918457, -0.1850586, -0.6044922, -21.4634151, -60.1219521, 19.2682934, -0.0706645
0.9106445, -0.1958008, -0.5952148, -22.2560978, -60.4268303, 19.8780499, -0.0488441
0.8862305, -0.2260742, -0.5947266, -23.1097565, -62.3780518, 21.6463413, -0.0347448
0.8813477, -0.2407227, -0.6083984, -23.1097565, -63.5975609, 22.6829281, -0.0293736
0.878418, -0.2666016, -0.6289062, -22.3780499, -65.8536606, 24.1463413, -0.0303807
0.8891602, -0.269043, -0.637207, -21.5853672, -66.7682953, 24.4512196, -0.0381018
0.9121094, -0.2578125, -0.6337891, -18.9634151, -67.7439041, 24.0853672, -0.0374304
0.9360352, -0.2382812, -0.6381836, -17.9268303, -68.1707306, 23.1707325, -0.0303807
0.9453125, -0.2285156, -0.6469727, -16.3414631, -68.9634171, 22.6219521, -0.0025177
0.9487305, -0.2182617, -0.6669922, -16.2195129, -69.3902435, 22.8658543, 0.0360876
0.9487305, -0.2192383, -0.6723633, -16.8902435, -69.6341476, 24.6951218, 0.0881209
