Application:, Trigno Discover (1.6.5)
Date/Time:, 03/02/2025 10:37:50
Collection Length (seconds):, 34.02
wrist (81457), , , , , , bicep (81139)
sensor mode: 609, , , , , , sensor mode: 40
ACC X (G), ACC Y (G), ACC Z (G), GYRO X (deg/s), GYRO Y (deg/s), GYRO Z (deg/s), EMG 1 (mV)
370.3704 Hz, 370.3704 Hz, 370.3704 Hz, 370.3704 Hz, 370.3704 Hz, 370.3704 Hz, 2148.1481 Hz
-0.9765625, 0.1855469, -0.2670898, -13.9024391, -8.5975609, 0.4268293, -0.0325628
-0.9750977, 0.1791992, -0.262207, -14.1463413, -9.0853662, 0.4268293, -0.0372625
-0.9707031, 0.1694336, -0.2578125, -14.3292685, -9.1463413, 0.4268293, -0.0439765
-0.9711914, 0.1611328, -0.2495117, -14.4512196, -9.3902445, -0.3658537, -0.0486763
-0.9780273, 0.15625, -0.2514648, -13.7195129, -8.9634151, -0.5487805, -0.0540475
-0.9824219, 0.152832, -0.2568359, -13.5975609, -8.6585369, -0.1829268, -0.0621042
-0.9833984, 0.1533203, -0.2587891, -13.3536587, -8.3536587, 0.4878049, -0.0688182
-0.9746094, 0.1533203, -0.2583008, -13.2317076, -8.6585369, 0.6707317, -0.0647898
-0.9726562, 0.1450195, -0.2543945, -13.3536587, -9.0243902, 0.7317073, -0.0580758
-0.9707031, 0.1391602, -0.2475586, -13.2926836, -8.780488, 0.7317073, -0.0480049
-0.9716797, 0.1479492, -0.2456055, -12.7439032, -8.5365858, 0.8536586, -0.0379339
-0.9750977, 0.1577148, -0.2426758, -12.6219511, -8.4756098, 1.2804878, -0.0318914
-0.9711914, 0.1582031, -0.2426758, -12.5, -8.0487804, 1.5243902, -0.0265202
-0.9697266, 0.1533203, -0.2412109, -12.6219511, -7.9268293, 1.4634147, -0.017792
-0.9677734, 0.1445312, -0.2543945, -12.8658543, -7.5609756, 1.5243902, -0.0184634
-0.9682617, 0.152832, -0.2490234, -12.7439032, -7.1341467, 2.0121951, -0.0271916
-0.9755859, 0.1694336, -0.2504883, -12.9878054, -7.1341467, 2.3170731, -0.0352483
-0.9716797, 0.1855469, -0.2524414, -13.2926836, -7.0121951, 2.0731707, -0.0332341
-0.9765625, 0.1938477, -0.2558594, -13.4146347, -6.8292685, 1.9512196, -0.027863
-0.9731445, 0.1904297, -0.2607422, -14.0243902, -7.8048782, 1.7682927, -0.0258488
-0.9677734, 0.1782227, -0.2602539, -13.841464, -7.8658538, 1.7682927, -0.0265202
-0.9628906, 0.1635742, -0.2612305, -14.2073174, -7.8658538, 1.9512196, -0.0198062
-0.9672852, 0.159668, -0.2617188, -13.841464, -7.6829271, 1.7682927, -0.0167849
-0.9770508, 0.1704102, -0.2587891, -14.2073174, -7.8658538, 1.4634147, -0.0292058
-0.9868164, 0.1748047, -0.2519531, -13.9634151, -7.7439027, 1.402439, -0.0258488
-0.9882812, 0.184082, -0.246582, -14.6951227, -7.6829271, 1.402439, -0.0198062
-0.9824219, 0.1904297, -0.237793, -14.2073174, -7.8048782, 2.0121951, -0.027863
-0.9765625, 0.1762695, -0.2392578, -14.3902445, -7.7439027, 2.0731707, -0.0292058
-0.965332, 0.1669922, -0.2397461, -14.5731707, -7.4390244, 1.7682927, -0.0305486
-0.9624023, 0.1572266, -0.2407227, -14.2682934, -7.4390244, 1.6463414, -0.0271916
-0.9643555, 0.1601562, -0.2441406, -13.780488, -6.890244, 1.1585366, -0.0339055
-0.9731445, 0.1645508, -0.2524414, -13.4756098, -6.7682929, 1.1585366, -0.0412909
-0.9897461, 0.1791992, -0.2612305, -13.2317076, -6.5853658, 0.7926829, -0.0419623
-0.9956055, 0.184082, -0.2592773, -13.5975609, -6.6463418, 0.9756098, -0.0453193
-0.9931641, 0.1806641, -0.2519531, -14.5121956, -6.5243902, 1.2804878, -0.0463264
-0.9882812, 0.1762695, -0.2485352, -14.7560978, -6.6463418, 1.4634147, -0.056733
-0.9765625, 0.1767578, -0.2470703, -15.1829271, -6.5853658, 1.3414634, -0.0513619
-0.9702148, 0.1743164, -0.2539062, -15.3048782, -6.7682929, 1.2804878, -0.0500191
-0.9682617, 0.1777344, -0.2573242, -14.9390249, -6.7682929, 1.0365853, -0.0547189
-0.9702148, 0.1723633, -0.2587891, -14.8170738, -7.1341467, 0.9146342, -0.042298
-0.9799805, 0.1586914, -0.2617188, -14.8780489, -7.5609756, 0.9146342, -0.0275273
-0.9804688, 0.1484375, -0.2587891, -14.6341467, -7.8048782, 1.1585366, -0.0339055
-0.9838867, 0.1401367, -0.2568359, -14.6951227, -7.8048782, 1.4634147, -0.0527047
-0.9863281, 0.1474609, -0.2563477, -14.2682934, -7.5, 1.5243902, -0.0594186
-0.9833984, 0.152832, -0.2695312, -14.2073174, -7.3170733, 1.7073171, -0.0486763
-0.9819336, 0.1650391, -0.2700195, -13.9634151, -7.3170733, 2.3780489, -0.0433051
-0.9760742, 0.1708984, -0.269043, -14.0853662, -7.6219516, 2.6219513, -0.0386053
-0.9677734, 0.1767578, -0.2617188, -14.4512196, -8.4756098, 2.6219513, -0.0288701
-0.9638672, 0.1728516, -0.2548828, -14.3292685, -9.0853662, 1.9512196, -0.0275273
-0.9711914, 0.1679688, -0.2524414, -14.5121956, -9.2073174, 1.9512196, -0.0231632
-0.9780273, 0.1704102, -0.2553711, -14.3292685, -9.3902445, 1.5853659, -0.0218204
-0.9882812, 0.1782227, -0.2641602, -14.2682934, -9.3292685, 1.8292683, -0.0255131
-0.9887695, 0.1757812, -0.2685547, -14.4512196, -9.3902445, 2.2560976, -0.0345769
-0.984375, 0.1748047, -0.2651367, -14.6341467, -9.6951218, 2.3170731, -0.0406195
-0.980957, 0.1679688, -0.2641602, -15.1829271, -9.9390249, 2.195122, -0.0513619
-0.9750977, 0.1625977, -0.2612305, -15.1219511, -9.5731707, 2.3780489, -0.0527047
-0.96875, 0.1567383, -0.2509766, -15.3658543, -9.3902445, 2.804878, -0.0516976
-0.9609375, 0.1572266, -0.2470703, -15.3048782, -9.3292685, 2.8658538, -0.0520333
-0.956543, 0.1708984, -0.2446289, -14.9390249, -8.841464, 2.6219513, -0.0553902
-0.9580078, 0.1801758, -0.2485352, -15.1219511, -8.4756098, 2.195122, -0.0647898
-0.9619141, 0.1870117, -0.2597656, -15.4268293, -8.4756098, 2.3780489, -0.0688182
-0.9633789, 0.1875, -0.2592773, -15.2439032, -9.0243902, 2.0731707, -0.0798962
-0.9741211, 0.1743164, -0.262207, -15.3658543, -9.5731707, 1.8292683, -0.0762036
-0.9702148, 0.1645508, -0.2592773, -15.3048782, -9.6951218, 2.2560976, -0.0775463
-0.9667969, 0.1391602, -0.2553711, -15.4268293, -9.5731707, 2.0731707, -0.0835889
-0.9750977, 0.1367188, -0.2573242, -15, -9.3292685, 2.0731707, -0.0849317
-0.9799805, 0.1425781, -0.2578125, -14.8780489, -9.0243902, 2.195122, -0.0822461
-0.984375, 0.1635742, -0.2612305, -15.060976, -8.719512, 2.7439024, -0.0862745
-0.9853516, 0.1704102, -0.2563477, -15.3658543, -8.719512, 3.1707318, -0.0798962
-0.9755859, 0.1806641, -0.2504883, -15.8536587, -8.841464, 3.3536587, -0.0785534
-0.9707031, 0.1816406, -0.2446289, -16.0365849, -8.841464, 3.3536587, -0.0798962
-0.9580078, 0.171875, -0.2392578, -16.4024391, -8.5975609, 3.3536587, -0.0795605
-0.9584961, 0.1699219, -0.2353516, -16.0975609, -8.6585369, 2.804878, -0.0688182
-0.9609375, 0.175293, -0.230957, -15.9146347, -8.4756098, 2.3780489, -0.063447
-0.9609375, 0.1835938, -0.230957, -15.6707325, -8.1097565, 2.7439024, -0.0621042
-0.9550781, 0.175293, -0.2304688, -15.9756098, -7.7439027, 2.5609756, -0.0513619
-0.9599609, 0.1743164, -0.2363281, -16.5853653, -7.2560978, 1.9512196, -0.0459907
-0.9614258, 0.1806641, -0.2456055, -16.8902435, -6.9512196, 1.9512196, -0.0399481
-0.9604492, 0.1977539, -0.2607422, -16.5243912, -6.0975609, 2.0731707, -0.0365911
-0.9584961, 0.2041016, -0.2680664, -16.7682934, -6.1585369, 2.3170731, -0.0359197
-0.9609375, 0.2104492, -0.2705078, -17.5, -6.8292685, 2.0731707, -0.0406195
-0.9643555, 0.2045898, -0.2680664, -18.2317085, -7.7439027, 1.3414634, -0.0345769
-0.9648438, 0.1845703, -0.2661133, -18.2926826, -8.0487804, 1.0365853, -0.0305486
-0.96875, 0.1728516, -0.2680664, -17.7439022, -8.3536587, 0.5487805, -0.0305486
-0.9726562, 0.1577148, -0.2705078, -17.3780499, -8.719512, 0.6097561, -0.0372625
-0.9775391, 0.1586914, -0.2661133, -16.8292694, -9.0243902, 0.6097561, -0.0527047
-0.9897461, 0.1557617, -0.2553711, -17.0731716, -9.0243902, 0.6707317, -0.0654612
-0.9814453, 0.1484375, -0.2451172, -16.8902435, -8.9634151, 1.2195122, -0.0788891
-0.980957, 0.1503906, -0.2490234, -16.8292694, -8.2926826, 1.1585366, -0.0842603
-0.9692383, 0.1567383, -0.2495117, -16.5243912, -8.1097565, 1.8292683, -0.0708324
-0.96875, 0.1611328, -0.2509766, -16.0975609, -7.6829271, 2.2560976, -0.0607614
-0.965332, 0.1704102, -0.2553711, -15.6097565, -7.8658538, 2.6829269, -0.0513619
-0.9614258, 0.1660156, -0.2617188, -15.4268293, -8.3536587, 2.4390244, -0.0416266
-0.9609375, 0.1479492, -0.2612305, -15.4878054, -8.719512, 2.6829269, -0.0369268
-0.9638672, 0.1401367, -0.2568359, -15.3048782, -9.0243902, 2.5609756, -0.0251774
-0.9711914, 0.1464844, -0.2578125, -15.060976, -8.841464, 2.5, -0.0043641
-0.9765625, 0.1582031, -0.2636719, -14.3902445, -8.5365858, 2.7439024, 0.017792
-0.9833984, 0.1772461, -0.2724609, -14.3292685, -8.4146347, 2.9268293, 0.0292058
-0.9814453, 0.1777344, -0.2685547, -15.060976, -8.9634151, 3.2926829, 0.0480049
-0.980957, 0.1762695, -0.2626953, -15.3658543, -9.2073174, 3.1707318, 0.0553902
-0.965332, 0.1713867, -0.2548828, -15.2439032, -9.3902445, 3.0487804, 0.0446479
-0.9682617, 0.168457, -0.2553711, -15.3658543, -9.6341467, 3.1097562, 0.0339055
-0.972168, 0.1757812, -0.2553711, -15.2439032, -9.3292685, 3.0487804, 0.0261845
-0.9726562, 0.1708984, -0.2509766, -15.4268293, -9.8170738, 2.9268293, 0.0077211
-0.9741211, 0.1621094, -0.25, -15.3658543, -9.8780489, 3.1097562, -0.0083925
-0.972168, 0.1582031, -0.2524414, -15.7926836, -9.6341467, 3.0487804, -0.0258488
-0.9731445, 0.1630859, -0.2495117, -16.0365849, -9.5731707, 2.9878049, -0.0409552
-0.9790039, 0.1694336, -0.2524414, -16.2195129, -9.0243902, 3.2926829, -0.0486763
-0.987793, 0.1860352, -0.253418, -15.9146347, -8.780488, 3.1097562, -0.0520333
-0.9824219, 0.2026367, -0.2485352, -16.4634151, -8.4146347, 3.2317073, -0.0597543
-0.980957, 0.1987305, -0.2446289, -16.7073174, -8.780488, 3.5975611, -0.0621042
-0.9682617, 0.1806641, -0.2421875, -17.1951218, -9.0243902, 3.0487804, -0.0594186
-0.965332, 0.1728516, -0.2421875, -17.0731716, -8.841464, 2.7439024, -0.0641184
-0.9726562, 0.1630859, -0.2485352, -16.8902435, -8.2926826, 2.4390244, -0.0661326
-0.9741211, 0.1655273, -0.2529297, -16.4024391, -7.8048782, 2.195122, -0.0560616
-0.9868164, 0.1699219, -0.2568359, -16.280489, -7.9268293, 2.3170731, -0.0513619
-0.9897461, 0.1713867, -0.2548828, -16.8292694, -7.8048782, 2.2560976, -0.0506905
-0.9912109, 0.1733398, -0.2460938, -17.3170738, -7.3780489, 2.5, -0.0466621
-0.9873047, 0.171875, -0.2495117, -17.560976, -7.3170733, 2.5609756, -0.0399481
-0.9799805, 0.1777344, -0.2460938, -17.3170738, -7.0121951, 2.7439024, -0.0365911
-0.9731445, 0.184082, -0.2421875, -17.2560978, -6.890244, 2.5, -0.0345769
-0.9711914, 0.1826172, -0.2412109, -16.8292694, -7.0731707, 2.0731707, -0.0298772
-0.9716797, 0.1738281, -0.2373047, -16.0365849, -7.2560978, 2.1341465, -0.0288701
-0.9707031, 0.1694336, -0.234375, -16.0365849, -7.3170733, 1.8902439, -0.0298772
-0.9736328, 0.1582031, -0.237793, -15.8536587, -6.8292685, 1.4634147, -0.0302129
-0.9829102, 0.15625, -0.2412109, -15.6707325, -6.0975609, 1.7682927, -0.0342412
-0.9956055, 0.1625977, -0.2495117, -15.4878054, -5.7317076, 1.8292683, -0.0342412
-0.9960938, 0.171875, -0.2504883, -15.3658543, -5.4268293, 2.0731707, -0.0271916
-0.996582, 0.1787109, -0.2519531, -15.6707325, -5.4268293, 2.3780489, -0.0218204
-0.9892578, 0.1704102, -0.2504883, -15.8536587, -5.4268293, 2.5609756, -0.0231632
-0.9785156, 0.1645508, -0.2504883, -15.8536587, -5.3658538, 2.6219513, -0.017792
-0.9760742, 0.1518555, -0.2553711, -15.1219511, -5.4268293, 2.7439024, -0.0181277
-0.9726562, 0.1479492, -0.2543945, -14.5731707, -5.3658538, 2.6219513, -0.0151064
-0.9794922, 0.1494141, -0.2519531, -14.3902445, -5.670732, 2.6219513, -0.0104067
-0.9819336, 0.1455078, -0.2558594, -14.3902445, -5.9756098, 2.804878, -0.0124208
-0.9833984, 0.1503906, -0.2607422, -14.5731707, -5.8536587, 3.5365853, -0.0204776
-0.984375, 0.1577148, -0.2626953, -14.6951227, -6.0365853, 3.4756098, -0.0224918
-0.9882812, 0.1645508, -0.2641602, -14.8170738, -6.0365853, 3.7195122, -0.0271916
-0.9897461, 0.1708984, -0.2636719, -14.5121956, -6.5853658, 4.0243902, -0.0365911
-0.980957, 0.1791992, -0.2563477, -14.6341467, -6.890244, 4.0243902, -0.0419623
-0.9785156, 0.1791992, -0.2485352, -15.3048782, -7.1951222, 3.7804878, -0.0453193
-0.9804688, 0.1762695, -0.2460938, -15.4268293, -7.4390244, 3.5975611, -0.0500191
-0.987793, 0.1728516, -0.25, -15.8536587, -7.1341467, 3.7195122, -0.06009
-0.9848633, 0.1738281, -0.2504883, -16.0975609, -6.890244, 3.8414636, -0.0678111
-0.9829102, 0.1777344, -0.2602539, -16.3414631, -6.9512196, 3.7804878, -0.0795605
-0.9887695, 0.1757812, -0.2626953, -16.3414631, -6.9512196, 3.7195122, -0.0741894
-0.984375, 0.1801758, -0.2666016, -16.2195129, -7.1341467, 3.5365853, -0.0762036
-0.9907227, 0.1801758, -0.2666016, -16.0975609, -7.6829271, 3.0487804, -0.0715038
-0.9907227, 0.1777344, -0.2670898, -16.0365849, -8.1097565, 3.2317073, -0.0688182
-0.9951172, 0.1767578, -0.262207, -16.280489, -8.5975609, 3.1097562, -0.0647898
-0.9916992, 0.1616211, -0.2543945, -16.280489, -9.0853662, 3.2926829, -0.0610971
-0.987793, 0.1513672, -0.2456055, -16.0365849, -9.0243902, 2.7439024, -0.0607614
-0.987793, 0.1499023, -0.2412109, -15.6707325, -8.6585369, 2.9878049, -0.0607614
-0.980957, 0.1542969, -0.2509766, -15.060976, -8.4146347, 2.9268293, -0.0560616
-0.9790039, 0.1572266, -0.2553711, -14.7560978, -8.5365858, 2.7439024, -0.0506905
-0.9794922, 0.1577148, -0.2553711, -14.5731707, -8.9024391, 3.4756098, -0.0560616
-0.9765625, 0.1552734, -0.2519531, -13.841464, -9.3902445, 3.7804878, -0.0466621
-0.9755859, 0.1469727, -0.237793, -13.9024391, -9.2682924, 3.7195122, -0.0406195
-0.9755859, 0.1479492, -0.237793, -13.5365858, -8.9634151, 3.6585367, -0.0433051
-0.9741211, 0.1474609, -0.2368164, -13.2317076, -9.0243902, 3.5975611, -0.042298
-0.9746094, 0.152832, -0.2402344, -12.8048782, -8.1707315, 3.6585367, -0.0379339
-0.9726562, 0.1606445, -0.2412109, -12.560976, -7.8048782, 4.0853658, -0.0325628
-0.9658203, 0.1665039, -0.2363281, -12.3780489, -7.3170733, 4.2682929, -0.0302129
-0.9658203, 0.1655273, -0.2314453, -12.4390249, -7.1951222, 4.4512196, -0.0261845
-0.953125, 0.1645508, -0.2236328, -12.3780489, -7.1341467, 4.4512196, -0.0265202
-0.9516602, 0.1635742, -0.2216797, -12.4390249, -6.8292685, 4.4512196, -0.0285344
-0.9482422, 0.168457, -0.2089844, -12.6219511, -6.0365853, 4.2682929, -0.0325628
-0.9536133, 0.1674805, -0.2070312, -12.8658543, -5.1219511, 3.8414636, -0.0305486
-0.953125, 0.1728516, -0.2075195, -12.9268293, -4.6951222, 3.7195122, -0.0339055
-0.9541016, 0.1708984, -0.2163086, -12.8658543, -3.4756098, 3.6585367, -0.03122
-0.9584961, 0.1796875, -0.230957, -13.0487804, -3.3536587, 3.5975611, -0.0392767
-0.9614258, 0.1806641, -0.2446289, -12.2560978, -3.1707318, 3.5975611, -0.0527047
-0.9667969, 0.171875, -0.2548828, -12.3170738, -3.2926829, 3.8414636, -0.0537118
-0.9702148, 0.15625, -0.2583008, -12.3780489, -3.4756098, 3.8414636, -0.0527047
-0.9731445, 0.1489258, -0.2558594, -12.6219511, -3.8414636, 3.3536587, -0.0540475
-0.9794922, 0.1552734, -0.253418, -13.0487804, -3.4756098, 3.2317073, -0.0520333
-0.9858398, 0.1601562, -0.2543945, -12.9878054, -3.3536587, 3.3536587, -0.0486763
-0.9868164, 0.1728516, -0.2631836, -12.6219511, -3.2926829, 3.6585367, -0.0540475
-0.9833984, 0.1723633, -0.2666016, -12.3170738, -3.7195122, 3.7195122, -0.0506905
-0.9741211, 0.1616211, -0.2739258, -12.2560978, -3.8414636, 3.7804878, -0.0580758
-0.9731445, 0.1523438, -0.2739258, -12.0121956, -4.5731707, 4.0243902, -0.0674754
-0.9692383, 0.1430664, -0.2744141, -11.5853662, -4.5121951, 3.7804878, -0.0614328
-0.9707031, 0.1455078, -0.2817383, -10.3048782, -5.3048782, 3.1707318, -0.063447
-0.9790039, 0.1499023, -0.2963867, -9.8170738, -5.4268293, 3.2317073, -0.0674754
-0.9755859, 0.1552734, -0.2949219, -9.8780489, -6.2195125, 3.4756098, -0.0661326
-0.9750977, 0.1518555, -0.2905273, -9.6341467, -6.8292685, 3.6585367, -0.0647898
-0.9731445, 0.1542969, -0.2915039, -9.1463413, -7.5609756, 3.9024391, -0.0627756
-0.9697266, 0.1591797, -0.2827148, -8.5365858, -7.7439027, 3.5975611, -0.0647898
-0.9697266, 0.1601562, -0.2719727, -7.6829271, -8.0487804, 3.7804878, -0.0614328
-0.9697266, 0.15625, -0.2685547, -6.7682929, -8.2317076, 3.7195122, -0.0587472
-0.9628906, 0.15625, -0.262207, -6.9512196, -8.2317076, 3.5975611, -0.0614328
-0.9604492, 0.1464844, -0.262207, -6.280488, -7.6219516, 3.8414636, -0.0607614
-0.956543, 0.1430664, -0.2675781, -6.280488, -7.1951222, 3.6585367, -0.063447
-0.9594727, 0.1367188, -0.2670898, -5.1219511, -6.7073174, 4.0853658, -0.0755322
-0.9580078, 0.1396484, -0.2612305, -4.7560978, -6.5243902, 4.2682929, -0.0694896
-0.9511719, 0.1416016, -0.230957, -4.2073174, -5.8536587, 4.0853658, -0.0641184
-0.9467773, 0.1474609, -0.2172852, -3.9024391, -5.1829271, 4.0853658, -0.0587472
-0.9438477, 0.1679688, -0.1958008, -3.6585367, -3.0487804, 4.0243902, -0.0607614
-0.9399414, 0.1875, -0.1948242, -3.1707318, -1.8902439, 4.0243902, -0.063447
-0.9394531, 0.2158203, -0.1953125, -2.804878, 0.9756098, 4.1463413, -0.0661326
-0.9335938, 0.2231445, -0.2001953, -2.6829269, 2.9878049, 3.8414636, -0.0654612
-0.9277344, 0.2270508, -0.2182617, -2.9268293, 3.6585367, 3.5365853, -0.0574044
-0.9301758, 0.21875, -0.2314453, -2.9878049, 4.8780489, 2.6219513, -0.0520333
-0.9433594, 0.2006836, -0.2509766, -2.6829269, 5.4268293, 2.3170731, -0.0510262
-0.949707, 0.1982422, -0.2636719, -2.195122, 5.7926831, 1.9512196, -0.0453193
-0.9711914, 0.1918945, -0.2788086, -2.2560976, 6.6463418, 1.6463414, -0.0352483
-0.9907227, 0.1855469, -0.2817383, -2.5609756, 7.0121951, 1.4634147, -0.0302129
-1.0019531, 0.1870117, -0.2792969, -2.9268293, 7.2560978, 1.1585366, -0.024506
-1.0029297, 0.1914062, -0.2832031, -2.8658538, 7.5, 1.2195122, -0.0184634
-1.0024414, 0.1875, -0.2861328, -2.8658538, 7.9268293, 1.5853659, -0.0298772
-0.9873047, 0.1767578, -0.3076172, -2.3170731, 8.2926826, 2.0731707, -0.0305486
-0.9819336, 0.1601562, -0.3227539, -0.4268293, 7.2560978, 2.4390244, -0.0325628
-0.9804688, 0.1264648, -0.3613281, 1.1585366, 6.5243902, 2.6829269, -0.0365911
-0.9799805, 0.1079102, -0.3779297, 3.8414636, 3.4756098, 3.3536587, -0.0298772
-0.9960938, 0.0742188, -0.4003906, 4.9390244, 2.3170731, 3.7804878, -0.0137636
-1.0068359, 0.0717773, -0.3989258, 6.9512196, 0.6707317, 3.7804878, -0.0043641
-1.0400391, 0.1025391, -0.3725586, 7.5, 0, 3.7804878, -0.0057069
-1.0566406, 0.1557617, -0.3540039, 8.2926826, -0.6097561, 4.9390244, -0.0030213
-1.0537109, 0.1821289, -0.3535156, 8.5365858, -1.402439, 5.5487804, -0.0043641
-1.0205078, 0.21875, -0.3540039, 8.6585369, -2.5, 7.0731707, -0.0030213
-1.0048828, 0.2231445, -0.3579102, 8.9024391, -3.4756098, 7.5609756, -0.0097353
-0.9658203, 0.1962891, -0.3706055, 9.7560978, -6.0975609, 7.7439027, -0.0097353
-0.953125, 0.1772461, -0.3833008, 11.5243902, -9.4512196, 7.0731707, -0.011078
-0.9477539, 0.137207, -0.4008789, 12.560976, -10.6707315, 6.6463418, -0.0181277
-0.9619141, 0.128418, -0.3945312, 12.7439032, -12.6219511, 5.7317076, -0.0221561
-0.9970703, 0.1240234, -0.359375, 12.7439032, -13.2317076, 5.3658538, -0.0271916
-1.0136719, 0.1328125, -0.3378906, 12.560976, -13.0487804, 5.4268293, -0.024506
-1.0126953, 0.1606445, -0.2915039, 12.6829271, -11.9512196, 5.5487804, -0.0234989
-0.9926758, 0.1899414, -0.2797852, 14.2682934, -9.5731707, 5.7926831, -0.0339055
-0.9775391, 0.2036133, -0.2880859, 15.1219511, -8.2926826, 5.9756098, -0.0386053
-0.949707, 0.2119141, -0.3183594, 16.5243912, -6.8292685, 6.280488, -0.0379339
-0.9443359, 0.2021484, -0.3320312, 17.439024, -6.4634147, 6.4024391, -0.0369268
-0.9394531, 0.1689453, -0.3310547, 18.2926826, -5.7926831, 6.5853658, -0.0406195
-0.9448242, 0.140625, -0.3134766, 18.4146347, -4.3292685, 6.0975609, -0.0466621
-0.9624023, 0.1137695, -0.2578125, 18.6585369, -2.9878049, 5.5487804, -0.0486763
-0.9697266, 0.1181641, -0.2353516, 18.7195129, 1.8902439, 4.8780489, -0.0473335
-0.9814453, 0.1713867, -0.2299805, 18.9024391, 5.1219511, 4.7560978, -0.0530404
-0.980957, 0.2045898, -0.2446289, 19.0243912, 11.280488, 4.9390244, -0.0547189
-0.9702148, 0.2578125, -0.296875, 19.2073174, 13.2926836, 5.3048782, -0.0580758
-0.9492188, 0.277832, -0.3374023, 18.5365849, 15.9146347, 5.8536587, -0.0513619
-0.9414062, 0.2661133, -0.3481445, 18.1097565, 15.5487804, 6.4024391, -0.0540475
-0.9277344, 0.2143555, -0.3647461, 18.2926826, 15.3658543, 6.5243902, -0.0553902
-0.9296875, 0.1826172, -0.3720703, 18.6585369, 15.5487804, 5.9146342, -0.0449836
-0.9628906, 0.125, -0.3769531, 19.7560978, 16.5853653, 4.390244, -0.0419623
-0.9799805, 0.1166992, -0.3764648, 19.8170738, 17.9268303, 4.1463413, -0.0439765
-1.0063477, 0.1313477, -0.3735352, 19.6341476, 19.6951218, 3.9024391, -0.0419623
-1.0224609, 0.1538086, -0.3793945, 19.0853672, 22.9878063, 4.4512196, -0.0379339
-1.0307617, 0.2158203, -0.3916016, 18.8414631, 24.4512196, 5.1219511, -0.0379339
-1.027832, 0.2382812, -0.4033203, 18.2317085, 26.280489, 6.5243902, -0.0339055
-1.0073242, 0.2578125, -0.4321289, 17.5, 26.5853672, 6.9512196, -0.03122
-0.9946289, 0.2319336, -0.4501953, 17.2560978, 26.5243912, 6.8292685, -0.0339055
-0.9946289, 0.2099609, -0.453125, 17.3780499, 26.280489, 6.890244, -0.0332341
-0.9985352, 0.1645508, -0.4350586, 18.2926826, 25.6707325, 6.0975609, -0.0369268
-1.0107422, 0.1572266, -0.4160156, 18.780489, 25.7926826, 5.7926831, -0.0298772
-1.0288086, 0.1479492, -0.3920898, 21.1585369, 27.1951218, 5, -0.0325628
-1.0327148, 0.1533203, -0.3945312, 23.780489, 29.6341476, 5.1829271, -0.027863
-1.0302734, 0.1777344, -0.4130859, 24.4512196, 31.280489, 5.2439027, -0.0318914
-1.027832, 0.1928711, -0.4189453, 25.1219521, 34.6951218, 6.2195125, -0.0453193
-1.0253906, 0.2290039, -0.4375, 25.3048782, 36.4634171, 6.2195125, -0.0540475
-1.0253906, 0.2504883, -0.4472656, 25.1829281, 38.7195129, 6.4024391, -0.0594186
-1.0175781, 0.277832, -0.4697266, 25.1829281, 39.1463432, 6.4024391, -0.0647898
-1.0151367, 0.2763672, -0.472168, 24.2073174, 39.2682953, 5.3048782, -0.0688182
-1.0180664, 0.2666016, -0.4594727, 23.4756107, 39.3292694, 5.0609756, -0.0842603
-1.0170898, 0.2387695, -0.4326172, 22.9878063, 39.9390259, 4.1463413, -0.0856031
-1.0112305, 0.2241211, -0.4238281, 22.9878063, 40.3658562, 3.7195122, -0.0782177
-0.9980469, 0.2006836, -0.4384766, 23.9024391, 42.3780479, 3.1097562, -0.0607614
-0.9882812, 0.1884766, -0.4477539, 24.2073174, 44.8170738, 2.6219513, -0.0325628
-0.9848633, 0.1835938, -0.4584961, 24.0853672, 45.9756126, 2.4390244, -0.0198062
-0.9863281, 0.1894531, -0.4658203, 24.2682934, 48.4146347, 2.3170731, -0.0063783
-0.9912109, 0.199707, -0.4741211, 24.6341476, 49.2073174, 2.5, -0.0070497
-0.9941406, 0.2011719, -0.4848633, 25.3048782, 50, 2.5609756, -0.003357
-1.0097656, 0.1962891, -0.5102539, 25.6707325, 50, 2.1341465, 0.0070497
-1.0185547, 0.1831055, -0.5205078, 25.6097565, 50.0609779, 1.7073171, 0.0063783
-1.0322266, 0.175293, -0.5185547, 25.7317085, 49.8170738, 2.0121951, -0.0043641
-1.0429688, 0.1704102, -0.5014648, 25.5487804, 49.8170738, 2.804878, -0.0124208
-1.043457, 0.1650391, -0.4990234, 25.7317085, 50.3048782, 2.804878, -0.011078
-1.0400391, 0.1630859, -0.5043945, 26.0365868, 52.1951218, 3.6585367, -0.0057069
-1.0400391, 0.1582031, -0.5068359, 26.7682934, 53.4756126, 5.4268293, 0.0050355
-1.0244141, 0.1469727, -0.5097656, 27.8048782, 53.9024391, 6.5243902, 0.0127565
-1.012207, 0.1411133, -0.5195312, 30.2439022, 54.5121956, 7.9268293, 0.0130922
-0.9897461, 0.1210938, -0.5322266, 31.280489, 54.8780518, 8.5365858, 0.0023499
-0.9848633, 0.1181641, -0.534668, 32.6219521, 55.2439041, 9.4512196, -0.0003357
-0.9921875, 0.1191406, -0.5356445, 33.1707306, 56.0365868, 9.6951218, -0.0090639
-0.9990234, 0.1469727, -0.5253906, 33.5365868, 57.7439041, 9.8170738, -0.0057069
-1.0039062, 0.1611328, -0.5273438, 33.841465, 58.6585388, 10, -0.0224918
-1.0048828, 0.2006836, -0.5351562, 33.5975609, 60.4878044, 11.1585369, -0.0275273
-0.9931641, 0.2216797, -0.5410156, 33.4756088, 61.1585388, 11.8902445, -0.0406195
-0.9790039, 0.2416992, -0.546875, 32.1341476, 62.9878082, 12.5, -0.0533761
-0.9663086, 0.2363281, -0.5493164, 31.280489, 63.9634171, 12.3170738, -0.0621042
-0.9599609, 0.2119141, -0.5498047, 31.341465, 64.2682953, 12.0121956, -0.0594186
-0.9594727, 0.2011719, -0.5498047, 32.3780479, 65.3048782, 11.4024391, -0.0607614
-0.9643555, 0.1826172, -0.5405273, 33.1097565, 66.1585388, 10.7926836, -0.0647898
-0.9902344, 0.1650391, -0.5366211, 33.9024391, 68.4146347, 10.1219511, -0.0647898
-0.9916992, 0.1708984, -0.5375977, 34.0853653, 69.8170776, 9.9390249, -0.0755322
-1.0009766, 0.1982422, -0.5512695, 34.2073174, 73.1097565, 10.060976, -0.0721752
-1, 0.2128906, -0.5625, 33.9024391, 75, 10.060976, -0.0755322
-0.9975586, 0.2475586, -0.5859375, 33.2317085, 78.5365906, 10.4268293, -0.0849317
-0.9892578, 0.2514648, -0.5922852, 32.6219521, 79.9390259, 10.4878054, -0.0903029
-0.9633789, 0.2446289, -0.6025391, 31.280489, 81.646347, 10.6097565, -0.0976883
-0.9526367, 0.2333984, -0.6000977, 30.7926846, 82.8658524, 10.3658543, -0.0929885
-0.9355469, 0.190918, -0.597168, 31.0975609, 83.5975647, 10.3048782, -0.0976883
-0.9267578, 0.1723633, -0.5922852, 31.7073174, 85.18293, 9.9390249, -0.0943313
-0.9326172, 0.1450195, -0.6079102, 32.4390259, 86.2804871, 9.5121956, -0.0963455
-0.953125, 0.1538086, -0.6235352, 33.3536606, 88.7195129, 8.9024391, -0.0909743
-0.9672852, 0.1625977, -0.625, 33.1707306, 90.2439041, 8.5365858, -0.0835889
-0.9838867, 0.2050781, -0.6201172, 32.0731697, 92.9878082, 8.9634151, -0.0809033
-0.9833984, 0.2246094, -0.6191406, 31.341465, 94.6341476, 9.0853662, -0.0809033
-0.9682617, 0.2436523, -0.6499023, 30.2439022, 96.8902435, 9.6341467, -0.0745251
-0.9555664, 0.2363281, -0.6665039, 29.2073174, 99.0853653, 10.060976, -0.0681468
-0.9384766, 0.2055664, -0.7114258, 28.5975609, 99.5121994, 9.8170738, -0.0674754
-0.9394531, 0.1831055, -0.7329102, 28.780489, 99.0243912, 9.6951218, -0.066804
-0.9575195, 0.1445312, -0.7441406, 29.2073174, 98.9634171, 9.2682924, -0.063447
-0.9736328, 0.1337891, -0.7363281, 28.7195129, 98.7195129, 8.841464, -0.056733
-1.0068359, 0.1416016, -0.6962891, 28.0487804, 99.0853653, 9.1463413, -0.0614328
-1.0097656, 0.1811523, -0.6640625, 26.7073174, 101.9512253, 9.8170738, -0.0513619
-0.9946289, 0.2021484, -0.6674805, 26.4634151, 103.6585388, 10.6707315, -0.0540475
-0.9467773, 0.2197266, -0.6928711, 25.9146347, 106.5243912, 12.6219511, -0.0621042
-0.9165039, 0.2158203, -0.7128906, 25.5487804, 107.3780518, 13.1097565, -0.0647898
-0.8818359, 0.184082, -0.7441406, 24.7560978, 107.9878082, 12.6829271, -0.0574044
-0.8808594, 0.1708984, -0.7436523, 25.1219521, 108.2317123, 10.9756098, -0.0553902
-0.9145508, 0.1601562, -0.7382812, 25.1829281, 108.9634171, 10.1829271, -0.0473335
-0.9414062, 0.1621094, -0.7265625, 27.8048782, 110.18293, 9.2682924, -0.0480049
-0.9741211, 0.1420898, -0.7250977, 29.6951218, 110.36586, 9.7560978, -0.0359197
-0.972168, 0.1201172, -0.7348633, 31.5853672, 111.0975647, 10.2439022, -0.024506
-0.9609375, 0.081543, -0.7480469, 31.4024391, 112.1341476, 10.4268293, -0.0218204
-0.9633789, 0.1010742, -0.7421875, 30.8536587, 114.8170776, 11.6463413, -0.021149
-0.9584961, 0.1274414, -0.7353516, 30.7317085, 116.5243912, 12.8048782, -0.0167849
-0.9389648, 0.190918, -0.75, 30.4268303, 120.18293, 14.2682934, -0.0137636
-0.9321289, 0.2163086, -0.7612305, 29.8170738, 121.5243912, 14.4512196, -0.0151064
-0.9067383, 0.2382812, -0.7856445, 27.7439022, 122.4390259, 13.5975609, -0.0157778
-0.8925781, 0.2250977, -0.8066406, 27.8048782, 122.1951218, 13.0487804, -0.0090639
-0.8828125, 0.1630859, -0.8530273, 28.0487804, 121.3414688, 12.3780489, -0.0164492
-0.8930664, 0.128418, -0.8710938, 30.1829281, 119.2073212, 10.7926836, -0.0164492
-0.9360352, 0.0737305, -0.8637695, 31.0365868, 118.2317123, 10.3658543, -0.0083925
-0.9658203, 0.0727539, -0.8461914, 30.8536587, 118.1097565, 10.1219511, -0.0090639
-1.0107422, 0.1323242, -0.8085938, 30.4268303, 119.2073212, 10.4878054, -0.011078
-0.9990234, 0.2124023, -0.7983398, 28.3536587, 122.5609818, 13.2317076, -0.0063783
-0.9697266, 0.2392578, -0.7978516, 26.9512196, 124.0243912, 14.6951227, -0.0070497
-0.8823242, 0.2329102, -0.8041992, 23.6585369, 125.4268341, 16.7073174, -0.0124208
-0.8349609, 0.2050781, -0.8134766, 22.7439022, 125.4268341, 16.4634151, -0.0137636
-0.7734375, 0.121582, -0.8286133, 22.8658543, 125.3048782, 14.9390249, -0.0224918
-0.7700195, 0.0957031, -0.8349609, 24.7560978, 125.8536606, 12.1951218, -0.0157778
-0.8251953, 0.097168, -0.8266602, 25.9146347, 126.2804871, 10.9756098, -0.0305486
-0.8632812, 0.1220703, -0.8305664, 27.1951218, 127.9268341, 9.7560978, -0.0540475
-0.9335938, 0.1762695, -0.8540039, 27.0731716, 128.8414612, 10, -0.0661326
-0.9443359, 0.1928711, -0.8647461, 24.9390259, 130.1829224, 11.0975609, -0.0688182
-0.921875, 0.1918945, -0.8740234, 23.2317085, 130.36586, 11.7682934, -0.0607614
-0.8754883, 0.15625, -0.8823242, 20.9756107, 130.5487823, 12.8658543, -0.0547189
-0.8496094, 0.1420898, -0.8803711, 20.3048782, 130.9146423, 12.8658543, -0.0436408
-0.8168945, 0.1303711, -0.8666992, 19.939024, 132.0121918, 13.1707315, -0.0352483
-0.8100586, 0.1279297, -0.8608398, 20, 132.4390259, 12.7439032, -0.0271916
-0.8129883, 0.1289062, -0.8554688, 20.1829281, 133.8414612, 10.9756098, -0.0198062
-0.8173828, 0.1450195, -0.8491211, 19.6341476, 135.7317047, 9.6341467, -0.0258488
-0.828125, 0.1699219, -0.8623047, 18.9634151, 136.5243988, 9.5121956, -0.0251774
-0.8261719, 0.1831055, -0.8759766, 17.6829281, 138.2926788, 9.4512196, -0.0285344
-0.8061523, 0.1728516, -0.9199219, 17.6219521, 138.7804871, 9.4512196, -0.0339055
-0.800293, 0.1606445, -0.9394531, 17.3170738, 138.7195129, 8.2317076, -0.0352483
-0.8066406, 0.137207, -0.9619141, 17.3170738, 138.1097565, 7.5609756, -0.0372625
-0.8359375, 0.1274414, -0.9589844, 16.6463413, 137.7439117, 6.890244, -0.0446479
-0.8520508, 0.1254883, -0.9443359, 16.0365849, 137.5, 6.890244, -0.0459907
-0.8535156, 0.1181641, -0.9013672, 14.6341467, 137.4390259, 6.9512196, -0.0527047
-0.840332, 0.1230469, -0.8828125, 14.3292685, 137.0731812, 7.2560978, -0.0641184
-0.7949219, 0.1196289, -0.8803711, 14.0243902, 138.2926788, 7.1951222, -0.0681468
-0.7719727, 0.1201172, -0.8901367, 14.2073174, 139.8780518, 7.0121951, -0.0728466
-0.7373047, 0.1264648, -0.9160156, 14.0243902, 140.9146423, 6.4024391, -0.0745251
-0.7304688, 0.1318359, -0.934082, 13.7195129, 141.4024353, 5.3658538, -0.0738537
-0.7451172, 0.1357422, -0.9746094, 14.0243902, 141.4024353, 4.9390244, -0.0661326
-0.7553711, 0.1347656, -0.9897461, 14.1463413, 140.5487823, 3.9024391, -0.0681468
-0.7919922, 0.1196289, -0.9975586, 14.0243902, 139.3902435, 3.6585367, -0.0715038
-0.8212891, 0.1137695, -0.9868164, 12.6219511, 138.6585388, 2.5, -0.0772107
-0.8256836, 0.1118164, -0.9799805, 11.6463413, 138.4146423, 2.9268293, -0.0782177
-0.8110352, 0.1064453, -0.9580078, 9.9390249, 138.4756165, 4.390244, -0.0688182
-0.7910156, 0.1152344, -0.9443359, 8.719512, 139.146347, 5.1829271, -0.0580758
-0.7368164, 0.1171875, -0.9399414, 6.9512196, 140.1829376, 5.7317076, -0.0584115
-0.7143555, 0.109375, -0.949707, 6.9512196, 141.2195129, 4.9390244, -0.0547189
-0.6914062, 0.0981445, -0.9814453, 7.0731707, 141.7073212, 4.8780489, -0.0570687
-0.6958008, 0.0922852, -0.987793, 6.7073174, 141.4634247, 4.2682929, -0.0580758
-0.7216797, 0.0878906, -0.9858398, 6.3414636, 141.2804871, 4.1463413, -0.0594186
-0.7382812, 0.0854492, -0.9873047, 6.280488, 141.2804871, 4.2682929, -0.0627756
-0.7563477, 0.0820312, -0.9975586, 5.609756, 141.0975647, 4.6951222, -0.0647898
-0.7553711, 0.0776367, -1.0058594, 4.2073174, 140.7317047, 6.5243902, -0.0647898
-0.7470703, 0.0703125, -0.9985352, 3.9024391, 140.4268341, 7.5, -0.0580758
-0.7226562, 0.0620117, -0.9785156, 3.7804878, 139.8780518, 8.3536587, -0.0433051
-0.7104492, 0.0537109, -0.9750977, 4.3292685, 139.2073212, 8.719512, -0.0234989
-0.6855469, 0.0288086, -0.9716797, 5.9146342, 138.9634247, 8.841464, -0.0003357
-0.6757812, 0.0253906, -0.9750977, 8.0487804, 139.5731812, 8.4146347, 0.0224918
-0.6787109, 0.0371094, -0.980957, 9.2682924, 139.5731812, 8.4146347, 0.0352483
-0.6831055, 0.0561523, -0.9858398, 11.219512, 140.2439117, 8.9634151, 0.0318914
-0.6870117, 0.0849609, -0.9912109, 11.1585369, 140.1829376, 9.1463413, 0.0292058
-0.6870117, 0.0986328, -0.9887695, 10.4268293, 140.1219482, 9.7560978, 0.0124208
-0.6723633, 0.1098633, -0.9819336, 10, 140.0609741, 10.060976, -0.0070497
-0.640625, 0.1147461, -0.9804688, 9.1463413, 140.36586, 9.8780489, -0.0194705
-0.6279297, 0.1201172, -0.9790039, 8.841464, 140.4268341, 9.6951218, -0.024506
-0.6152344, 0.1230469, -0.9960938, 7.8658538, 141.0365906, 8.5365858, -0.024506
-0.6118164, 0.1225586, -1.0053711, 7.1341467, 141.2804871, 7.9878049, -0.0271916
-0.6166992, 0.109375, -1.0014648, 6.5243902, 141.2804871, 6.7682929, -0.0345769
-0.6176758, 0.109375, -0.9951172, 5.3658538, 141.1585388, 6.1585369, -0.0527047
-0.6191406, 0.1191406, -0.9956055, 4.8170733, 141.4634247, 5.7926831, -0.0553902
-0.6186523, 0.1235352, -1.0063477, 3.7804878, 142.4390259, 5.8536587, -0.0540475
-0.6088867, 0.1201172, -1.0507812, 3.6585367, 142.6829376, 5.9756098, -0.0503548
-0.6123047, 0.1079102, -1.0620117, 2.5, 142.0731812, 5.9756098, -0.0553902
-0.6245117, 0.0893555, -1.0473633, 1.7682927, 141.1585388, 5.9756098, -0.0553902
-0.6303711, 0.0927734, -1.0102539, 0.3658537, 140.4268341, 5.609756, -0.0516976
-0.6274414, 0.0957031, -1.0078125, 0.0609756, 140.5487823, 5.4268293, -0.0550546
-0.5952148, 0.0898438, -1.0356445, -0.3658537, 141.1585388, 5.5487804, -0.0580758
-0.581543, 0.0864258, -1.046875, -0.9756098, 141.3414612, 5.670732, -0.0540475
-0.5722656, 0.0893555, -1.0620117, -2.0731707, 140.9756165, 5, -0.0540475
-0.5756836, 0.0854492, -1.0654297, -2.9878049, 140.4878082, 5, -0.0574044
-0.5878906, 0.0800781, -1.0737305, -3.3536587, 139.8170776, 5.4268293, -0.0604257
-0.5859375, 0.059082, -1.0859375, -3.2926829, 138.2926788, 6.0975609, -0.0674754
-0.6035156, 0.0019531, -1.0869141, -2.5609756, 137.4390259, 6.0975609, -0.066804
-0.6142578, -0.0073242, -1.0600586, -2.2560976, 135.7926788, 7.1341467, -0.0580758
-0.6123047, 0.0063477, -0.9970703, -2.4390244, 135.2439117, 7.8048782, -0.0550546
-0.5820312, 0.0585938, -0.9741211, -2.6219513, 137.2561035, 9.2073174, -0.0473335
-0.5522461, 0.0751953, -0.9765625, -2.6219513, 138.5365906, 9.7560978, -0.0426337
-0.4897461, 0.1000977, -0.9975586, -2.9878049, 140.5487823, 10.3658543, -0.0342412
-0.4633789, 0.0996094, -1.0131836, -3.2317073, 140.7317047, 10.1219511, -0.0258488
-0.4360352, 0.0761719, -1.059082, -2.1341465, 140.4268341, 9.2682924, -0.0271916
-0.4433594, 0.0541992, -1.0834961, 0.0609756, 139.3902435, 8.1097565, -0.0265202
-0.5024414, 0.0170898, -1.0917969, 1.2804878, 138.0487823, 7.8048782, -0.0271916
-0.5366211, 0.0058594, -1.081543, 2.3780489, 136.1585388, 7.3170733, -0.0224918
-0.5888672, 0.0180664, -1.043457, 1.8902439, 135.5487823, 7.5609756, -0.0271916
-0.5966797, 0.0424805, -1.0429688, 0.4268293, 135.9146423, 8.5975609, -0.0261845
-0.5600586, 0.0981445, -1.0566406, -0.9756098, 136.4024353, 10.2439022, -0.0251774
-0.480957, 0.140625, -1.0839844, -4.6951222, 137.5, 11.7073174, -0.0271916
-0.449707, 0.1542969, -1.0825195, -6.4634147, 137.3170776, 11.7682934, -0.0352483
-0.4047852, 0.1699219, -1.0458984, -9.8780489, 136.646347, 10.7926836, -0.0379339
-0.394043, 0.1733398, -1.0380859, -11.280488, 136.5243988, 9.7560978, -0.0419623
-0.3779297, 0.1469727, -1.0688477, -11.8902445, 136.8902435, 7.4390244, -0.0439765
-0.3881836, 0.121582, -1.0913086, -11.5853662, 136.8902435, 4.9390244, -0.0446479
-0.434082, 0.0791016, -1.0678711, -12.2560978, 135.7926788, 3.7804878, -0.0352483
-0.4555664, 0.0634766, -1.0410156, -13.780488, 134.0853729, 2.6829269, -0.038941
-0.4711914, 0.0561523, -1.0429688, -13.5365858, 134.0853729, 2.3170731, -0.0386053
-0.4560547, 0.0576172, -1.0678711, -13.3536587, 134.9390259, 3.8414636, -0.0372625
-0.4355469, 0.0576172, -1.1074219, -13.1707315, 134.9390259, 4.7560978, -0.0419623
-0.425293, 0.0288086, -1.1074219, -13.6585369, 133.6585388, 5, -0.0433051
-0.4267578, 0.0131836, -1.1040039, -13.5975609, 132.7439117, 4.6341462, -0.0439765
-0.4399414, -0.0043945, -1.0942383, -12.7439032, 131.646347, 4.9390244, -0.0607614
-0.449707, -0.0029297, -1.0844727, -12.4390249, 131.4024353, 5.9146342, -0.0614328
-0.4477539, 0.0332031, -1.0703125, -12.9878054, 131.0365906, 7.8048782, -0.0537118
-0.4360352, 0.0629883, -1.0693359, -14.8780489, 131.4634247, 9.3292685, -0.0661326
-0.3984375, 0.1000977, -1.0541992, -15.4878054, 131.8292694, 10, -0.0809033
-0.3681641, 0.1035156, -1.0488281, -15.4268293, 131.3414612, 9.3292685, -0.070161
-0.3183594, 0.0556641, -1.0727539, -14.0243902, 131.0365906, 7.9878049, -0.056733
-0.3144531, 0.0097656, -1.0991211, -10.6707315, 130.1829224, 5.609756, -0.0500191
-0.3334961, 0.0009766, -1.0986328, -9.0853662, 129.7561035, 4.6341462, -0.0352483
-0.3803711, 0.0234375, -1.0878906, -8.4756098, 128.9634247, 4.6341462, -0.0224918
-0.3945312, 0.0385742, -1.0849609, -8.780488, 128.9024353, 5.4268293, -0.0191348
-0.3793945, 0.0654297, -1.0791016, -9.5121956, 129.0243988, 6.3414636, -0.0164492
-0.3706055, 0.0776367, -1.0800781, -10.1219511, 128.9634247, 6.5243902, -0.0204776
-0.3383789, 0.0976562, -1.0834961, -11.4634151, 129.146347, 6.1585369, -0.0198062
-0.3208008, 0.1030273, -1.0888672, -13.3536587, 128.5975647, 5.8536587, -0.0248417
-0.2856445, 0.1152344, -1.0922852, -13.841464, 128.9024353, 5.2439027, -0.03122
-0.2739258, 0.1118164, -1.09375, -14.0853662, 128.7804871, 4.1463413, -0.0342412
-0.2680664, 0.0991211, -1.0688477, -14.1463413, 128.6585388, 3.2317073, -0.0379339
-0.2524414, 0.0742188, -1.0239258, -14.5121956, 127.6219559, 1.4634147, -0.0379339
-0.2504883, 0.0600586, -1.0151367, -14.5731707, 127.68293, 0.4268293, -0.0345769
-0.2426758, 0.0424805, -1.0327148, -14.5731707, 129.3292694, -0.3658537, -0.03122
-0.2412109, 0.0483398, -1.0610352, -14.6951227, 130.0609741, 0.0609756, -0.0345769
-0.2431641, 0.0664062, -1.1030273, -15, 130.7317047, 0.8536586, -0.0365911
-0.2490234, 0.0771484, -1.109375, -15.1829271, 130.36586, 1.1585366, -0.0433051
-0.2568359, 0.0766602, -1.1132812, -15.5487804, 128.3536682, 0.8536586, -0.0506905
-0.2651367, 0.0688477, -1.1103516, -14.8780489, 126.4024429, 0.2439024, -0.0594186
-0.2592773, 0.0327148, -1.1030273, -14.5121956, 125.9756165, 0.0609756, -0.0540475
-0.25, 0.0092773, -1.0957031, -13.780488, 125.36586, 0.1219512, -0.0557259
-0.2436523, -0.0048828, -1.059082, -13.7195129, 124.9390259, 0.2439024, -0.063447
-0.2202148, 0.03125, -1.0102539, -14.1463413, 125.6707382, 1.2195122, -0.0647898
-0.1953125, 0.0517578, -1.0102539, -13.780488, 126.8292694, 1.6463414, -0.0614328
-0.1445312, 0.0849609, -1.0449219, -13.2317076, 129.2682953, 1.8902439, -0.0597543
-0.125, 0.0883789, -1.0708008, -12.6829271, 130.3048859, 1.5853659, -0.0607614
-0.1137695, 0.0654297, -1.125, -11.7073174, 130, 0.6097561, -0.06009
-0.1289062, 0.0463867, -1.1459961, -10.3048782, 128.9024353, -0.6707317, -0.0587472
-0.1831055, 0.0009766, -1.1435547, -9.7560978, 127.68293, -1.1585366, -0.0594186
-0.2080078, -0.0170898, -1.1225586, -9.2073174, 125.6097565, -1.5243902, -0.06009
-0.237793, -0.0200195, -1.0996094, -8.4146347, 124.6951218, -1.2804878, -0.0580758
-0.2441406, -0.0043945, -1.112793, -6.6463418, 124.2682953, 0.7926829, -0.0527047
-0.2304688, 0.0356445, -1.1435547, -6.7073174, 124.146347, 2.1341465, -0.056733
-0.1933594, 0.0703125, -1.121582, -9.0243902, 123.4756088, 3.8414636, -0.056733
-0.1699219, 0.074707, -1.0859375, -10.6707315, 122.7439041, 3.7195122, -0.0594186
-0.125, 0.0878906, -1.0356445, -12.6829271, 121.646347, 3.1097562, -0.0574044
-0.090332, 0.0874023, -1.0507812, -12.5, 121.7073212, 3.2317073, -0.06009
-0.0219727, 0.0576172, -1.1391602, -10.8536587, 122.8048782, 3.0487804, -0.06009
-0.0185547, 0.0366211, -1.1533203, -9.8780489, 122.0731735, 0.9756098, -0.0553902
-0.0688477, 0.0068359, -1.1000977, -9.8170738, 120.9146347, -0.7926829, -0.0587472
-0.1005859, 0.0078125, -1.0556641, -8.841464, 118.7804871, -2.0731707, -0.0500191
-0.1391602, 0.0283203, -1.003418, -8.0487804, 118.9634171, -2.0731707, -0.0557259
-0.1328125, 0.0478516, -0.9960938, -8.1097565, 122.0731735, -1.097561, -0.0513619
-0.0825195, 0.0942383, -0.9946289, -9.5731707, 123.5365906, -0.2439024, -0.0540475
0.003418, 0.1342773, -1.0444336, -12.1341467, 126.0365906, 1.2804878, -0.0439765
0.046875, 0.1391602, -1.0888672, -12.6829271, 126.4634171, 1.5243902, -0.0392767
0.0761719, 0.1103516, -1.1645508, -12.1951218, 126.646347, -0.0609756, -0.0486763
0.0556641, 0.0839844, -1.1728516, -12.3170738, 126.2195129, -1.9512196, -0.0446479
-0.0317383, 0.019043, -1.1064453, -13.2317076, 124.2682953, -5.5487804, -0.0426337
-0.0761719, -0.0083008, -1.0424805, -13.2926836, 122.6219559, -5.7317076, -0.0406195
-0.0986328, -0.0317383, -0.9663086, -12.1951218, 122.8048782, -5, -0.0406195
-0.0820312, -0.03125, -0.9780273, -9.5731707, 125.0609818, -2.5609756, -0.0372625
-0.0078125, 0.0019531, -1.0375977, -8.4756098, 127.0121994, -0.9756098, -0.03122
0.0273438, 0.0209961, -1.0629883, -7.6829271, 128.8414612, 1.1585366, -0.024506
0.0678711, 0.0444336, -1.0864258, -7.6829271, 128.8414612, 1.0365853, -0.0231632
0.0673828, 0.043457, -1.0913086, -7.5609756, 127.86586, -0.0609756, -0.0248417
0.0546875, 0.0263672, -1.1005859, -7.0121951, 127.4390259, -0.7317073, -0.0275273
0.0229492, -0.0048828, -1.1054688, -5.9756098, 127.0731735, -1.0365853, -0.0285344
0.0068359, -0.0136719, -1.1000977, -5.9756098, 126.7073212, -1.2195122, -0.021149
-0.0268555, -0.019043, -1.0712891, -5.1219511, 125.2439041, 0, -0.0204776
-0.0283203, -0.0112305, -1.0532227, -4.2073174, 124.8170776, 1.402439, -0.014435
-0.0019531, 0.0068359, -1.0029297, -3.9024391, 124.8170776, 2.3780489, -0.024506
0.0258789, 0.0161133, -0.9824219, -2.9878049, 125.4268341, 3.1707318, -0.0218204
0.1044922, 0.0332031, -0.9672852, -2.6219513, 126.2195129, 3.9634147, -0.017792
0.1430664, 0.0327148, -0.972168, -0.9146342, 128.1097565, 3.8414636, -0.0224918
0.199707, 0.0166016, -1.0083008, 0.2439024, 129.146347, 3.3536587, -0.0271916
0.2109375, -0.0175781, -1.050293, 3.6585367, 130.4878082, 2.9878049, -0.0171206
0.1972656, -0.0317383, -1.0605469, 5.0609756, 130.1219482, 2.0731707, -0.0171206
0.1279297, -0.0244141, -1.0732422, 7.8048782, 128.3536682, 0.5487805, -0.0258488
0.0839844, 0.0009766, -1.0830078, 8.1707315, 127.4390259, 0.3048781, -0.0258488
0.0185547, 0.0571289, -1.0737305, 7.1951222, 126.5243912, 1.0365853, -0.0231632
0.0083008, 0.0786133, -1.0532227, 2.6829269, 125.6707382, 3.1097562, -0.0221561
0.0556641, 0.0898438, -0.9926758, 0.6707317, 124.8780518, 4.0853658, -0.021149
0.1025391, 0.0737305, -0.9765625, -0.4878049, 122.8048782, 4.5121951, -0.0248417
0.2172852, 0.0180664, -0.984375, 0.6097561, 122.7439041, 4.1463413, -0.0379339
0.2548828, -0.0087891, -0.9990234, 3.4146342, 122.68293, 1.9512196, -0.0500191
0.2797852, -0.0375977, -1.0205078, 4.2073174, 122.9878082, 0.3658537, -0.0560616
0.2119141, -0.0048828, -1.0234375, 5.8536587, 124.5121994, -1.6463414, -0.0621042
0.1679688, 0.0258789, -1.019043, 5.9756098, 124.8170776, -0.9756098, -0.0621042
0.1157227, 0.0766602, -1.0258789, 5.7926831, 124.2073212, 0.6097561, -0.06009
0.1113281, 0.0864258, -1.03125, 5.1829271, 122.7439041, 1.3414634, -0.0560616
0.1254883, 0.0844727, -1.03125, 2.9268293, 120.9146347, 0.9756098, -0.0486763
0.1425781, 0.078125, -1.0131836, -0.6707317, 119.5121994, 0.6097561, -0.0486763
0.1899414, 0.0566406, -0.9887695, -1.0365853, 119.146347, 0.8536586, -0.0439765
0.2148438, 0.0395508, -0.9995117, 0.9756098, 119.5121994, 1.5243902, -0.0453193
0.2553711, -0.0205078, -1.0683594, 3.4146342, 118.6585388, 1.097561, -0.0553902
0.2543945, -0.0576172, -1.0922852, 7.3780489, 115.9756088, -0.7317073, -0.0553902
0.1879883, -0.0986328, -1.0478516, 8.0487804, 114.0853653, -2.0121951, -0.0540475
0.1074219, -0.074707, -0.9375, 8.9634151, 110.36586, -1.7682927, -0.0500191
0.0874023, -0.0473633, -0.8896484, 9.7560978, 109.8170776, -0.2439024, -0.0412909
0.1259766, 0.0024414, -0.862793, 11.8902445, 111.646347, 3.4756098, -0.0459907
0.1694336, 0.0170898, -0.8828125, 12.8048782, 112.7439041, 5.3658538, -0.0587472
0.2734375, 0.0361328, -0.9370117, 13.9024391, 113.5365906, 7.3170733, -0.0661326
0.3144531, 0.0444336, -0.949707, 13.4146347, 112.9268341, 7.0731707, -0.0715038
0.3530273, 0.0561523, -0.9609375, 13.1707315, 112.5609818, 6.1585369, -0.0674754
0.3540039, 0.0571289, -0.9516602, 13.3536587, 113.1097565, 3.6585367, -0.0513619
0.3198242, 0.0322266, -0.9013672, 13.5975609, 113.4146347, 1.9512196, -0.0412909
0.2924805, 0.0141602, -0.8779297, 14.9390249, 113.6585388, -0.4878049, -0.0406195
0.265625, -0.0214844, -0.8540039, 15.8536587, 113.7195129, -0.7317073, -0.0318914
0.2719727, -0.0405273, -0.8901367, 17.7439022, 113.6585388, 0.7317073, -0.0198062
0.2768555, -0.0463867, -0.9326172, 18.5365849, 113.9634171, 1.7682927, -0.0154421
0.2739258, -0.0356445, -1.0219727, 20.060976, 114.4512253, 3.7804878, -0.0157778
0.2543945, -0.0166016, -1.0336914, 19.5121956, 114.3292694, 4.390244, -0.0130922
0.2006836, 0.0507812, -0.9726562, 16.0975609, 113.1097565, 5.5487804, -0.0231632
0.1918945, 0.065918, -0.9355469, 12.6829271, 111.4024429, 7.2560978, -0.0271916
0.2338867, 0.0556641, -0.9042969, 12.5, 111.1585388, 8.4146347, -0.024506
0.2612305, 0.0297852, -0.90625, 13.2317076, 111.9512253, 9.9390249, -0.0345769
0.328125, -0.0336914, -0.909668, 14.4512196, 112.3170776, 10.3048782, -0.0412909
0.3491211, -0.0576172, -0.9072266, 16.0975609, 111.5243912, 9.5121956, -0.0527047
0.3481445, -0.0678711, -0.9033203, 17.6219521, 111.1585388, 9.0853662, -0.0728466
0.3115234, -0.0400391, -0.9111328, 20.1829281, 109.5121994, 9.0243902, -0.0809033
0.2949219, -0.0229492, -0.9277344, 21.1585369, 108.9024429, 9.4512196, -0.0782177
0.2714844, -0.0004883, -0.9594727, 21.8902435, 107.6219559, 10.3658543, -0.0728466
0.2558594, 0.0136719, -0.9614258, 21.1585369, 106.8902435, 10.7317076, -0.0513619
0.25, 0.0249023, -0.9335938, 18.7195129, 105.3048782, 12.1951218, -0.0164492
0.2636719, 0.0058594, -0.9135742, 16.9512196, 103.1707306, 13.9024391, 0.0043641
0.3144531, -0.0566406, -0.8569336, 16.9512196, 102.1341476, 14.8170738, 0.021149
0.3427734, -0.0878906, -0.8339844, 19.5121956, 100.8536606, 14.9390249, 0.0271916
0.3789062, -0.1147461, -0.8432617, 22.0731716, 99.5731735, 14.8170738, 0.0218204
0.3862305, -0.0932617, -0.8671875, 27.0731716, 97.9268341, 15.3658543, 0.0117494
0.3857422, -0.0161133, -0.8837891, 27.4390259, 98.0487823, 15.1829271, -0.0003357
0.3564453, 0.0581055, -0.8134766, 24.2073174, 99.5731735, 15.1219511, -0.0090639
0.347168, 0.081543, -0.762207, 22.1951218, 99.8780518, 15, -0.017792
0.3867188, 0.0712891, -0.7387695, 21.0975609, 98.7195129, 15.2439032, -0.0318914
0.4306641, 0.0332031, -0.769043, 22.5, 97.8048782, 15.4268293, -0.0486763
0.4956055, -0.0551758, -0.875, 27.2560978, 96.3414688, 15.060976, -0.0513619
0.5, -0.0795898, -0.8994141, 28.9024391, 96.1585388, 13.2317076, -0.0594186
0.4467773, -0.0644531, -0.840332, 27.8658543, 95.7317123, 12.1341467, -0.0594186
0.40625, -0.03125, -0.7880859, 25.9146347, 95.0609741, 11.5243902, -0.0473335
0.3569336, 0.0234375, -0.7314453, 25.7317085, 94.5731735, 11.7682934, -0.0392767
0.3579102, 0.0400391, -0.7338867, 26.3414631, 94.5121994, 12.6829271, -0.027863
0.3891602, 0.0522461, -0.7978516, 26.0975609, 94.4512253, 13.1097565, -0.0171206
0.4433594, 0.0322266, -0.8706055, 25.4878063, 92.0731735, 13.2317076, -0.0154421
0.4614258, 0.0185547, -0.894043, 25.060976, 91.0365906, 13.1097565, -0.0124208
0.456543, -0.012207, -0.8862305, 23.4756107, 88.5365906, 11.8292685, -0.011078
0.4394531, -0.0258789, -0.8613281, 22.5, 88.0487823, 11.1585369, -0.0124208
0.4091797, -0.0522461, -0.8032227, 21.5243912, 86.2804871, 10.1829271, -0.0104067
0.3950195, -0.0551758, -0.7739258, 22.8658543, 84.4512253, 9.9390249, -0.0140993
0.390625, -0.0302734, -0.722168, 23.2317085, 84.0243912, 10.1219511, -0.017792
0.3979492, -0.0166016, -0.703125, 22.6829281, 84.2073212, 11.219512, -0.0218204
0.449707, 0.0073242, -0.6791992, 22.560976, 84.5121994, 11.6463413, -0.0221561
0.4868164, -0.0014648, -0.6958008, 23.4146347, 85, 12.560976, -0.0224918
0.5522461, -0.0292969, -0.7875977, 24.8780499, 85.0609741, 12.6219511, -0.0359197
0.5415039, -0.0410156, -0.8725586, 26.280489, 85.4268341, 12.5, -0.0446479
0.5048828, -0.0234375, -0.8681641, 24.8170738, 86.0365906, 12.5, -0.0473335
0.4223633, 0.0097656, -0.7822266, 20.7317085, 85.7317123, 12.9878054, -0.0480049
0.3979492, 0.0097656, -0.7382812, 19.5731716, 84.3292694, 13.1707315, -0.0476692
0.3994141, -0.0268555, -0.7182617, 20.5487804, 80.3048782, 13.6585369, -0.0439765
0.4204102, -0.0410156, -0.730957, 22.5, 77.3170776, 14.2682934, -0.0560616
0.4589844, -0.0541992, -0.737793, 22.560976, 76.9512177, 14.8780489, -0.0708324
0.4775391, -0.0493164, -0.7294922, 21.7682934, 76.7073212, 15.7317076, -0.0731823
0.5053711, -0.0327148, -0.7338867, 22.1951218, 76.7073212, 16.0365849, -0.0862745
0.5126953, -0.0234375, -0.7436523, 24.3292694, 75.6097565, 16.3414631, -0.0929885
0.5126953, -0.0019531, -0.7666016, 24.5121956, 75.0609741, 16.1585369, -0.0923171
0.503418, 0.0053711, -0.7416992, 24.4512196, 73.5365906, 15.7317076, -0.0869459
0.5024414, -0.0029297, -0.7055664, 23.5365868, 72.5, 15.6097565, -0.0909743
0.5043945, -0.0317383, -0.6206055, 23.0487804, 72.0121994, 14.8170738, -0.0896315
0.5195312, -0.0478516, -0.6000977, 24.0243912, 71.9512177, 14.5121956, -0.0903029
0.5556641, -0.0742188, -0.6425781, 27.7439022, 71.8292694, 15.060976, -0.0839246
0.5727539, -0.081543, -0.6889648, 31.0365868, 71.4024429, 15.4878054, -0.0795605
0.5844727, -0.0688477, -0.7480469, 31.5853672, 71.2804871, 15.6707325, -0.0688182
0.5722656, -0.0498047, -0.7431641, 28.4146347, 72.3170776, 14.6951227, -0.0678111
0.5253906, 0.0263672, -0.6835938, 25.8536587, 72.9268341, 13.7195129, -0.0621042
0.4912109, 0.0849609, -0.6606445, 21.4024391, 74.0243912, 13.4146347, -0.0553902
0.4926758, 0.0883789, -0.6928711, 20.3048782, 73.5975647, 14.2073174, -0.0624399
0.5429688, 0.0463867, -0.7851562, 19.2073174, 71.5243912, 16.4634151, -0.0647898
0.5751953, 0.0043945, -0.809082, 18.1097565, 70.6707306, 16.6463413, -0.0661326
0.5888672, -0.0874023, -0.7783203, 15.7317076, 68.0487823, 14.7560978, -0.0647898
0.5727539, -0.1142578, -0.7397461, 14.6341467, 66.7682953, 13.5365858, -0.0584115
0.5141602, -0.0927734, -0.6660156, 14.2682934, 65.5487823, 13.1097565, -0.0553902
0.4936523, -0.0634766, -0.6494141, 15.2439032, 65.4268341, 14.6341467, -0.0533761
0.4980469, 0.0087891, -0.6762695, 15.7926836, 65.6097565, 15.2439032, -0.0500191
0.5141602, 0.0273438, -0.703125, 14.2682934, 64.2682953, 16.0365849, -0.0436408
0.5493164, 0.0185547, -0.7529297, 12.9878054, 63.4756126, 16.1585369, -0.0315557
0.5776367, -0.0273438, -0.7719727, 10.6097565, 62.3170738, 16.4634151, -0.0318914
0.5791016, -0.0507812, -0.7607422, 10.2439022, 61.9512215, 16.0975609, -0.0325628
0.5649414, -0.0869141, -0.7158203, 10.5487804, 60.2439041, 15.6707325, -0.035584
0.5576172, -0.0976562, -0.6928711, 11.4024391, 59.1463432, 14.9390249, -0.0359197
0.5429688, -0.0893555, -0.6582031, 13.2317076, 57.5, 14.1463413, -0.0365911
0.5415039, -0.0576172, -0.6401367, 14.1463413, 56.9512215, 13.9024391, -0.0426337
0.5517578, -0.0063477, -0.6162109, 14.3902445, 58.1097565, 14.0853662, -0.0419623
0.5698242, 0.0083008, -0.6196289, 14.7560978, 58.3536606, 14.0853662, -0.0419623
0.6186523, -0.0249023, -0.6777344, 15.6707325, 58.0487823, 13.780488, -0.0426337
0.6396484, -0.0556641, -0.7192383, 17.8658543, 57.2560997, 12.8048782, -0.0379339
0.6308594, -0.0874023, -0.769043, 18.7195129, 56.5853653, 12.3170738, -0.0433051
0.5820312, -0.0795898, -0.7260742, 18.5365849, 55.8536606, 11.341464, -0.0500191
0.5561523, -0.0737305, -0.6865234, 18.780489, 55.6097565, 10.7317076, -0.0500191
0.5361328, -0.0708008, -0.6337891, 20.2439022, 53.7195129, 10.5487804, -0.0386053
0.5488281, -0.0776367, -0.6259766, 21.4024391, 52.5609779, 10.4268293, -0.0433051
0.5898438, -0.0927734, -0.637207, 22.2560978, 51.8902435, 11.1585369, -0.0473335
0.6113281, -0.0820312, -0.652832, 21.6463413, 52.8048782, 11.8292685, -0.056733
0.6337891, -0.0512695, -0.6992188, 21.2195129, 53.7195129, 12.3170738, -0.0647898
0.6298828, -0.0332031, -0.7314453, 20.3048782, 54.5731735, 12.5, -0.0574044
0.6206055, -0.0170898, -0.7768555, 19.6341476, 54.0853653, 12.8658543, -0.0621042
0.6108398, -0.0209961, -0.762207, 16.0365849, 52.3170738, 12.8048782, -0.0681468
0.6083984, -0.0688477, -0.6738281, 14.5121956, 51.341465, 12.5, -0.0715038
0.6162109, -0.1176758, -0.6025391, 15, 48.9024391, 10.9146347, -0.0715038
0.6264648, -0.125, -0.5913086, 16.5243912, 48.7195129, 10.6707315, -0.0681468
0.6450195, -0.1010742, -0.6196289, 19.2682934, 49.6951218, 10.5487804, -0.0597543
0.6494141, -0.078125, -0.6494141, 19.939024, 50.4268303, 10.6707315, -0.0463264
0.6479492, -0.0439453, -0.7026367, 20.3048782, 50.4268303, 11.341464, -0.0433051
0.6455078, -0.0410156, -0.71875, 18.9634151, 49.2682953, 11.5243902, -0.0352483
0.6401367, -0.0551758, -0.6845703, 18.1097565, 48.3536606, 11.5853662, -0.0204776
0.6342773, -0.0620117, -0.6391602, 15.9146347, 46.9512215, 10.8536587, -0.0154421
0.6445312, -0.0834961, -0.5366211, 15.6707325, 46.5853653, 10, -0.0151064
0.6586914, -0.0952148, -0.5073242, 18.1707325, 46.5853653, 9.4512196, -0.0137636
0.7114258, -0.0996094, -0.5039062, 19.8170738, 47.0121956, 9.0243902, -0.0093996
0.7314453, -0.078125, -0.5673828, 22.6829281, 48.1097565, 7.8658538, -0.0151064
0.730957, -0.0585938, -0.6123047, 23.1707325, 48.1707344, 7.8048782, -0.014435
0.7104492, -0.0195312, -0.6611328, 21.2195129, 47.8048782, 7.4390244, -0.0238346
0.6914062, -0.0024414, -0.6391602, 18.7195129, 47.6829262, 6.890244, -0.0285344
0.668457, 0.0097656, -0.5170898, 12.3170738, 46.9512215, 5.0609756, -0.0234989
0.6777344, 0.0078125, -0.4594727, 9.8780489, 45.9756126, 3.4146342, -0.0339055
0.7241211, -0.0083008, -0.4204102, 10.3048782, 46.1585388, 2.9268293, -0.0459907
0.7602539, -0.0209961, -0.4384766, 12.2560978, 46.8292694, 1.9512196, -0.0466621
0.8076172, -0.043457, -0.5058594, 12.1341467, 47.6829262, 1.1585366, -0.0500191
0.8066406, -0.0429688, -0.5380859, 9.5121956, 48.5365868, -0.3048781, -0.0446479
0.7758789, -0.0375977, -0.5478516, 7.7439027, 48.6585388, -0.7926829, -0.0426337
0.7119141, -0.0268555, -0.5341797, 5.7926831, 47.8658562, -2.5, -0.0406195
0.684082, -0.0361328, -0.5375977, 5.4878049, 46.6463432, -2.9878049, -0.0339055
0.6533203, -0.0732422, -0.5263672, 6.2195125, 43.2317085, -3.9634147, -0.0453193
0.6499023, -0.0986328, -0.5214844, 6.2195125, 41.4634171, -4.390244, -0.0486763
0.6499023, -0.128418, -0.5073242, 6.5853658, 38.4146347, -4.5731707, -0.0513619
0.6508789, -0.1274414, -0.5170898, 8.4146347, 36.1585388, -3.2926829, -0.0463264
0.6494141, -0.1000977, -0.5693359, 9.5731707, 35.1829262, -2.3780489, -0.0486763
0.6508789, -0.0834961, -0.5878906, 8.719512, 32.6829262, -0.8536586, -0.056733
0.6533203, -0.0712891, -0.5722656, 7.3170733, 30.6097565, -0.3658537, -0.056733
0.6508789, -0.0756836, -0.5429688, 5.0609756, 26.4634151, -0.7926829, -0.0540475
0.6645508, -0.0981445, -0.4736328, 4.8780489, 24.3902435, -0.7926829, -0.0540475
0.6884766, -0.0966797, -0.4375, 5.5487804, 22.3170738, -0.7317073, -0.056733
0.7070312, -0.0947266, -0.4233398, 5.609756, 22.0731716, -0.1829268, -0.0500191
0.7382812, -0.0786133, -0.4042969, 4.6341462, 21.8902435, 0.8536586, -0.0527047
0.7509766, -0.0737305, -0.4003906, 4.0243902, 21.8902435, 1.1585366, -0.0694896
0.7675781, -0.0761719, -0.3916016, 3.1707318, 22.0731716, 1.4634147, -0.0849317
0.7753906, -0.0820312, -0.3837891, 1.7682927, 21.9512196, 1.402439, -0.0835889
0.7719727, -0.0947266, -0.3725586, 1.1585366, 22.1341476, 1.5243902, -0.0721752
0.7626953, -0.1015625, -0.3706055, 1.3414634, 21.7073174, 2.195122, -0.0624399
0.7563477, -0.1025391, -0.3662109, 1.1585366, 20.9756107, 2.0731707, -0.0516976
0.7446289, -0.0883789, -0.3525391, -1.4634147, 21.2195129, 1.8292683, -0.0493477
0.7285156, -0.0498047, -0.3041992, -3.3536587, 21.5243912, 1.9512196, -0.0352483
0.7373047, -0.0136719, -0.2705078, -6.9512196, 22.2560978, 2.6219513, -0.0234989
0.7519531, -0.012207, -0.2719727, -8.1707315, 22.3780499, 3.4756098, -0.0057069
0.7939453, -0.043457, -0.3037109, -9.3292685, 21.9512196, 3.4756098, -0.0010071
0.8012695, -0.0668945, -0.3393555, -9.6341467, 21.2195129, 3.2926829, 0.0010071
0.7905273, -0.0927734, -0.4106445, -9.7560978, 19.8780499, 3.1707318, 0.0023499
0.7685547, -0.0917969, -0.4296875, -10.6097565, 17.6219521, 3.0487804, 0.0023499
0.7006836, -0.0888672, -0.4492188, -11.0365858, 15.5487804, 3.1097562, -0.0043641
0.6621094, -0.0957031, -0.4604492, -10.4268293, 10.1829271, 2.6219513, -0.0043641
0.6108398, -0.0898438, -0.4873047, -10.7317076, 7.0731707, 2.4390244, -0.014435
0.5869141, -0.0751953, -0.4804688, -12.7439032, 0.9146342, 2.5609756, -0.0224918
0.578125, -0.0449219, -0.4121094, -14.2073174, -1.5853659, 2.7439024, -0.0396124
0.628418, -0.0361328, -0.3598633, -15.2439032, -6.6463418, 3.2317073, -0.0527047
0.6704102, -0.0458984, -0.3637695, -14.3292685, -9.2682924, 3.2317073, -0.0674754
0.7304688, -0.0668945, -0.4091797, -11.4634151, -13.5365858, 1.8292683, -0.0755322
0.7314453, -0.0634766, -0.4262695, -11.0365858, -14.4512196, 0.6707317, -0.0822461
0.6943359, -0.0429688, -0.4038086, -12.0121956, -15.9756098, -0.5487805, -0.0728466
0.6679688, -0.0336914, -0.3818359, -13.780488, -18.780489, -1.2195122, -0.0584115
0.644043, -0.0327148, -0.3623047, -13.9024391, -21.6463413, -1.7682927, -0.0288701
0.6474609, -0.0424805, -0.3745117, -12.7439032, -26.2195129, -2.5, -0.0063783
0.6499023, -0.0761719, -0.3886719, -12.7439032, -28.1707325, -3.2317073, 0.010071
0.6464844, -0.0825195, -0.3813477, -13.780488, -30.6097565, -3.9634147, 0.021149
0.6289062, -0.078125, -0.3730469, -14.3292685, -31.8902454, -3.7804878, 0.0265202
0.6293945, -0.0825195, -0.3745117, -14.5121956, -34.2682953, -2.6829269, 0.017792
0.6342773, -0.0854492, -0.371582, -14.6341467, -36.0365868, -2.4390244, 0.0023499
0.65625, -0.0820312, -0.3520508, -16.0975609, -39.4512215, -3.4756098, -0.0107424
0.6591797, -0.0698242, -0.328125, -17.3170738, -40.1219521, -3.8414636, -0.0275273
0.6621094, -0.03125, -0.2954102, -19.3902435, -40.9756088, -4.5731707, -0.0302129
0.6669922, -0.0083008, -0.2978516, -21.2195129, -41.341465, -5.3048782, -0.03122
0.6811523, 0.0234375, -0.3276367, -22.8048782, -41.7073174, -5.5487804, -0.03122
0.6879883, 0.0244141, -0.34375, -25.9146347, -42.4390259, -6.0975609, -0.027863
0.6821289, -0.0136719, -0.3603516, -27.1341476, -42.9268303, -7.3170733, -0.0198062
0.6645508, -0.0371094, -0.3725586, -27.6219521, -44.8780479, -9.3292685, -0.024506
0.6171875, -0.0664062, -0.3867188, -27.560976, -45.8536606, -10, -0.0204776
0.5703125, -0.0673828, -0.390625, -28.4146347, -48.3536606, -10.060976, -0.0218204
0.5595703, -0.0703125, -0.3774414, -29.4512196, -49.5731735, -9.9390249, -0.0171206
0.5507812, -0.0693359, -0.3686523, -31.1585369, -52.5609779, -9.6341467, -0.024506
0.5478516, -0.0629883, -0.3857422, -31.6463413, -53.7195129, -9.2682924, -0.0275273
0.5419922, -0.0595703, -0.4770508, -31.7682934, -55.2439041, -6.2195125, -0.0298772
0.5405273, -0.0766602, -0.5380859, -32.6829262, -58.0487823, -2.2560976, -0.0379339
0.5283203, -0.1323242, -0.5913086, -33.9634171, -60.5487823, -0.8536586, -0.0439765
0.5141602, -0.1572266, -0.5756836, -37.6219521, -66.6463394, 0.0609756, -0.0500191
0.4716797, -0.1621094, -0.4946289, -38.7804871, -69.5731735, 0.8536586, -0.0480049
0.4516602, -0.1435547, -0.46875, -38.2926826, -74.0243912, 3.1097562, -0.0506905
0.4536133, -0.1040039, -0.4819336, -36.7073174, -75.8536606, 4.5731707, -0.056733
0.4794922, -0.097168, -0.5302734, -34.0243912, -80.6707306, 6.4024391, -0.0594186
0.4931641, -0.1040039, -0.5429688, -33.1707306, -83.4146347, 6.280488, -0.0506905
0.5009766, -0.1186523, -0.5322266, -32.1341476, -88.2926865, 6.0975609, -0.0533761
0.4956055, -0.1142578, -0.5253906, -31.9512196, -90.2439041, 6.280488, -0.0651255
0.4907227, -0.0947266, -0.5117188, -30.6097565, -93.2317123, 7.7439027, -0.0621042
0.4907227, -0.0820312, -0.5063477, -31.2195129, -95.6707306, 8.841464, -0.0607614
0.5092773, -0.0698242, -0.4750977, -32.0121956, -96.8292694, 9.2073174, -0.0694896
0.5185547, -0.0605469, -0.4584961, -32.9878044, -99.0243912, 9.3292685, -0.0647898
0.5610352, -0.0449219, -0.4335938, -32.9878044, -100.2439041, 9.2073174, -0.0647898
0.5800781, -0.0385742, -0.4243164, -33.7804871, -101.1585388, 9.0243902, -0.0627756
0.6225586, -0.0161133, -0.4135742, -34.2682953, -101.2195129, 8.1707315, -0.0597543
0.6298828, -0.012207, -0.4077148, -34.6341476, -100.2439041, 6.3414636, -0.0614328
0.6308594, -0.0102539, -0.4082031, -34.6341476, -100.18293, 5.1829271, -0.0580758
0.6088867, -0.0048828, -0.4316406, -34.2073174, -100.3658524, 2.5609756, -0.0533761
0.5947266, -0.0068359, -0.4477539, -34.5121956, -100.9146347, 1.6463414, -0.0527047
0.5766602, -0.0180664, -0.4624023, -35.4268303, -101.5243912, 0.3658537, -0.0533761
0.5620117, -0.0234375, -0.4575195, -38.3536606, -101.5853653, -1.6463414, -0.0607614
0.5400391, -0.0273438, -0.4160156, -39.7560997, -101.2195129, -2.804878, -0.0527047
0.5356445, -0.0239258, -0.3974609, -40.3048782, -101.4024429, -4.1463413, -0.0500191
0.5512695, -0.0322266, -0.3964844, -39.5731735, -101.7073212, -4.5121951, -0.0513619
0.5742188, -0.0439453, -0.4101562, -38.1097565, -101.3414688, -5.8536587, -0.0500191
0.5917969, -0.0844727, -0.4492188, -37.7439041, -100.7926865, -6.7073174, -0.0500191
0.5737305, -0.1347656, -0.5014648, -36.4024391, -99.4512253, -6.9512196, -0.0486763
0.5629883, -0.1743164, -0.5439453, -34.7560997, -99.3902435, -6.5853658, -0.0607614
0.5107422, -0.2480469, -0.6777344, -29.5121956, -100.5487823, -4.8170733, -0.0614328
0.46875, -0.2729492, -0.7470703, -27.6219521, -101.5243912, -3.1097562, -0.0621042
0.3603516, -0.2797852, -0.8334961, -27.560976, -103.9024429, 2.195122, -0.0594186
0.3095703, -0.2607422, -0.8369141, -31.6463413, -108.2926865, 7.5609756, -0.0486763
0.2250977, -0.1845703, -0.7939453, -34.6951218, -111.5243912, 10.4268293, -0.0392767
0.2050781, -0.1435547, -0.7666016, -38.2926826, -118.4756088, 15.7926836, -0.0339055
0.2421875, -0.0791016, -0.715332, -38.9024391, -122.0731735, 18.1097565, -0.0315557
0.2978516, -0.0488281, -0.6850586, -41.0975609, -126.7073212, 20.4268303, -0.0339055
0.4179688, 0.0014648, -0.6499023, -42.5, -127.6219559, 20.5487804, -0.0339055
0.5219727, 0.0117188, -0.6508789, -44.6951218, -127.9878082, 20.3048782, -0.0352483
0.5576172, 0.019043, -0.6538086, -45.5487823, -127.5609818, 20.1219521, -0.03122
0.6088867, 0.0219727, -0.6293945, -48.7804871, -126.7682953, 18.6585369, -0.0285344
0.6137695, 0.0200195, -0.59375, -50.9146347, -126.2195129, 16.9512196, -0.0292058
0.5966797, 0.0112305, -0.5429688, -55.0609779, -125.6097565, 13.9634151, -0.0365911
0.5859375, -0.0004883, -0.5415039, -54.7560997, -125.36586, 11.7682934, -0.0426337
0.5756836, -0.0117188, -0.5786133, -54.2682953, -125.1219559, 10.4878054, -0.0453193
0.5644531, -0.0117188, -0.5922852, -54.8780518, -124.146347, 7.4390244, -0.0399481
0.515625, 0.0073242, -0.5893555, -56.341465, -122.9878082, 5.5487804, -0.0439765
0.4643555, 0.0097656, -0.6181641, -57.7439041, -122.8048782, 2.3170731, -0.042298
0.4550781, -0.0112305, -0.6606445, -56.341465, -123.7195129, 0.9146342, -0.0399481
0.449707, -0.1069336, -0.7836914, -49.0853653, -127.8048782, -1.1585366, -0.0419623
0.4418945, -0.1640625, -0.8237305, -46.0365868, -129.5731812, -2.6219513, -0.0466621
0.378418, -0.2460938, -0.8203125, -44.0243912, -131.7682953, -5.4878049, -0.0406195
0.3325195, -0.2553711, -0.7890625, -44.4512215, -132.3170776, -5.3658538, -0.0392767
0.2783203, -0.215332, -0.7250977, -45.4878044, -133.1707306, -1.5853659, -0.0446479
0.2797852, -0.1777344, -0.7104492, -46.1585388, -132.9878082, 4.6951222, -0.0540475
0.3535156, -0.0976562, -0.7001953, -47.0731735, -132.1341553, 7.3780489, -0.0540475
0.4008789, -0.0678711, -0.6860352, -51.1585388, -129.5121918, 11.4634151, -0.056733
0.5024414, -0.0253906, -0.6401367, -53.6585388, -128.1707306, 12.3780489, -0.0651255
0.5957031, -0.0205078, -0.6005859, -56.7682953, -124.7561035, 12.4390249, -0.0688182
0.6264648, -0.0263672, -0.5996094, -57.0731735, -123.0487823, 11.8902445, -0.0698253
0.6621094, -0.0551758, -0.6518555, -55, -119.3902435, 9.7560978, -0.056733
0.6518555, -0.0712891, -0.6972656, -52.5, -117.9878082, 8.1707315, -0.0553902
0.5849609, -0.0869141, -0.7890625, -49.2682953, -115.9756088, 4.6341462, -0.0476692
0.5249023, -0.0839844, -0.8227539, -48.1707344, -115.0609818, 1.7682927, -0.0446479
0.3803711, -0.0849609, -0.8930664, -47.8658562, -115.4268341, 0.9756098, -0.0419623
0.315918, -0.078125, -0.9238281, -47.4390259, -118.0487823, 2.2560976, -0.0372625
0.21875, -0.0922852, -0.9536133, -47.6829262, -119.2682953, 3.3536587, -0.049012
0.1894531, -0.1074219, -0.9433594, -49.6951218, -122.2561035, 6.0365853, -0.0469978
0.1733398, -0.1289062, -0.9199219, -50.4268303, -124.2073212, 7.4390244, -0.0500191
0.2226562, -0.1503906, -0.9501953, -48.3536606, -128.2926788, 10.5487804, -0.0406195
0.2568359, -0.1547852, -0.9741211, -47.0731735, -129.7561035, 11.8292685, -0.0416266
0.3134766, -0.1518555, -0.9926758, -45.7926826, -131.5853729, 12.8658543, -0.0339055
0.3266602, -0.1435547, -0.9804688, -46.0975609, -131.8902435, 13.2926836, -0.0339055
0.3286133, -0.1010742, -0.934082, -46.0975609, -132.6829224, 12.9268293, -0.0359197
0.3330078, -0.0800781, -0.9321289, -42.9878044, -135.4878082, 12.560976, -0.0305486
0.3647461, -0.0581055, -0.9487305, -41.2804871, -136.7682953, 12.2560978, -0.0285344
0.378418, -0.0527344, -0.9516602, -40.1219521, -137.0731812, 10.4268293, -0.0204776
0.3896484, -0.0170898, -0.8789062, -41.5853653, -135.7317047, 9.5731707, -0.0191348
0.3808594, 0.0107422, -0.8164062, -45.7926826, -131.7682953, 7.6829271, -0.0328985
0.4013672, 0.0581055, -0.6987305, -47.8048782, -129.6951294, 7.0121951, -0.0500191
0.484375, 0.0576172, -0.65625, -47.9878044, -126.0975647, 5.4268293, -0.0637827
0.5361328, 0.0332031, -0.6660156, -46.2804871, -124.3292694, 4.3292685, -0.0674754
0.6191406, -0.0527344, -0.7197266, -39.8170738, -121.0975647, 1.3414634, -0.06009
0.6342773, -0.0996094, -0.7602539, -36.4634171, -119.8780518, -0.3048781, -0.056733
0.6020508, -0.159668, -0.862793, -29.6341476, -118.4756088, -4.2073174, -0.056733
0.5380859, -0.1494141, -0.9248047, -25.6707325, -117.4390259, -8.780488, -0.0540475
0.3515625, -0.0668945, -1.0083008, -25.6707325, -117.1341476, -10, -0.0449836
0.2480469, -0.015625, -1.0249023, -27.7439022, -117.7439041, -8.9634151, -0.0325628
0.1079102, 0.0527344, -1.0014648, -30.2439022, -119.2682953, -6.9512196, -0.0318914
0.0913086, 0.0537109, -0.9663086, -35.1829262, -123.7804871, -3.2317073, -0.027863
0.1489258, -0.0141602, -0.8969727, -36.5853653, -126.2804871, -2.0121951, -0.0271916
0.2705078, -0.1123047, -0.9702148, -34.3902435, -130.6097565, -1.3414634, -0.0251774
0.3242188, -0.140625, -1.0625, -31.2195129, -132.5, -1.8902439, -0.0261845
0.3442383, -0.1176758, -1.2285156, -24.7560978, -133.6585388, -3.5365853, -0.0271916
0.3032227, -0.0634766, -1.2543945, -23.5975609, -134.146347, -4.8170733, -0.0275273
0.1904297, 0.0517578, -1.1928711, -26.4634151, -137.9268341, -5.1829271, -0.0379339
0.1499023, 0.0888672, -1.1430664, -30.7317085, -144.7561035, -6.0365853, -0.0392767
0.128418, 0.0932617, -1.0522461, -32.1951218, -147.9268341, -6.890244, -0.0332341
0.1479492, 0.0708008, -1.0244141, -33.6585388, -152.1951294, -8.6585369, -0.0406195
0.2226562, 0.0048828, -0.9970703, -33.3536606, -153.2317047, -9.1463413, -0.0419623
0.2651367, -0.0234375, -0.9868164, -32.6219521, -154.0853729, -9.0243902, -0.0325628
0.3632812, -0.0581055, -0.9604492, -32.1951218, -153.9634247, -8.6585369, -0.0379339
0.4316406, -0.0722656, -0.9291992, -31.6463413, -152.9268341, -8.5975609, -0.042298
0.4350586, -0.059082, -0.90625, -31.1585369, -152.1951294, -9.2682924, -0.0406195
0.4238281, -0.0424805, -0.8911133, -27.560976, -151.0975647, -11.4634151, -0.0500191
0.4150391, -0.0400391, -0.9121094, -24.2682934, -150.7317047, -12.0121956, -0.0553902
0.3740234, -0.0473633, -0.9628906, -16.8902435, -150.7926788, -13.1097565, -0.0621042
0.3481445, -0.0551758, -0.9628906, -12.5, -150.2439117, -13.780488, -0.0715038
0.2758789, -0.0527344, -0.9238281, -12.0121956, -149.3902435, -13.841464, -0.0856031
0.2456055, -0.0463867, -0.9111328, -11.4634151, -147.86586, -12.8048782, -0.0950027
0.21875, -0.0170898, -0.9472656, -10.7926836, -146.8902435, -12.1951218, -0.0970169
0.2143555, 0.0161133, -0.9731445, -10.6097565, -143.5975647, -10.3048782, -0.0970169
0.2148438, 0.0649414, -0.9780273, -11.341464, -141.9512177, -9.6951218, -0.076875
0.2353516, 0.0737305, -0.9228516, -14.5121956, -140.2439117, -8.0487804, -0.0473335
0.2578125, 0.0600586, -0.8862305, -16.0365849, -140, -7.8658538, -0.0194705
0.3383789, 0.0146484, -0.8110352, -17.7439022, -139.146347, -8.2926826, 0.0043641
0.3764648, -0.0063477, -0.7797852, -17.9878044, -137.9268341, -8.9634151, 0.0191348
0.4306641, -0.0224609, -0.7773438, -16.8902435, -133.3536682, -10.3658543, 0.0184634
0.4399414, -0.0175781, -0.824707, -12.9878054, -128.7195129, -11.6463413, 0.0151064
0.4042969, 0.0112305, -1.0029297, -10.8536587, -126.8292694, -12.3170738, 0.0023499
0.3583984, 0.0258789, -1.1088867, -7.6219516, -126.4634171, -13.780488, -0.0117494
0.1953125, 0.0317383, -1.300293, -6.5853658, -128.5365906, -14.0853662, -0.0365911
0.0957031, 0.0141602, -1.3725586, -5.2439027, -136.4024353, -14.0853662, -0.0486763
-0.1020508, -0.0620117, -1.3964844, -5.7317076, -141.4024353, -13.3536587, -0.0446479
-0.2539062, -0.1464844, -1.2724609, -9.3902445, -152.2561035, -11.7073174, -0.0503548
-0.2895508, -0.168457, -1.1923828, -12.2560978, -157.4390259, -10.3048782, -0.0486763
-0.2451172, -0.1396484, -1.0649414, -18.0487804, -163.8414612, -5, -0.0486763
-0.1772461, -0.0898438, -1.0356445, -20.1219521, -164.2682953, -1.6463414, -0.0406195
0.046875, 0.043457, -1.0224609, -24.5731716, -161.9512177, 5.2439027, -0.0365911
0.1586914, 0.1088867, -1.0253906, -30, -157.9878082, 8.2926826, -0.0365911
0.3457031, 0.184082, -1.0136719, -32.0731697, -156.7073212, 8.0487804, -0.0386053
0.409668, 0.1884766, -1.0029297, -34.2073174, -156.7073212, 4.6341462, -0.0392767
0.4628906, 0.1342773, -0.9638672, -33.9024391, -156.8292694, 1.7073171, -0.0339055
0.4536133, 0.0844727, -0.9389648, -31.7682934, -156.4024353, -4.6951222, -0.0339055
0.3613281, -0.0268555, -0.9018555, -30.4878063, -155.6707306, -7.9878049, -0.0439765
0.2172852, -0.0947266, -0.9516602, -28.1097565, -153.5975647, -11.9512196, -0.0493477
0.1328125, -0.0991211, -1.027832, -26.4024391, -152.9268341, -12.9268293, -0.0446479
-0.0395508, -0.0463867, -1.222168, -21.4024391, -151.7073212, -11.4024391, -0.0513619
-0.121582, -0.0131836, -1.3056641, -19.8780499, -151.4634247, -9.7560978, -0.0506905
-0.2631836, 0.0283203, -1.3754883, -21.8902435, -154.8170776, -4.9390244, -0.0533761
-0.3061523, 0.0341797, -1.3408203, -30.060976, -162.1951294, -0.9146342, -0.0621042
-0.3422852, 0.0092773, -1.206543, -34.5731697, -165.9756165, 0.5487805, -0.0506905
-0.3129883, -0.012207, -1.1333008, -40.4878044, -171.7073212, 3.2926829, -0.0396124
-0.1669922, -0.0493164, -1.03125, -41.6463432, -172.3780518, 4.3292685, -0.0352483
-0.0737305, -0.0610352, -0.9907227, -41.8902435, -168.8414612, 5.0609756, -0.0298772
0.1025391, -0.0449219, -0.9223633, -42.6829262, -165.8536682, 5.0609756, -0.0379339
0.2382812, 0.0019531, -0.8769531, -42.9878044, -158.7804871, 4.6951222, -0.0527047
0.2832031, 0.0273438, -0.8710938, -42.9878044, -155.3048859, 3.7195122, -0.0503548
0.2978516, 0.0664062, -0.9248047, -41.1585388, -149.3902435, 0.9146342, -0.0513619
0.2695312, 0.0742188, -0.9838867, -40, -147.2561035, -0.7317073, -0.0365911
0.1445312, 0.0527344, -1.1523438, -37.4390259, -145.9756165, -4.1463413, -0.024506
0.0444336, 0.0351562, -1.2324219, -37.0121956, -147.0121918, -6.4634147, -0.0083925
-0.1923828, 0, -1.3183594, -37.3780479, -148.7804871, -6.4024391, -0.0251774
-0.2949219, -0.0224609, -1.3066406, -40.1829262, -155.3048859, -2.9268293, -0.0574044
-0.4321289, -0.0576172, -1.1577148, -42.6829262, -158.7804871, -0.2439024, -0.0674754
-0.4438477, -0.0761719, -1.0566406, -50.0609779, -162.7439117, 4.5121951, -0.0647898
-0.3461914, -0.0888672, -0.8837891, -53.5365868, -161.9512177, 6.1585369, -0.0580758
-0.1591797, -0.0727539, -0.8740234, -56.2804909, -156.2195129, 8.4756098, -0.0365911
-0.0634766, -0.0517578, -0.934082, -55.4268303, -152.1951294, 9.4512196, -0.014435
0.0717773, -0.0092773, -1.1132812, -49.4512215, -146.7073212, 11.341464, -0.0030213
0.09375, 0.0102539, -1.1865234, -45.4268303, -145.9756165, 11.0365858, 0.014435
0.0131836, 0.0253906, -1.2373047, -38.1707344, -147.6829376, 7.3170733, 0.0345769
-0.0761719, 0.0185547, -1.1992188, -33.4146347, -153.1097565, 1.9512196, 0.0386053
-0.2631836, -0.0234375, -1.0375977, -32.0121956, -155.9756165, -0.1829268, 0.0372625
-0.324707, -0.0498047, -0.9663086, -30.5487804, -159.8170776, -2.3170731, 0.0325628
-0.3413086, -0.0986328, -0.9169922, -29.4512196, -160, -2.4390244, 0.0261845
-0.3046875, -0.1240234, -0.9643555, -25.8536587, -157.2561035, -0.1829268, 0.0218204
-0.2094727, -0.1411133, -1.0952148, -23.5365868, -154.6951294, 1.2804878, 0.0198062
-0.1694336, -0.0576172, -1.1538086, -22.1341476, -150.2439117, 3.7804878, 0.0090639
-0.1782227, 0.0146484, -1.1518555, -23.1097565, -148.9024353, 5.0609756, -0.0023499
-0.2109375, 0.1640625, -1.1196289, -26.1585369, -149.3292694, 4.9390244, -0.014435
-0.2280273, 0.2226562, -1.1064453, -28.2317085, -150.0609741, 3.7804878, -0.017792
-0.237793, 0.2646484, -1.105957, -31.1585369, -151.4634247, 0.9756098, -0.0265202
-0.2304688, 0.2480469, -1.1333008, -33.2926826, -153.9024353, -3.0487804, -0.0547189
-0.2226562, 0.1518555, -1.2026367, -33.6585388, -155.1219482, -5.1219511, -0.0715038
-0.2368164, 0.0991211, -1.222168, -34.3292694, -156.2195129, -9.2073174, -0.0933242
-0.3037109, 0.0175781, -1.2094727, -34.6341476, -157.1341553, -10.3658543, -0.1077592
-0.3457031, 0.0024414, -1.1738281, -37.3170738, -158.5975647, -10.6097565, -0.1171588
-0.4008789, -0.0078125, -1.1049805, -39.0853653, -159.6341553, -10.1219511, -0.1188373
-0.390625, -0.0234375, -1.1098633, -41.7073174, -161.5243988, -8.5365858, -0.1148089
-0.3666992, -0.0429688, -1.1489258, -41.4634171, -162.1951294, -7.3170733, -0.1067521
-0.328125, -0.0917969, -1.2231445, -39.2073174, -163.3536682, -5.4268293, -0.1037308
-0.3271484, -0.1049805, -1.2216797, -38.1097565, -163.5365906, -4.7560978, -0.0943313
-0.3691406, -0.0668945, -1.1347656, -39.0243912, -164.3902435, -2.9268293, -0.087953
-0.3916016, -0.0253906, -1.074707, -42.0731735, -164.146347, -0.4878049, -0.0882887
-0.3930664, 0.0698242, -0.9570312, -43.9634171, -162.5609741, 0.3658537, -0.0869459
-0.3662109, 0.1030273, -0.9033203, -47.5, -157.5609741, 1.5243902, -0.0889601
-0.2802734, 0.1269531, -0.8295898, -48.6585388, -154.7561035, 1.5243902, -0.0889601
-0.2255859, 0.109375, -0.8354492, -50.0609779, -149.5121918, 1.4634147, -0.0896315
-0.1269531, 0.0439453, -0.9624023, -48.6585388, -147.6829376, 0.9756098, -0.0970169
-0.1240234, -0.0214844, -1.1660156, -41.9512215, -145.9756165, -0.1829268, -0.102388
-0.1875, -0.0356445, -1.2426758, -37.5, -146.1585388, -1.402439, -0.0929885
-0.4013672, -0.0327148, -1.2495117, -31.6463413, -148.9024353, -3.2317073, -0.0990311
-0.5273438, -0.0200195, -1.1884766, -30.3658543, -151.4024353, -3.9634147, -0.0889601
-0.6982422, -0.0073242, -1.0068359, -31.5853672, -155.3048859, -3.1707318, -0.0755322
-0.7177734, -0.0112305, -0.9155273, -35.7926826, -154.8780518, -0.2439024, -0.077882
-0.6220703, -0.0395508, -0.7919922, -37.5609779, -152.3780518, 1.3414634, -0.0654612
-0.5249023, -0.0678711, -0.7797852, -36.4634171, -145.2439117, 5.1219511, -0.0584115
-0.2998047, -0.1435547, -0.8666992, -32.5609779, -141.8292694, 6.9512196, -0.0570687
-0.2045898, -0.1704102, -0.9516602, -20.1219521, -139.2682953, 10.1219511, -0.0527047
-0.1083984, -0.2021484, -1.1738281, -12.560976, -139.8780518, 10.2439022, -0.0459907
-0.2036133, -0.1728516, -1.3271484, -0.7926829, -143.3536682, 7.5609756, -0.0436408
-0.3266602, -0.1298828, -1.3369141, 1.8902439, -145.4878082, 5.1829271, -0.0463264
-0.621582, -0.0253906, -1.2563477, 1.097561, -150.2439117, 3.4146342, -0.0419623
-0.7416992, 0.0258789, -1.2080078, -0.9756098, -153.1097565, 4.7560978, -0.0352483
-0.8374023, 0.0986328, -1.1376953, -6.5853658, -157.1951294, 9.3902445, -0.0352483
-0.8208008, 0.1298828, -1.1142578, -14.5121956, -158.1097565, 13.7195129, -0.0325628
-0.7001953, 0.1743164, -1.0722656, -18.780489, -157.9268341, 15.6707325, -0.0265202
-0.6157227, 0.1918945, -1.046875, -27.4390259, -156.3414612, 17.9268303, -0.0271916
-0.4287109, 0.2104492, -0.9897461, -30.9756107, -155.1219482, 18.9024391, -0.03122
-0.2636719, 0.222168, -0.953125, -35.7317085, -152.1951294, 18.2926826, -0.0365911
-0.2148438, 0.2114258, -0.9589844, -37.1951218, -150.6707306, 16.9512196, -0.0574044
-0.1801758, 0.1630859, -1.0205078, -37.5, -148.1097565, 12.3780489, -0.0661326
-0.203125, 0.1333008, -1.0639648, -36.5853653, -147.86586, 9.6951218, -0.0527047
-0.3291016, 0.0761719, -1.1230469, -35.0609779, -149.0853729, 4.3292685, -0.0433051
-0.4204102, 0.0610352, -1.1323242, -35.1829262, -150.6097565, 2.2560976, -0.0342412
-0.6020508, 0.0703125, -1.097168, -37.4390259, -153.4146423, 0.7926829, -0.0171206
-0.6748047, 0.0795898, -1.0791016, -40.3658562, -156.0365906, 2.0731707, -0.011078
-0.7490234, 0.0947266, -1.0595703, -41.8292694, -156.9512177, 3.3536587, -0.0083925
-0.7529297, 0.0888672, -1.0517578, -44.2682953, -158.2926941, 7.2560978, 0.0036927
-0.7026367, 0.019043, -1.0483398, -45.6707344, -159.0243988, 9.0243902, 0.006714
-0.6040039, -0.1152344, -1.0761719, -46.4634171, -161.0365906, 11.4634151, 0.0063783
-0.5576172, -0.1655273, -1.0854492, -46.341465, -161.3414612, 12.6829271, 0.0070497
-0.5268555, -0.1865234, -1.0273438, -45.3048782, -160.6097565, 14.6951227, -0.0010071
-0.5302734, -0.1484375, -0.9682617, -45.1829262, -159.6341553, 15.7317076, -0.0194705
-0.550293, -0.0214844, -0.8671875, -43.7804871, -156.2195129, 17.560976, -0.0265202
-0.5473633, 0.0302734, -0.8510742, -39.7560997, -153.4756165, 17.0731716, -0.0318914
-0.5112305, 0.0585938, -0.8935547, -36.8902435, -153.1097565, 16.2195129, -0.0443122
-0.4936523, 0.0454102, -0.9174805, -31.8902454, -152.5, 14.0243902, -0.0533761
-0.4814453, -0.012207, -0.9335938, -29.8170738, -153.0487823, 13.1097565, -0.0647898
-0.4897461, -0.0415039, -0.9150391, -26.280489, -154.0853729, 12.7439032, -0.0681468
-0.5292969, -0.0766602, -0.8779297, -24.0243912, -153.2926941, 12.8048782, -0.063447
-0.5776367, -0.0498047, -0.8579102, -20.2439022, -149.7561035, 12.1951218, -0.0577401
-0.6074219, -0.0131836, -0.8554688, -18.7195129, -147.4390259, 12.0731707, -0.0500191
-0.6469727, 0.0776367, -0.8686523, -17.7439022, -143.2317047, 11.5243902, -0.0463264
-0.6523438, 0.1259766, -0.8857422, -18.4756107, -141.7073212, 11.6463413, -0.0406195
-0.6455078, 0.1923828, -0.9541016, -20.9756107, -140.4268341, 12.4390249, -0.0285344
-0.6347656, 0.2050781, -1.003418, -23.7195129, -141.1585388, 12.8048782, -0.0151064
-0.625, 0.1918945, -1.1079102, -24.4512196, -142.4390259, 12.1341467, 0.003357
-0.6420898, 0.171875, -1.1567383, -24.2073174, -146.4634247, 9.8780489, 0.0130922
-0.7236328, 0.1152344, -1.2373047, -23.1707325, -149.6341553, 8.5975609, 0.0204776
-0.7744141, 0.0786133, -1.2568359, -20.7926826, -157.2561035, 6.5853658, 0.017792
-0.887207, 0.0043945, -1.2416992, -20.4268303, -160.9146423, 6.2195125, 0.0090639
-0.9765625, -0.0405273, -1.1376953, -23.1707325, -167.2561035, 7.1341467, 0.0036927
-0.9970703, -0.0439453, -1.0678711, -25.7317085, -169.4512177, 8.4756098, -0.0030213
-0.9526367, -0.0117188, -0.9404297, -30.5487804, -170.5487823, 12.7439032, -0.0023499
-0.8920898, 0.0219727, -0.8969727, -32.4390259, -169.3292694, 15, -0.0030213
-0.730957, 0.0952148, -0.8466797, -36.2804871, -164.6341553, 19.4512196, -0.0083925
-0.640625, 0.125, -0.8442383, -38.4756088, -160.4268341, 21.280489, -0.011078
-0.4936523, 0.1347656, -0.8847656, -38.2317085, -159.146347, 21.0365868, -0.011078
-0.4487305, 0.1142578, -0.9140625, -36.2195129, -157.4390259, 18.1707325, -0.0151064
-0.4604492, 0.0537109, -0.9379883, -34.7560997, -157.3170776, 16.0365849, -0.010071
-0.5102539, 0.0161133, -0.9204102, -31.7682934, -157.8048859, 12.7439032, -0.011078
-0.6464844, -0.0385742, -0.8549805, -30.060976, -158.1707306, 11.9512196, -0.03122
-0.7705078, -0.0776367, -0.8115234, -28.0487804, -157.86586, 11.6463413, -0.0674754
-0.8125, -0.0810547, -0.8129883, -26.5853672, -157.1951294, 11.8292685, -0.0835889
-0.8525391, -0.0722656, -0.8427734, -25, -153.8414612, 14.8170738, -0.0802319
-0.8579102, -0.0507812, -0.8691406, -24.5121956, -151.8292694, 16.5243912, -0.0741894
-0.8393555, 0.0107422, -0.8911133, -24.8780499, -148.3536682, 20.7317085, -0.0560616
-0.8237305, 0.0585938, -0.8876953, -27.2560978, -144.6951294, 23.0487804, -0.0476692
-0.8061523, 0.15625, -0.8706055, -28.5975609, -143.4146423, 23.3536587, -0.0359197
-0.7958984, 0.1938477, -0.8637695, -30.4878063, -141.5243988, 23.0487804, -0.0399481
-0.7700195, 0.2294922, -0.8427734, -31.1585369, -140.9756165, 21.8292694, -0.0365911
-0.7543945, 0.2265625, -0.824707, -33.9024391, -140.3048859, 18.8414631, -0.0325628
-0.7255859, 0.1953125, -0.7792969, -35.5487823, -139.2682953, 17.1951218, -0.0399481
-0.7109375, 0.1523438, -0.7285156, -37.9268303, -136.5243988, 14.5121956, -0.0527047
-0.7075195, 0.1381836, -0.715332, -38.1097565, -134.2682953, 13.5975609, -0.0480049
-0.7026367, 0.1069336, -0.7329102, -36.2195129, -130.0609741, 12.1951218, -0.0392767
-0.7026367, 0.0927734, -0.7583008, -34.3902435, -128.1707306, 11.341464, -0.0332341
-0.7373047, 0.0634766, -0.8203125, -30.2439022, -126.4634171, 9.2682924, -0.0292058
-0.7661133, 0.0517578, -0.8457031, -27.6219521, -125.5487823, 7.6829271, -0.0258488
-0.840332, 0.059082, -0.8671875, -26.6463413, -125.18293, 7.0731707, -0.024506
-0.8774414, 0.078125, -0.8647461, -27.4390259, -124.2682953, 7.1341467, -0.0191348
-0.9326172, 0.1323242, -0.8681641, -28.1707325, -124.2682953, 7.8048782, -0.0171206
-0.9335938, 0.1547852, -0.875, -30.3658543, -124.0853653, 9.0243902, -0.0224918
-0.9155273, 0.1689453, -0.8798828, -32.1951218, -124.5121994, 9.9390249, -0.0453193
-0.8662109, 0.1518555, -0.8769531, -35.3658562, -126.1585388, 10.9756098, -0.0745251
-0.8413086, 0.1313477, -0.8735352, -36.0975609, -127.1341476, 11.280488, -0.0862745
-0.7973633, 0.0854492, -0.8920898, -35.6707344, -129.9390259, 11.5243902, -0.0983597
-0.7856445, 0.0595703, -0.9077148, -34.2073174, -131.5853729, 11.4634151, -0.1030594
-0.7988281, 0.019043, -0.9350586, -30.2439022, -134.0853729, 10.7926836, -0.0997024
-0.8261719, 0.0073242, -0.9375, -28.2317085, -137.1951294, 9.6951218, -0.1000381
-0.8935547, -0.0014648, -0.9228516, -27.0731716, -139.3292694, 9.7560978, -0.1104448
-0.9223633, -0.0019531, -0.9160156, -25.7926826, -142.9268341, 11.4024391, -0.105745
-0.9511719, 0.0117188, -0.8930664, -25.060976, -144.5731812, 12.7439032, -0.0822461
-0.9433594, 0.0224609, -0.8793945, -25.060976, -146.2804871, 15.6707325, -0.0547189
-0.9057617, 0.0493164, -0.8271484, -25.7317085, -146.9512177, 16.9512196, -0.0298772
-0.8505859, 0.1074219, -0.746582, -28.2317085, -146.3414612, 19.0243912, 0.0046998
-0.8178711, 0.1445312, -0.7207031, -29.0243912, -145.1829376, 19.3902435, 0.0234989
-0.7543945, 0.1938477, -0.7119141, -28.3536587, -143.5365906, 19.5731716, 0.0238346
-0.7265625, 0.2099609, -0.722168, -26.9512196, -143.0487823, 19.3292694, 0.0097353
-0.703125, 0.199707, -0.7226562, -25.8536587, -142.4390259, 16.8292694, -0.0359197
-0.7192383, 0.1889648, -0.706543, -27.5, -141.2804871, 13.780488, -0.0872816
-0.7700195, 0.1791992, -0.6435547, -28.9634151, -140.7317047, 12.3780489, -0.109102
-0.7978516, 0.1884766, -0.6132812, -32.1951218, -137.0121918, 11.6463413, -0.1054093
-0.8344727, 0.2216797, -0.5727539, -33.5975609, -134.3292694, 11.4634151, -0.0849317
-0.8378906, 0.2397461, -0.5644531, -35.9146347, -128.3536682, 11.4634151, -0.0547189
-0.8300781, 0.2568359, -0.5620117, -37.4390259, -125.8536606, 11.1585369, -0.0198062
-0.8125, 0.2402344, -0.5791016, -40.4268303, -121.5853653, 10.1829271, 0.0050355
-0.8066406, 0.2226562, -0.5947266, -41.7682953, -119.5731735, 9.2073174, 0.0281987
-0.8208008, 0.1870117, -0.6313477, -41.8902435, -116.8902435, 8.2317076, 0.0560616
-0.8398438, 0.1621094, -0.6547852, -40.7926826, -116.0365906, 7.5609756, 0.0580758
-0.8935547, 0.1040039, -0.7094727, -37.9878044, -116.0365906, 6.1585369, 0.0473335
-0.9296875, 0.0693359, -0.7426758, -33.4756088, -118.3536606, 5.1219511, 0.0533761
-1.0048828, -0.0024414, -0.7998047, -31.341465, -120.3048782, 4.390244, 0.0527047
-1.0415039, -0.0322266, -0.8208008, -26.280489, -123.1097565, 4.4512196, 0.0439765
-1.1030273, -0.0615234, -0.8212891, -24.5121956, -124.0853653, 5.3658538, 0.0271916
-1.1240234, -0.0517578, -0.8085938, -22.2560978, -125, 8.2926826, -0.0171206
-1.1357422, -0.003418, -0.7631836, -21.7682934, -125.1219559, 10.4268293, -0.0520333
-1.0917969, 0.0498047, -0.7172852, -21.6463413, -124.5731735, 14.3902445, -0.070161
-1.0512695, 0.0732422, -0.6967773, -21.7073174, -124.146347, 16.3414631, -0.0715038
-0.9643555, 0.0961914, -0.6650391, -20.7317085, -124.146347, 19.3292694, -0.0839246
-0.9291992, 0.0976562, -0.6503906, -19.8170738, -124.3292694, 19.8780499, -0.0916457
-0.878418, 0.1030273, -0.6303711, -17.439024, -124.5731735, 19.5121956, -0.0869459
-0.8686523, 0.1098633, -0.6210938, -14.8780489, -123.7804871, 17.0731716, -0.0862745
-0.8891602, 0.1459961, -0.6132812, -13.5365858, -123.4756088, 15.7926836, -0.0943313
-0.9155273, 0.1630859, -0.6098633, -12.3170738, -121.7682953, 13.4756098, -0.1050736
-0.9702148, 0.1977539, -0.6049805, -12.3170738, -121.4024429, 12.7439032, -0.1272297
-0.9951172, 0.2055664, -0.6040039, -11.7073174, -120.9146347, 12.2560978, -0.1571069
-1.0268555, 0.1943359, -0.5942383, -11.0975609, -120.7317123, 12.560976, -0.1708705
-1.027832, 0.1435547, -0.6044922, -10.1219511, -120.5487823, 13.2926836, -0.1722133
-1.0258789, 0.1025391, -0.6118164, -9.6951218, -120.4878082, 14.1463413, -0.1540856
-1.0078125, 0.0356445, -0.6289062, -7.3780489, -120.4878082, 14.4512196, -0.1252155
-1.0039062, 0.0209961, -0.6464844, -5.7926831, -120, 14.2073174, -0.0929885
-1.0200195, 0.0385742, -0.6333008, -3.2926829, -117.5, 13.4146347, -0.0641184
-1.0317383, 0.0761719, -0.6225586, -2.9268293, -113.6585388, 12.6829271, -0.0359197
-1.046875, 0.1694336, -0.5854492, -4.0853658, -111.3414688, 12.8658543, -0.0224918
-1.0458984, 0.222168, -0.5541992, -7.2560978, -107.9268341, 14.0243902, -0.0271916
-1.0083008, 0.3046875, -0.4985352, -9.1463413, -106.8292694, 14.5731707, -0.0342412
-0.972168, 0.324707, -0.4760742, -13.3536587, -104.2073212, 14.6951227, -0.0412909
-0.9091797, 0.3164062, -0.4472656, -15.4268293, -102.8048782, 13.841464, -0.0916457
-0.8706055, 0.2749023, -0.4560547, -17.3780499, -100.1219559, 11.280488, -0.1554284
-0.8740234, 0.2480469, -0.4667969, -17.1951218, -98.9634171, 9.4512196, -0.200412
-0.9145508, 0.1987305, -0.4902344, -15.5487804, -96.4634171, 5.8536587, -0.2138399
-0.9438477, 0.1791992, -0.4951172, -15.3048782, -95.3048782, 4.0243902, -0.1910124
-1.0263672, 0.1679688, -0.4990234, -16.280489, -92.9268341, 0.7926829, -0.1654994
-1.0605469, 0.1767578, -0.5039062, -18.7195129, -89.8780518, -0.6707317, -0.1279011
-1.1108398, 0.203125, -0.5102539, -20.2439022, -88.1097565, -0.6097561, -0.0728466
-1.1196289, 0.2167969, -0.5209961, -22.2560978, -85.1219559, 0.7926829, -0.0097353
-1.1049805, 0.2226562, -0.546875, -23.1707325, -84.3292694, 1.5853659, 0.0238346
-1.0898438, 0.2182617, -0.5561523, -24.6341476, -83.8414688, 3.3536587, -0.0318914
-1.0571289, 0.1606445, -0.5732422, -24.8780499, -84.6951218, 4.0853658, -0.0584115
-1.0292969, 0.0966797, -0.5756836, -24.3902435, -85.8536606, 4.4512196, -0.0308843
-1.0283203, 0.0712891, -0.578125, -23.0487804, -86.4024429, 4.4512196, 0.0104067
-1.0405273, 0.043457, -0.5737305, -19.939024, -86.8902435, 4.0243902, 0.0251774
-1.0463867, 0.0449219, -0.5668945, -18.4146347, -86.7073212, 4.0853658, 0.0446479
-1.0620117, 0.0673828, -0.5512695, -17.6829281, -86.5853653, 4.390244, 0.0453193
-1.0664062, 0.0766602, -0.5439453, -16.280489, -86.7682953, 4.4512196, 0.0171206
-1.0625, 0.1035156, -0.5302734, -15.7317076, -86.7682953, 5.1829271, 0.0157778
-1.0532227, 0.1108398, -0.5297852, -13.9634151, -87.4390259, 6.2195125, 0.0265202
-1.0288086, 0.1230469, -0.5415039, -13.3536587, -87.6219559, 7.3780489, 0.0292058
-1.0161133, 0.125, -0.5405273, -12.3780489, -88.1097565, 8.1707315, 0.0365911
-1.0087891, 0.1289062, -0.5332031, -12.3170738, -88.6585388, 8.841464, 0.0466621
-1.0117188, 0.1376953, -0.5068359, -12.3780489, -89.8780518, 8.4756098, 0.0527047
-1.0166016, 0.1411133, -0.4956055, -11.9512196, -90.0609741, 8.2317076, 0.0493477
-1.0161133, 0.1508789, -0.4770508, -11.5853662, -90.18293, 7.9878049, 0.014435
-1.0180664, 0.1538086, -0.4711914, -11.219512, -90, 7.9878049, -0.0154421
-1.0195312, 0.159668, -0.4711914, -10.6707315, -89.146347, 7.6219516, -0.0513619
-1.0249023, 0.1552734, -0.4760742, -9.4512196, -88.9634171, 8.2926826, -0.0762036
-1.0263672, 0.1464844, -0.4790039, -9.8170738, -89.0243912, 8.780488, -0.0862745
-1.0244141, 0.1435547, -0.4848633, -10.3048782, -88.6585388, 9.2682924, -0.0728466
-1.0092773, 0.1376953, -0.4951172, -10.3048782, -87.7439041, 9.2682924, -0.073518
-0.9936523, 0.1591797, -0.4995117, -11.0975609, -86.2804871, 9.4512196, -0.0496834
-0.9902344, 0.1699219, -0.4936523, -11.4634151, -85.6097565, 9.3902445, -0.0087282
-0.9794922, 0.1928711, -0.4814453, -12.0121956, -84.8780518, 9.5731707, 0.0218204
-0.9750977, 0.1982422, -0.4829102, -12.3170738, -84.5731735, 9.7560978, 0.0527047
-0.9609375, 0.1870117, -0.4824219, -12.8658543, -84.8170776, 10, 0.0748608
-0.9550781, 0.1762695, -0.484375, -13.1097565, -85.0609741, 9.9390249, 0.0936599
-0.956543, 0.1640625, -0.4731445, -12.8048782, -85.4268341, 9.3292685, 0.1030594
-0.9624023, 0.1577148, -0.4697266, -11.8902445, -85.18293, 8.4756098, 0.0882887
-0.9897461, 0.1430664, -0.4619141, -11.6463413, -84.6951218, 8.1707315, 0.066804
-0.9970703, 0.1386719, -0.4658203, -11.5243902, -83.2926865, 7.6829271, 0.0493477
-1.0185547, 0.1367188, -0.4619141, -11.8902445, -82.2560959, 7.8048782, 0.035584
-1.0327148, 0.1523438, -0.4404297, -12.5, -80.18293, 8.4756098, 0.0191348
-1.0336914, 0.1635742, -0.4262695, -13.1097565, -78.9024429, 8.6585369, 0.0010071
-1.0253906, 0.1865234, -0.4018555, -13.9634151, -76.3414688, 9.6951218, -0.0218204
-1.012207, 0.1982422, -0.3969727, -14.5121956, -75, 9.9390249, -0.0513619
-0.9780273, 0.2158203, -0.3935547, -15.5487804, -72.0121994, 10, -0.0654612
-0.9663086, 0.21875, -0.3969727, -16.3414631, -70.5487823, 9.9390249, -0.076875
-0.9619141, 0.2202148, -0.4082031, -17.1341476, -68.2926865, 8.9634151, -0.0943313
-0.9628906, 0.2172852, -0.4140625, -17.8658543, -67.0121994, 8.6585369, -0.105745
-0.9741211, 0.2050781, -0.4228516, -17.8658543, -66.4634171, 8.5365858, -0.1144732
-0.9780273, 0.1962891, -0.4150391, -18.9634151, -65.7926865, 8.4756098, -0.1171588
-0.9897461, 0.1870117, -0.3994141, -19.5731716, -65, 8.3536587, -0.1107805
-0.9985352, 0.1733398, -0.3867188, -20.5487804, -62.68293, 7.8658538, -0.0976883
-0.9970703, 0.1762695, -0.387207, -20.6097565, -61.7073174, 7.5, -0.1064164
-0.9863281, 0.184082, -0.409668, -20.6707325, -59.5121956, 7.0731707, -0.105745
-0.9897461, 0.1923828, -0.4189453, -20.4878044, -58.1097565, 6.890244, -0.1111162
-0.9926758, 0.1928711, -0.4477539, -19.3292694, -57.5, 5.9756098, -0.1420005
-0.9975586, 0.1938477, -0.4599609, -18.0487804, -58.5975609, 5.9146342, -0.1634852
-1.0092773, 0.1650391, -0.4990234, -17.6829281, -59.7560997, 5.7926831, -0.1426719
-1.015625, 0.1430664, -0.5107422, -17.1951218, -61.7073174, 5.9756098, -0.1305867
-1.0395508, 0.1025391, -0.5253906, -16.9512196, -62.3170738, 5.7317076, -0.1104448
-1.0566406, 0.0893555, -0.5205078, -16.4024391, -62.9878082, 6.280488, -0.0960098
-1.0732422, 0.0898438, -0.5014648, -16.4634151, -62.9878082, 6.7073174, -0.0929885
-1.0639648, 0.1186523, -0.4726562, -17.0121956, -61.8902435, 7.5609756, -0.0876173
-1.0585938, 0.1357422, -0.4609375, -17.3780499, -61.0975609, 7.9268293, -0.0688182
-1.0356445, 0.1542969, -0.4443359, -17.0121956, -60.3658562, 8.9024391, -0.0621042
-1.0219727, 0.1538086, -0.4414062, -16.280489, -60.6097565, 9.0853662, -0.0647898
-0.9912109, 0.1450195, -0.4458008, -14.8170738, -60.9756126, 10.3048782, -0.0574044
-0.9746094, 0.1352539, -0.4462891, -13.5975609, -61.0365868, 10.1829271, -0.0459907
-0.972168, 0.1245117, -0.4399414, -12.9268293, -60.6707344, 9.7560978, -0.0433051
-0.9824219, 0.1298828, -0.434082, -11.341464, -60.5487823, 8.5365858, -0.0446479
-1.0205078, 0.1479492, -0.4379883, -10.7317076, -60.0609779, 7.8048782, -0.0396124
-1.034668, 0.1630859, -0.4448242, -10.1829271, -59.2073174, 7.4390244, -0.0342412
-1.0634766, 0.1762695, -0.4570312, -10.3048782, -58.9024391, 7.5, -0.0352483
-1.078125, 0.175293, -0.456543, -11.8902445, -58.2317085, 8.5365858, -0.024506
-1.0737305, 0.1757812, -0.4482422, -12.6219511, -57.6219521, 9.1463413, -0.0198062
-1.065918, 0.1660156, -0.4204102, -13.4146347, -56.4634171, 10.4268293, -0.0124208
-1.0537109, 0.1621094, -0.4013672, -13.4756098, -55.5487823, 10.9756098, -0.0083925
-1.0258789, 0.1533203, -0.3862305, -13.3536587, -53.7195129, 11.5243902, -0.014435
-1.0107422, 0.1523438, -0.3823242, -12.8658543, -50.9146347, 10.9146347, -0.0154421
-0.9863281, 0.1591797, -0.3813477, -12.4390249, -49.2073174, 10.4268293, -0.0083925
-0.9829102, 0.1694336, -0.3833008, -12.3170738, -46.2195129, 9.7560978, -0.0164492
-0.9892578, 0.1855469, -0.3911133, -12.4390249, -44.9390259, 9.3902445, -0.0238346
-0.9921875, 0.2001953, -0.394043, -13.841464, -42.5, 9.0243902, -0.0191348
-0.9985352, 0.2241211, -0.3857422, -15.1219511, -41.5853653, 8.780488, -0.0097353
-0.9970703, 0.2446289, -0.3764648, -17.8658543, -38.4146347, 7.8048782, -0.0184634
-0.9897461, 0.2563477, -0.378418, -18.8414631, -37.1951218, 7.6219516, -0.024506
-0.9775391, 0.2573242, -0.3901367, -20.6707325, -34.8780479, 7.3780489, -0.0231632
-0.9707031, 0.2451172, -0.4052734, -21.280489, -33.7804871, 7.1341467, -0.0298772
-0.96875, 0.2163086, -0.4204102, -22.3170738, -32.6829262, 5.670732, -0.0271916
-0.9697266, 0.1987305, -0.4282227, -22.6219521, -32.0731697, 4.390244, -0.014435
-0.9892578, 0.1733398, -0.440918, -22.3780499, -31.7073174, 3.3536587, -0.011078
-0.9995117, 0.1689453, -0.449707, -21.0365868, -29.7560978, 2.0121951, -0.0191348
-1.0322266, 0.1723633, -0.4746094, -20.2439022, -28.841465, 1.9512196, -0.0365911
-1.0507812, 0.1689453, -0.4804688, -19.1463413, -28.0487804, 2.5, -0.0436408
-1.0664062, 0.1513672, -0.4941406, -18.3536587, -28.4756107, 3.5365853, -0.0459907
-1.0644531, 0.1123047, -0.487793, -18.0487804, -29.0853672, 5.4268293, -0.0513619
-1.0541992, 0.0922852, -0.4819336, -17.8658543, -28.841465, 6.1585369, -0.0815747
-1.0454102, 0.0791016, -0.4672852, -16.8292694, -28.4146347, 6.5853658, -0.161471
-1.0429688, 0.0786133, -0.4628906, -15.7317076, -27.560976, 7.0731707, -0.1722133
-1.0463867, 0.0966797, -0.465332, -13.7195129, -26.0365868, 7.5609756, -0.1453574
-1.050293, 0.1030273, -0.4750977, -11.5853662, -25.4268303, 8.4146347, -0.0990311
-1.0488281, 0.0927734, -0.4921875, -10.1219511, -25.9146347, 9.6341467, -0.0234989
-1.0444336, 0.0825195, -0.4931641, -7.5609756, -27.5, 11.341464, 0.0560616
-1.0317383, 0.0390625, -0.4858398, -6.4634147, -28.1097565, 12.3170738, 0.1245441
-1.0273438, 0.0288086, -0.4682617, -4.4512196, -28.6585369, 12.9878054, 0.154757
-1.0185547, 0.0341797, -0.4291992, -3.3536587, -27.8658543, 13.0487804, 0.144686
-1.0166016, 0.0869141, -0.4106445, -1.8292683, -25.4878063, 12.8658543, 0.1195087
-1.015625, 0.1176758, -0.409668, -1.0365853, -24.0243912, 12.8048782, 0.0983597
-0.9970703, 0.1816406, -0.4223633, 0.2439024, -21.5853672, 13.5975609, 0.0708324
-0.9829102, 0.203125, -0.4248047, 0.3658537, -20.6707325, 13.841464, 0.0399481
-0.9697266, 0.2216797, -0.4248047, -0.4268293, -20.3048782, 13.6585369, 0.0104067
-0.9702148, 0.2197266, -0.4194336, 0, -20.6707325, 13.3536587, -0.011078
-0.9594727, 0.1914062, -0.4072266, 0.2439024, -20.6707325, 13.1707315, -0.0325628
-0.9545898, 0.1704102, -0.4042969, 1.0365853, -19.5731716, 12.4390249, -0.0386053
-0.9560547, 0.1376953, -0.4018555, 1.0365853, -18.0487804, 11.5243902, -0.0473335
-0.9628906, 0.137207, -0.4013672, 1.4634147, -14.7560978, 10.2439022, -0.0580758
-0.9790039, 0.1611328, -0.3979492, 2.3170731, -12.8658543, 9.8170738, -0.0849317
-0.987793, 0.2021484, -0.4042969, 2.5, -9.6341467, 9.8170738, -0.1064164
-0.9824219, 0.2163086, -0.4077148, 2.7439024, -8.4756098, 9.8780489, -0.115816
-0.9741211, 0.2275391, -0.4418945, 3.0487804, -6.7073174, 9.9390249, -0.1174945
-0.9711914, 0.2182617, -0.4560547, 3.0487804, -6.6463418, 9.6341467, -0.1198444
-0.9794922, 0.1899414, -0.4672852, 3.0487804, -6.7073174, 8.9634151, -0.119173
-0.9887695, 0.1738281, -0.4580078, 2.0731707, -6.280488, 8.719512, -0.119173
-1.0039062, 0.1479492, -0.4008789, 1.7682927, -5.609756, 8.719512, -0.1221942
-1.0073242, 0.1362305, -0.375, 2.3780489, -2.8658538, 8.9024391, -0.1252155
-0.9931641, 0.1152344, -0.3525391, 3.3536587, -0.8536586, 9.1463413, -0.1094377
-0.9750977, 0.1147461, -0.3540039, 5.4268293, 3.5365853, 10.060976, -0.1077592
-0.9492188, 0.1103516, -0.3696289, 6.280488, 5.8536587, 9.9390249, -0.0876173
-0.9511719, 0.1186523, -0.375, 8.2317076, 9.6951218, 9.4512196, -0.0708324
-0.9555664, 0.1293945, -0.3759766, 9.3902445, 11.5243902, 9.3292685, -0.0718395
-0.9736328, 0.1674805, -0.3754883, 10.4268293, 15.2439032, 8.9634151, -0.0738537
-0.9790039, 0.1870117, -0.3706055, 10.5487804, 16.8292694, 8.4756098, -0.063447
-0.9902344, 0.2167969, -0.371582, 10.1829271, 19.8170738, 7.7439027, -0.0540475
-0.9941406, 0.21875, -0.3691406, 9.0243902, 22.1951218, 7.6219516, -0.0594186
-0.9912109, 0.2050781, -0.371582, 8.9634151, 23.5975609, 7.5609756, -0.063447
-0.9892578, 0.2006836, -0.3720703, 8.3536587, 27.3780499, 7.3780489, -0.0560616
-0.9882812, 0.1992188, -0.3735352, 8.1707315, 29.2682934, 7.1341467, -0.0553902
-0.987793, 0.1928711, -0.3881836, 8.841464, 32.1951218, 6.4024391, -0.0547189
-0.9853516, 0.1757812, -0.4306641, 8.841464, 33.2317085, 6.0975609, -0.0392767
-0.996582, 0.1616211, -0.4633789, 8.9024391, 35.0609779, 5.609756, -0.024506
-1.0087891, 0.1499023, -0.4677734, 8.5975609, 35.2439041, 5.0609756, -0.0104067
-1.0151367, 0.1362305, -0.4799805, 9.2073174, 35, 4.8780489, 0.0036927
-1.0166016, 0.1313477, -0.4946289, 9.9390249, 34.9390259, 5.1219511, 0.0208133
-1.0209961, 0.1142578, -0.503418, 11.1585369, 34.9390259, 5.9146342, 0.0271916
-1.0195312, 0.1074219, -0.4941406, 11.4024391, 34.8170738, 6.4024391, 0.0271916
-1.0200195, 0.1079102, -0.4555664, 11.280488, 35.3658562, 6.5853658, 0.0292058
-1.0151367, 0.1142578, -0.4458008, 12.1341467, 37.1951218, 6.5243902, 0.0127565
-1.0073242, 0.152832, -0.4472656, 13.0487804, 38.5365868, 6.8292685, -0.0057069
-1.0039062, 0.1733398, -0.4580078, 14.0243902, 40.5487823, 6.3414636, -0.0191348
-1.0004883, 0.2026367, -0.4790039, 14.2682934, 41.2195129, 6.1585369, -0.0318914
-1.0175781, 0.2060547, -0.5019531, 13.9024391, 42.1951218, 5, -0.0466621
-1.027832, 0.2001953, -0.5107422, 13.7195129, 42.3170738, 4.8780489, -0.0661326
-1.0532227, 0.1850586, -0.5102539, 13.2926836, 43.1097565, 4.7560978, -0.1641566
-1.0600586, 0.1694336, -0.5083008, 12.8658543, 43.0487823, 4.9390244, -0.232639
-1.0556641, 0.1411133, -0.4960938, 12.6219511, 43.9024391, 5.7317076, -0.2232395
-1.0463867, 0.1308594, -0.4814453, 12.3780489, 46.1585388, 6.5243902, -0.1795987
-1.0229492, 0.128418, -0.456543, 12.3780489, 47.7439041, 6.9512196, -0.1205158
-1.0112305, 0.1367188, -0.4516602, 12.2560978, 51.4024391, 7.5609756, -0.0654612
-0.9868164, 0.1513672, -0.4614258, 12.9268293, 52.5, 7.4390244, -0.024506
-0.9726562, 0.159668, -0.4760742, 14.1463413, 54.5121956, 6.7682929, -0.0057069
-0.96875, 0.1777344, -0.5019531, 14.4512196, 55.3658562, 6.280488, 0.0036927
-0.9858398, 0.1904297, -0.4985352, 13.1097565, 56.2195129, 5.4268293, 0.0010071
-0.9931641, 0.1923828, -0.4814453, 12.0731707, 56.7073174, 5.0609756, 0.0191348
-0.9858398, 0.1777344, -0.4702148, 10.7317076, 58.0487823, 5.2439027, 0.0251774
-0.9765625, 0.1621094, -0.4790039, 10.4878054, 59.4512215, 5.5487804, 0.03122
-0.9501953, 0.1445312, -0.5014648, 11.0975609, 61.7073174, 5.7317076, 0.0459907
-0.949707, 0.140625, -0.5136719, 11.9512196, 63.1097565, 4.8780489, 0.0530404
-0.965332, 0.1303711, -0.550293, 13.1097565, 63.0487823, 4.6341462, 0.0580758
-0.9790039, 0.1235352, -0.5703125, 14.6951227, 62.68293, 4.3292685, 0.0527047
-1.0107422, 0.1230469, -0.5756836, 14.8780489, 62.8048782, 4.2682929, 0.0533761
-1.0200195, 0.1367188, -0.5644531, 14.1463413, 63.841465, 5.1829271, 0.0473335
-1.0249023, 0.1650391, -0.5288086, 13.1707315, 65.0609741, 5.4268293, 0.0352483
-1.0024414, 0.1962891, -0.496582, 11.8292685, 67.4390259, 6.6463418, 0.021149
-0.9741211, 0.2036133, -0.4804688, 11.1585369, 68.9024429, 7.5, 0.0117494
-0.9208984, 0.1958008, -0.472168, 10.1829271, 72.68293, 7.7439027, -0.0060426
-0.8955078, 0.1845703, -0.4770508, 10.3048782, 74.0243912, 7.3170733, -0.0191348
-0.8842773, 0.1567383, -0.5092773, 11.341464, 76.5243912, 5.8536587, -0.0285344
-0.894043, 0.1484375, -0.5327148, 13.841464, 77.5609741, 3.9634147, -0.0392767
-0.9414062, 0.1303711, -0.5654297, 14.8780489, 77.8048782, 3.0487804, -0.0728466
-0.9672852, 0.1347656, -0.5751953, 15.6097565, 78.6585388, 1.2804878, -0.102388
-1.0258789, 0.1606445, -0.5791016, 15.4878054, 79.8170776, 0.7926829, -0.1117876
-1.0458984, 0.1762695, -0.5810547, 14.8780489, 82.3780518, 1.6463414, -0.1037308
-1.0439453, 0.2260742, -0.5834961, 13.841464, 83.3536606, 2.6219513, -0.0970169
-0.9941406, 0.2246094, -0.5717773, 12.2560978, 84.6341476, 4.5121951, -0.0835889
-0.9648438, 0.2099609, -0.5605469, 11.5243902, 84.8780518, 5, -0.0715038
-0.9223633, 0.1816406, -0.5449219, 10.9146347, 85.2439041, 3.4146342, -0.1000381
-0.9125977, 0.1694336, -0.5463867, 10.9146347, 86.3414688, 2.5, -0.1379721
-0.9321289, 0.1767578, -0.5605469, 12.0731707, 88.4146347, -0.0609756, -0.1607996
-0.9501953, 0.1811523, -0.5556641, 12.6829271, 89.8170776, -1.5853659, -0.1688563
-0.9838867, 0.1875, -0.5424805, 12.2560978, 90.3658524, -2.195122, -0.1675135
-0.9897461, 0.184082, -0.5410156, 9.8780489, 92.68293, -2.3170731, -0.119173
-0.9794922, 0.1860352, -0.5620117, 9.6341467, 93.8414688, -2.6219513, -0.0570687
-0.9575195, 0.1694336, -0.6230469, 9.8780489, 95.9756088, -1.7073171, 0.0030213
-0.9482422, 0.1606445, -0.6533203, 10.5487804, 96.0975647, -1.6463414, 0.0527047
-0.9643555, 0.1328125, -0.6772461, 11.7682934, 94.6341476, -2.1341465, 0.0802319
-0.9833984, 0.1132812, -0.6630859, 11.4024391, 93.5365906, -2.6829269, 0.0923171
-1.0146484, 0.109375, -0.637207, 10.9146347, 91.8292694, -2.5, 0.0909743
-1.0214844, 0.1142578, -0.6401367, 11.280488, 91.7073212, -1.5853659, 0.0553902
-1.0185547, 0.1337891, -0.668457, 12.3780489, 92.3170776, 0.1829268, 0.027863
-1.0180664, 0.1328125, -0.6879883, 13.0487804, 91.5243912, 1.097561, 0.0117494
-1.0229492, 0.1303711, -0.6904297, 13.0487804, 90.6097565, 1.2804878, -0.0097353
-1.0332031, 0.1269531, -0.6713867, 12.3170738, 88.9634171, 2.4390244, -0.0221561
-1.0395508, 0.1181641, -0.6176758, 11.7682934, 88.4756088, 3.1707318, -0.0758679
-1.0107422, 0.1318359, -0.5854492, 11.5853662, 89.6951218, 4.6341462, -0.1668421
-0.9926758, 0.1430664, -0.590332, 11.7073174, 90.9146347, 4.8780489, -0.1943694
-0.9594727, 0.1586914, -0.628418, 13.0487804, 94.2073212, 5.1829271, -0.1708705
-0.9516602, 0.1748047, -0.6450195, 13.6585369, 94.7561035, 4.9390244, -0.1420005
-0.9711914, 0.1870117, -0.6660156, 14.6951227, 95.5487823, 4.0243902, -0.1198444
-0.984375, 0.1743164, -0.6704102, 14.3292685, 95.5487823, 3.4756098, -0.1171588
-1.019043, 0.1430664, -0.6455078, 13.9634151, 94.5731735, 2.9268293, -0.1238727
-1.027832, 0.137207, -0.6220703, 13.7195129, 94.9390259, 2.6829269, -0.119173
-1.0273438, 0.1420898, -0.5834961, 14.0853662, 96.3414688, 2.5, -0.143679
-1.0170898, 0.1484375, -0.5878906, 15.1829271, 100.5487823, 2.8658538, -0.1883268
-0.9931641, 0.1591797, -0.6103516, 15.7317076, 102.3170776, 2.804878, -0.2098116
-0.9746094, 0.1699219, -0.6333008, 16.0975609, 105.3658524, 2.0731707, -0.1869841
-0.9682617, 0.1743164, -0.6435547, 16.4024391, 106.4634171, 1.7073171, -0.0903029
-0.9692383, 0.1757812, -0.6635742, 16.0975609, 108.0487823, 0.7317073, 0.0265202
-0.9775391, 0.1748047, -0.6748047, 15.9756098, 108.9024429, 0.3048781, 0.1070878
-0.9858398, 0.1640625, -0.7192383, 16.3414631, 109.5731735, -0.0609756, 0.1467002
-0.9907227, 0.1552734, -0.7299805, 16.3414631, 109.5121994, -1.097561, 0.1621424
-1.0131836, 0.1484375, -0.722168, 16.4634151, 109.2073212, -1.5243902, 0.1500572
-1.0214844, 0.15625, -0.7163086, 15.9146347, 109.2682953, -2.195122, 0.1326009
-1.03125, 0.1826172, -0.7163086, 15.8536587, 109.7561035, -2.2560976, 0.1070878
-1.0219727, 0.1875, -0.7265625, 15.6707325, 110.7926865, -1.8292683, 0.076875
-0.9990234, 0.1767578, -0.7333984, 15.6707325, 110.9146347, -1.8292683, 0.0298772
-0.9716797, 0.1357422, -0.7226562, 15.9146347, 110.18293, -2.5, -0.0083925
-0.9633789, 0.1113281, -0.7138672, 16.280489, 110, -3.1707318, -0.0506905
-0.9667969, 0.0986328, -0.7036133, 17.3170738, 110.6707306, -4.1463413, -0.0929885
-0.9726562, 0.1157227, -0.6992188, 18.1707325, 111.646347, -4.9390244, -0.1359579
-0.9760742, 0.1621094, -0.706543, 18.3536587, 113.9024429, -5.1219511, -0.1574426
-0.965332, 0.171875, -0.7197266, 17.8658543, 115.6097565, -4.4512196, -0.1554284
-0.9399414, 0.1611328, -0.7495117, 17.6829281, 115.3048782, -4.7560978, -0.1339437
-0.9316406, 0.1420898, -0.7553711, 17.439024, 115.2439041, -5.2439027, -0.1070878
-0.9267578, 0.1166992, -0.7524414, 17.6219521, 114.6341476, -5.609756, -0.0822461
-0.9311523, 0.1171875, -0.7524414, 18.780489, 115.4878082, -6.6463418, -0.0627756
-0.9536133, 0.1401367, -0.7573242, 19.2073174, 116.4634171, -7.0121951, -0.0486763
-0.9638672, 0.1708984, -0.7670898, 19.2682934, 117.5609818, -6.890244, -0.0406195
-0.9599609, 0.1733398, -0.7661133, 19.1463413, 117.6219559, -6.5853658, -0.0406195
-0.9243164, 0.1420898, -0.7636719, 18.9634151, 117.1951218, -6.1585369, -0.0527047
-0.9077148, 0.1240234, -0.7641602, 19.1463413, 117.1951218, -6.6463418, -0.0970169
-0.8969727, 0.0805664, -0.7666016, 20.9756107, 117.0731735, -7.5, -0.1238727
-0.9072266, 0.0620117, -0.7661133, 23.3536587, 117.3170776, -8.1097565, -0.154757
-0.934082, 0.0473633, -0.7729492, 24.3292694, 117.5609818, -8.2317076, -0.1873198
-0.9545898, 0.0458984, -0.7836914, 26.4024391, 118.0487823, -8.1707315, -0.2024262
-0.9760742, 0.0766602, -0.7832031, 26.8902454, 118.1707382, -7.8658538, -0.2098116
-0.9770508, 0.0981445, -0.7719727, 26.6463413, 118.7804871, -6.7682929, -0.2490883
-0.9501953, 0.1376953, -0.7563477, 26.5853672, 119.2682953, -6.4024391, -0.2406958
-0.8891602, 0.1508789, -0.7597656, 26.8902454, 120.4878082, -5.7317076, -0.1319295
-0.8549805, 0.1411133, -0.7705078, 27.0121956, 120.4878082, -6.0975609, -0.011078
-0.8183594, 0.1040039, -0.7875977, 28.9024391, 120.4268341, -7.8048782, 0.0903029
-0.8227539, 0.0932617, -0.7880859, 30.1219521, 120.4268341, -8.9634151, 0.1520714
-0.859375, 0.0947266, -0.7963867, 32.6829262, 120.6097565, -11.219512, 0.1980621
-0.8886719, 0.105957, -0.8125, 34.8170738, 121.4024429, -12.3170738, 0.2225681
-0.925293, 0.1245117, -0.8588867, 35.4878044, 121.7682953, -12.3170738, 0.2400244
-0.9389648, 0.1274414, -0.8740234, 35.3048782, 120.7926865, -12.3170738, 0.2198825
-0.9453125, 0.1210938, -0.8730469, 35.1219521, 120, -12.2560978, 0.1967193
-0.9331055, 0.1191406, -0.8642578, 33.9024391, 118.7195129, -12.0121956, 0.1695277
-0.9008789, 0.1303711, -0.8310547, 33.0487823, 118.7804871, -11.8902445, 0.1030594
-0.8447266, 0.1416016, -0.8256836, 31.9512196, 119.8170776, -11.8292685, 0.0077211
-0.8134766, 0.1367188, -0.8291016, 31.7682934, 120.5487823, -12.1341467, -0.0721752
-0.78125, 0.0927734, -0.855957, 32.8658562, 120.3048782, -13.3536587, -0.1628138
-0.7744141, 0.0776367, -0.8657227, 33.9634171, 119.7561035, -14.2682934, -0.2178683
-0.8017578, 0.0595703, -0.8574219, 36.2804871, 119.5121994, -16.7682934, -0.2084688
-0.8266602, 0.0634766, -0.8544922, 37.6829262, 119.8170776, -18.5365849, -0.161471
-0.8730469, 0.0849609, -0.8378906, 37.8658562, 120.9146347, -18.7195129, -0.0849317
-0.8769531, 0.0952148, -0.8374023, 37.1341476, 122.3170776, -18.5975609, -0.0073854
-0.8647461, 0.1005859, -0.8554688, 36.0975609, 122.6219559, -18.4146347, 0.0533761
-0.8535156, 0.0981445, -0.8588867, 33.841465, 123.6585388, -17.6829281, 0.0882887
-0.8164062, 0.0957031, -0.8554688, 33.1707306, 123.9634171, -17.3780499, 0.0936599
-0.7783203, 0.0966797, -0.8466797, 31.9512196, 125, -17.439024, 0.0923171
-0.7636719, 0.0986328, -0.8447266, 31.8292694, 125.5487823, -17.8048782, 0.0762036
-0.746582, 0.0952148, -0.8647461, 32.1951218, 127.5, -19.6951218, 0.0547189
-0.7475586, 0.0952148, -0.875, 33.0487823, 128.0487823, -20.4268303, 0.0292058
-0.7636719, 0.0737305, -0.9101562, 34.3902435, 128.4146423, -21.8292694, 0.0050355
-0.7758789, 0.0634766, -0.9169922, 35.0609779, 128.4756165, -22.8658543, -0.0124208
-0.8217773, 0.0595703, -0.8925781, 34.4512215, 128.5365906, -22.6829281, -0.0365911
-0.8320312, 0.0620117, -0.8774414, 32.6829262, 129.2682953, -22.1951218, -0.0540475
-0.8261719, 0.0771484, -0.871582, 31.8902454, 130.2439117, -21.8292694, -0.0809033
-0.8105469, 0.0830078, -0.8842773, 30.6097565, 132.7439117, -21.4634151, -0.1114519
-0.7802734, 0.0976562, -0.9223633, 29.7560978, 133.8414612, -20.9756107, -0.1379721
-0.7646484, 0.0795898, -0.9628906, 28.0487804, 134.4512177, -20.1829281, -0.1762417
-0.7709961, 0.0639648, -0.9731445, 27.5, 134.0243988, -20, -0.2259251
-0.793457, 0.0200195, -0.9614258, 27.0731716, 132.4390259, -19.4512196, -0.3064927
-0.8032227, -0.0043945, -0.9619141, 27.1951218, 131.1585388, -19.2073174, -0.3440909
-0.8198242, -0.0473633, -0.9819336, 29.4512196, 129.8170776, -18.9634151, -0.3430838
-0.8374023, -0.0576172, -0.9873047, 30.9146347, 129.9390259, -17.2560978, -0.3179065
-0.8598633, -0.0419922, -0.9755859, 30.9756107, 130.1219482, -15.9146347, -0.2662089
-0.8583984, -0.0161133, -0.9614258, 29.8170738, 130.2439117, -13.1097565, -0.1990692
-0.8291016, 0.0532227, -0.9453125, 28.5365868, 130.5487823, -12.0121956, -0.1138018
-0.8032227, 0.0820312, -0.9536133, 27.0731716, 131.3414612, -10.5487804, -0.0194705
-0.7504883, 0.109375, -0.9931641, 26.3414631, 131.5853729, -10.3048782, 0.0557259
-0.7177734, 0.1010742, -1.0244141, 25.9146347, 131.1585388, -10.1829271, 0.0802319
-0.7143555, 0.0927734, -1.0229492, 25.4878063, 130.0609741, -10.3658543, 0.0741894
-0.7172852, 0.0878906, -0.9887695, 24.7560978, 127.9268341, -11.0975609, 0.0083925
-0.7241211, 0.0820312, -0.9716797, 24.6341476, 127.0731735, -11.4024391, -0.0758679
-0.722168, 0.0605469, -0.9487305, 25, 126.4634171, -12.6219511, -0.1326009
-0.7128906, 0.0400391, -0.9477539, 25.8536587, 126.8292694, -13.4146347, -0.2077974
-0.6845703, 0.0224609, -0.9414062, 26.0975609, 127.2561035, -13.5975609, -0.2836652
-0.6723633, 0.0205078, -0.9335938, 25.4878063, 128.5975647, -13.3536587, -0.2356603
-0.6479492, 0.0551758, -0.9458008, 25, 129.6341553, -12.8658543, -0.1346151
-0.637207, 0.0761719, -0.9619141, 25.060976, 132.0121918, -12.5, -0.0285344
-0.6206055, 0.109375, -1.012207, 24.8170738, 132.9878082, -12.6829271, 0.0641184
-0.6367188, 0.1083984, -1.0541992, 24.3292694, 132.4390259, -13.7195129, 0.1483787
-0.6464844, 0.1005859, -1.0522461, 24.2682934, 131.5853729, -14.0853662, 0.165835
-0.6625977, 0.0839844, -1.0234375, 22.6829281, 129.2073212, -14.8780489, 0.1554284
-0.6611328, 0.0825195, -1.0029297, 21.3414631, 128.9634247, -14.9390249, 0.115816
-0.6303711, 0.0839844, -0.9838867, 19.6951218, 129.3292694, -15.3658543, 0.0379339
-0.6010742, 0.0878906, -1.0058594, 19.1463413, 130.7926788, -15.6707325, -0.010071
-0.5688477, 0.0942383, -1.0473633, 19.2682934, 131.9512177, -16.0975609, -0.027863
-0.5615234, 0.0961914, -1.0566406, 19.1463413, 131.4024353, -16.0365849, -0.0335698
-0.5605469, 0.1000977, -1.0664062, 18.9024391, 130.4878082, -16.7682934, -0.0412909
-0.5644531, 0.1010742, -1.0678711, 17.3170738, 129.6951294, -17.3780499, -0.0392767
-0.5878906, 0.0991211, -1.0649414, 16.0365849, 129.3292694, -17.5, -0.014435
-0.5869141, 0.0869141, -1.0610352, 13.0487804, 129.4512177, -17.0731716, 0.0104067
-0.5776367, 0.0756836, -1.0600586, 11.7682934, 129.0243988, -16.6463413, 0.0466621
-0.5454102, 0.034668, -1.0737305, 10, 127.86586, -16.5243912, 0.0704967
-0.5361328, 0.0107422, -1.0834961, 9.4512196, 127.3780518, -16.4634151, 0.0919814
-0.5356445, -0.0332031, -1.0976562, 10.6707315, 126.4634171, -15.9756098, 0.1218585
-0.5385742, -0.0332031, -1.1044922, 12.560976, 125.6097565, -14.8780489, 0.1500572
-0.5678711, -0.0053711, -1.1230469, 13.0487804, 125.0609818, -14.5731707, 0.1473716
-0.5795898, 0.0209961, -1.1391602, 12.1951218, 125.0609818, -12.8658543, 0.1205158
-0.5932617, 0.0532227, -1.15625, 10.6097565, 124.8780518, -11.8292685, 0.0973526
-0.5913086, 0.0615234, -1.140625, 5.7926831, 123.7195129, -9.9390249, 0.0842603
-0.5561523, 0.0893555, -1.0854492, 2.9878049, 122.86586, -9.1463413, 0.0396124
-0.4829102, 0.1044922, -1.0537109, -0.1829268, 122.4390259, -8.1707315, -0.0063783
-0.4487305, 0.0961914, -1.0507812, -0.5487805, 123.0487823, -8.0487804, -0.0597543
-0.3984375, 0.0766602, -1.027832, 0.6097561, 123.7804871, -8.780488, -0.102388
-0.3916016, 0.065918, -1.012207, 1.402439, 123.7195129, -10.1829271, -0.1003738
-0.3950195, 0.0478516, -1.0024414, 3.7195122, 124.9390259, -12.9878054, -0.0755322
-0.4111328, 0.050293, -1.0112305, 5.4268293, 127.5, -14.2073174, -0.0715038
-0.4316406, 0.0634766, -1.0405273, 5.9146342, 128.2926788, -14.1463413, -0.0903029
-0.4350586, 0.0629883, -1.0473633, 5.1829271, 128.6585388, -13.5365858, -0.1171588
-0.4326172, 0.0483398, -1.0375977, 4.2073174, 128.3536682, -13.780488, -0.1967193
-0.4350586, 0.0390625, -1.0263672, 2.0731707, 128.7804871, -13.6585369, -0.3101854
-0.4248047, 0.0258789, -1.019043, 1.5853659, 129.2682953, -13.1707315, -0.33402
-0.4003906, 0.0073242, -1.0356445, 1.8902439, 130.0609741, -11.7073174, -0.2688945
-0.387207, -0.0126953, -1.0410156, 2.1341465, 130.2439117, -11.0975609, -0.1594568
-0.3857422, -0.0170898, -1.0507812, 3.7195122, 130, -11.0365858, -0.0419623
-0.3935547, -0.0004883, -1.0478516, 3.8414636, 130.4268341, -11.1585369, 0.0493477
-0.3979492, 0.0449219, -1.0356445, 3.7195122, 131.4024353, -10.6097565, 0.1121233
-0.3867188, 0.050293, -1.0478516, 3.9634147, 132.1951294, -10.4268293, 0.144686
-0.3608398, 0.0136719, -1.0961914, 4.2682929, 132.2561035, -10.7317076, 0.1245441
-0.3608398, -0.0180664, -1.1274414, 5.4878049, 131.646347, -10.5487804, 0.0929885
-0.3969727, -0.0615234, -1.1577148, 6.0975609, 131.3414612, -9.6341467, 0.0731823
-0.4155273, -0.050293, -1.1489258, 4.5121951, 130.7317047, -6.7073174, 0.0547189
-0.4389648, 0.019043, -1.090332, 2.9268293, 130.9756165, -5.3658538, 0.0184634
-0.4165039, 0.0839844, -1.0712891, -0.7926829, 132.1951294, -4.1463413, -0.0083925
-0.3862305, 0.097168, -1.0761719, -1.9512196, 133.1707306, -3.9634147, -0.0835889
-0.3198242, 0.0898438, -1.0800781, -3.3536587, 134.0853729, -3.9024391, -0.1701991
-0.2895508, 0.0649414, -1.0722656, -3.4756098, 133.7195129, -4.5731707, -0.2232395
-0.2543945, -0.0063477, -1.0454102, -2.9878049, 133.0487823, -6.9512196, -0.2205539
-0.2490234, -0.0444336, -1.0322266, -0.9756098, 134.8170776, -9.2682924, -0.1802701
-0.2788086, -0.0722656, -1.0483398, 0.5487805, 136.0365906, -9.2073174, -0.2272679
-0.2910156, -0.0668945, -1.0732422, 3.9634147, 138.5365906, -7.7439027, -0.3991455
-0.328125, -0.0361328, -1.1020508, 4.6951222, 139.2073212, -7.1951222, -0.474342
-0.3564453, -0.0039062, -1.0756836, 4.5731707, 138.7804871, -6.7073174, -0.4025025
-0.3520508, 0, -1.0581055, 3.8414636, 138.2317047, -6.890244, -0.2490883
-0.309082, -0.0043945, -1.034668, 3.2926829, 138.2317047, -7.1951222, -0.0755322
-0.2797852, -0.019043, -1.0410156, 3.4146342, 138.4146423, -7.6829271, 0.0829175
-0.234375, -0.0375977, -1.0493164, 5.5487804, 139.3902435, -8.3536587, 0.1957122
-0.2202148, -0.0380859, -1.0488281, 6.5243902, 139.146347, -8.5365858, 0.2464027
-0.2084961, -0.0424805, -1.0556641, 10.060976, 138.8414612, -9.9390249, 0.2440528
-0.2172852, -0.043457, -1.0634766, 12.9878054, 138.7195129, -11.1585369, 0.218204
-0.2416992, -0.0415039, -1.0771484, 14.2073174, 138.7195129, -11.4024391, 0.1876555
-0.2592773, -0.0366211, -1.0820312, 14.6951227, 138.4146423, -11.4634151, 0.1527428
-0.2758789, -0.0244141, -1.0771484, 15.1219511, 138.2926788, -11.4024391, 0.1097734
-0.2626953, -0.0009766, -1.0717773, 14.9390249, 138.4146423, -11.6463413, 0.0708324
-0.2504883, 0.0200195, -1.0717773, 14.6341467, 138.7195129, -11.4634151, 0.0694896
-0.2114258, 0.0351562, -1.0786133, 12.7439032, 139.7561035, -11.7682934, 0.0815747
-0.1914062, 0.0302734, -1.0732422, 11.9512196, 140.4268341, -12.0121956, 0.0903029
-0.1533203, -0.0117188, -1.0449219, 11.0975609, 139.9390259, -12.9268293, 0.0795605
-0.1342773, -0.0327148, -1.0380859, 11.7682934, 139.8170776, -15.1219511, 0.0614328
-0.1342773, -0.0498047, -1.0644531, 12.6829271, 140.7317047, -15.7926836, 0.0392767
-0.1513672, -0.0498047, -1.0839844, 14.2682934, 142.9268341, -15.3658543, 0.0063783
-0.1748047, -0.0737305, -1.1254883, 14.7560978, 142.9268341, -14.9390249, -0.0453193
-0.1865234, -0.105957, -1.1489258, 15.6707325, 140.7317047, -14.8780489, -0.0741894
-0.2412109, -0.1557617, -1.1723633, 15.4268293, 139.9390259, -14.5121956, -0.1037308
-0.2915039, -0.1352539, -1.1416016, 14.8780489, 138.5365906, -11.9512196, -0.1238727
-0.2958984, -0.1000977, -1.0996094, 14.2682934, 137.9268341, -10.3048782, -0.112459
-0.2495117, -0.0317383, -1.0268555, 11.9512196, 138.1707306, -8.719512, -0.1701991
-0.1948242, -0.0185547, -1.0200195, 11.0365858, 138.7804871, -8.2926826, -0.2803082
-0.0800781, -0.0571289, -1.0605469, 11.1585369, 139.3292694, -8.9634151, -0.3457694
-0.0454102, -0.0913086, -1.0922852, 13.780488, 139.5121918, -10.6707315, -0.3367056
-0.0673828, -0.1303711, -1.1542969, 15.7926836, 139.0243988, -11.341464, -0.2635233
-0.1132812, -0.1225586, -1.1782227, 18.9024391, 137.2561035, -11.7073174, -0.1607996
-0.215332, -0.0942383, -1.1875, 20.1219521, 135.8536682, -11.4024391, -0.0352483
-0.2504883, -0.0878906, -1.1689453, 19.939024, 132.4390259, -11.219512, 0.0835889
-0.2700195, -0.0800781, -1.0878906, 18.5975609, 130.9756165, -11.219512, 0.1836271
-0.2094727, -0.0722656, -1.0307617, 16.4024391, 129.4512177, -10.7926836, 0.2655375
-0.1552734, -0.0625, -1.0400391, 15.4878054, 130.1829224, -10.3658543, 0.3004501
-0.0639648, -0.034668, -1.0957031, 15.3048782, 132.6829224, -9.5121956, 0.2799725
-0.0356445, -0.03125, -1.1083984, 15.2439032, 133.0487823, -9.2682924, 0.2306249
-0.0307617, -0.0576172, -1.0922852, 16.5243912, 131.1585388, -10.060976, 0.1812772
-0.0458984, -0.0820312, -1.0625, 19.2682934, 129.2073212, -13.5365858, 0.1433433
-0.0874023, -0.1147461, -0.9936523, 20.2439022, 128.9634247, -14.6951227, 0.0943313
-0.1020508, -0.1035156, -0.9589844, 20.1829281, 131.4024353, -15.9756098, 0.0409552
