Application:, Trigno Discover (1.6.5)
Date/Time:, 18/02/2025 16:56:37
Collection Length (seconds):, 30.699
wrist (81457), , , , , , bicep (81139)
sensor mode: 609, , , , , , sensor mode: 40
ACC X (G), ACC Y (G), ACC Z (G), GYRO X (deg/s), GYRO Y (deg/s), GYRO Z (deg/s), EMG 1 (mV)
370.3704 Hz, 370.3704 Hz, 370.3704 Hz, 370.3704 Hz, 370.3704 Hz, 370.3704 Hz, 2148.1481 Hz
-0.6987305, 0.6557617, -0.3168945, -9.0243902, -14.2682934, 2.7439024, 0.0132601
-0.6958008, 0.6728516, -0.3227539, -7.6829271, -14.7560978, 3.3536587, 0.0115816
-0.6904297, 0.6757812, -0.3295898, -7.2560978, -14.6951227, 3.6585367, 0.008896
-0.6845703, 0.6723633, -0.3349609, -7.6829271, -14.4512196, 2.9268293, 0.0008392
-0.6831055, 0.6645508, -0.3369141, -7.7439027, -14.5121956, 2.8658538, 0.0102388
-0.6806641, 0.6547852, -0.3305664, -8.2926826, -14.0243902, 2.3170731, 0.0092317
-0.6811523, 0.6489258, -0.3305664, -8.2317076, -13.841464, 2.5, -0.0028534
-0.6826172, 0.6479492, -0.3349609, -8.5975609, -13.9634151, 1.7682927, -0.0139315
-0.6826172, 0.6499023, -0.3378906, -8.4756098, -14.2073174, 1.7073171, -0.0203098
-0.6875, 0.6591797, -0.3383789, -8.4756098, -14.3292685, 1.7073171, -0.0263523
-0.6748047, 0.6713867, -0.3457031, -8.5365858, -14.9390249, 1.9512196, -0.0203098
-0.6733398, 0.6767578, -0.3496094, -8.5975609, -14.9390249, 1.8902439, -0.0159457
-0.671875, 0.6845703, -0.3510742, -9.4512196, -14.7560978, 0.9756098, -0.0149386
-0.6694336, 0.6850586, -0.3525391, -10.1219511, -14.4512196, 0.8536586, -0.0068818
-0.6787109, 0.6816406, -0.3598633, -11.0975609, -14.0243902, 0.4268293, -0.0003357
-0.6845703, 0.6826172, -0.3657227, -11.0365858, -13.5975609, 0.4878049, 0.0011749
-0.6977539, 0.6816406, -0.375, -11.1585369, -13.7195129, 1.1585366, -0.0125887
-0.7055664, 0.6796875, -0.3842773, -10.7926836, -14.3902445, 1.0365853, 0.002182
-0.7128906, 0.6728516, -0.3852539, -11.0365858, -15.6097565, 1.5243902, 0.0046998
-0.7182617, 0.6679688, -0.3813477, -11.7073174, -16.3414631, 1.1585366, -0.0572366
-0.7368164, 0.6508789, -0.3666992, -11.7682934, -16.6463413, 0.7317073, -0.1065843
-0.7436523, 0.6396484, -0.3457031, -11.4024391, -16.8292694, 0.4268293, -0.1344472
-0.7470703, 0.6450195, -0.3378906, -10.6707315, -17.1341476, 0.4878049, -0.1304189
-0.7412109, 0.6655273, -0.3354492, -8.841464, -18.4146347, 1.5243902, -0.0921492
-0.7299805, 0.6743164, -0.3364258, -8.4146347, -18.9634151, 1.8292683, -0.0360876
-0.699707, 0.6850586, -0.3496094, -7.6829271, -19.2073174, 2.9268293, 0.027863
-0.6899414, 0.6875, -0.3549805, -7.9878049, -19.1463413, 3.0487804, 0.0830854
-0.6801758, 0.6889648, -0.3549805, -9.0853662, -17.8048782, 2.3780489, 0.111284
-0.6787109, 0.6870117, -0.355957, -9.6951218, -16.8292694, 2.0121951, 0.1169909
-0.6826172, 0.6933594, -0.3510742, -10.6707315, -15.7317076, 1.5853659, 0.1085985
-0.6826172, 0.6967773, -0.3461914, -11.280488, -15.3658543, 1.5853659, 0.0882887
-0.6943359, 0.690918, -0.3369141, -11.5243902, -15, 1.6463414, 0.0710002
-0.6938477, 0.6875, -0.3291016, -11.9512196, -14.7560978, 1.3414634, 0.061265
-0.6894531, 0.6826172, -0.324707, -11.6463413, -14.5121956, 1.402439, 0.0473335
-0.6933594, 0.6791992, -0.3212891, -11.5853662, -14.0853662, 1.0365853, 0.0387732
-0.6884766, 0.6796875, -0.3251953, -11.1585369, -14.1463413, 1.402439, 0.0293736
-0.6870117, 0.6845703, -0.3344727, -10.5487804, -13.9634151, 1.9512196, 0.0146029
-0.6831055, 0.6845703, -0.3369141, -10.3658543, -13.841464, 1.7682927, 0.0102388
-0.6777344, 0.6870117, -0.3413086, -10.3048782, -13.4146347, 1.9512196, 0.008896
-0.6767578, 0.6835938, -0.3422852, -10.3048782, -13.2926836, 1.7682927, 0.0092317
-0.675293, 0.6831055, -0.3374023, -10.9146347, -12.560976, 1.0365853, 0.002182
-0.6767578, 0.684082, -0.3383789, -11.1585369, -12.1951218, 0.5487805, -0.0028534
-0.6796875, 0.6835938, -0.3286133, -11.0975609, -12.0121956, 0.6707317, -0.0078889
-0.6777344, 0.6787109, -0.3295898, -11.0365858, -12.0121956, 1.097561, -0.0169528
-0.6801758, 0.6762695, -0.3291016, -10.9756098, -11.8902445, 0.8536586, -0.0219883
-0.684082, 0.6655273, -0.3320312, -11.4024391, -11.280488, 0.7926829, -0.0216526
-0.6845703, 0.6650391, -0.3320312, -11.1585369, -10.7317076, 0.4878049, -0.0139315
-0.6865234, 0.6665039, -0.3422852, -10.7317076, -10.1219511, 0.8536586, -0.0085603
-0.6811523, 0.6660156, -0.3432617, -10.6097565, -10.3048782, 1.1585366, -0.0072175
-0.6762695, 0.6782227, -0.3491211, -10.4878054, -10.6097565, 1.2195122, -0.0095674
-0.6694336, 0.6811523, -0.3452148, -10.3048782, -10.7317076, 1.2804878, -0.0310521
-0.6645508, 0.675293, -0.3457031, -10.4268293, -10.9146347, 0.7317073, -0.0317235
-0.6669922, 0.6733398, -0.34375, -10.6097565, -11.219512, 0.6707317, -0.0095674
-0.671875, 0.6586914, -0.3554688, -10.8536587, -11.0365858, 0.7926829, -0.0031891
-0.6845703, 0.6450195, -0.3623047, -11.4024391, -10.7317076, 1.097561, -0.008896
-0.6943359, 0.6411133, -0.3623047, -11.4634151, -10.3658543, 1.0365853, -0.0142672
-0.7016602, 0.6391602, -0.3583984, -11.1585369, -10.5487804, 0.9756098, -0.0243381
-0.7124023, 0.6416016, -0.3520508, -10.6707315, -11.341464, 1.402439, -0.0297093
-0.7158203, 0.6386719, -0.3461914, -9.3292685, -12.7439032, 1.6463414, -0.0263523
-0.7109375, 0.6376953, -0.3476562, -8.9634151, -13.5365858, 1.7682927, -0.0293736
-0.7089844, 0.644043, -0.3500977, -7.8048782, -14.2682934, 2.0121951, -0.0305486
-0.7021484, 0.6474609, -0.3549805, -7.3170733, -14.5731707, 2.195122, -0.0320592
-0.6865234, 0.6601562, -0.3579102, -6.9512196, -14.9390249, 2.9878049, -0.0357519
-0.6831055, 0.6591797, -0.3623047, -7.1951222, -15.3048782, 3.1707318, -0.0386053
-0.6694336, 0.6635742, -0.3676758, -7.5, -15.6097565, 3.1707318, -0.0320592
-0.6650391, 0.6674805, -0.3549805, -8.2317076, -15.5487804, 2.9268293, -0.0391089
-0.6665039, 0.668457, -0.3476562, -8.6585369, -15.2439032, 2.5609756, -0.0636149
-0.6704102, 0.6674805, -0.3305664, -9.1463413, -14.5731707, 2.3780489, -0.0716716
-0.671875, 0.6679688, -0.3266602, -9.3902445, -14.3292685, 2.6829269, -0.0488441
-0.6708984, 0.668457, -0.3291016, -9.4512196, -14.0853662, 3.0487804, -0.0115816
-0.668457, 0.6713867, -0.3325195, -8.9634151, -13.841464, 3.3536587, 0.0250095
-0.6645508, 0.675293, -0.3334961, -9.2073174, -13.2317076, 3.1097562, 0.061265
-0.6665039, 0.6757812, -0.3359375, -9.6341467, -12.8048782, 3.1097562, 0.0589151
-0.6723633, 0.6782227, -0.3325195, -10, -12.1951218, 2.6219513, 0.033402
-0.6723633, 0.6757812, -0.3276367, -10.4268293, -11.4634151, 2.5609756, 0.0015106
-0.6738281, 0.6699219, -0.3139648, -10.7926836, -11.0975609, 2.5, -0.0196384
-0.6743164, 0.6582031, -0.3061523, -10.9756098, -10.5487804, 2.1341465, -0.0283665
-0.6762695, 0.6567383, -0.309082, -10.7317076, -10.1219511, 1.9512196, -0.0431373
-0.6777344, 0.6582031, -0.3227539, -10.4878054, -10.1219511, 2.4390244, -0.054551
-0.6762695, 0.6591797, -0.3295898, -10.060976, -10.1219511, 2.7439024, -0.0525368
-0.6713867, 0.6621094, -0.3457031, -9.6341467, -9.6951218, 2.9268293, -0.0505226
-0.6738281, 0.6606445, -0.3549805, -9.8170738, -9.5731707, 2.8658538, -0.0458228
-0.6782227, 0.6606445, -0.3623047, -10.8536587, -8.9024391, 2.3780489, -0.0320592
-0.6855469, 0.6621094, -0.3613281, -11.219512, -8.9024391, 2.0121951, -0.0307164
-0.6958008, 0.6699219, -0.3598633, -11.5853662, -9.5731707, 1.9512196, -0.0464942
-0.7045898, 0.6669922, -0.3647461, -11.280488, -10.3658543, 2.3780489, -0.0706645
-0.7021484, 0.6650391, -0.3652344, -11.219512, -10.5487804, 2.4390244, -0.0914778
-0.7041016, 0.6577148, -0.3642578, -11.341464, -11.219512, 2.804878, -0.0975204
-0.7084961, 0.6518555, -0.3652344, -11.6463413, -11.341464, 2.6829269, -0.0911421
-0.7119141, 0.6469727, -0.3583984, -11.9512196, -11.4024391, 2.804878, -0.1079271
-0.7143555, 0.6513672, -0.3579102, -11.8292685, -11.4634151, 2.804878, -0.1198444
-0.7192383, 0.6625977, -0.3457031, -11.4634151, -12.3170738, 2.9268293, -0.1210193
-0.7182617, 0.6591797, -0.3374023, -11.341464, -12.1951218, 3.1707318, -0.1465324
-0.7172852, 0.6591797, -0.3295898, -10.9756098, -12.6219511, 3.5365853, -0.1566033
-0.7133789, 0.6567383, -0.3256836, -10.7926836, -12.8048782, 3.6585367, -0.1599603
-0.7109375, 0.6513672, -0.3271484, -10.6097565, -12.8048782, 3.9024391, -0.1472038
-0.7138672, 0.6489258, -0.3349609, -9.8780489, -12.3780489, 4.2682929, -0.1116197
-0.7128906, 0.6499023, -0.3447266, -9.9390249, -12.4390249, 4.5731707, -0.0679789
-0.703125, 0.6606445, -0.3535156, -9.3902445, -12.4390249, 4.6341462, -0.0347448
-0.7060547, 0.6650391, -0.3569336, -9.8170738, -12.6829271, 4.8780489, -0.0085603
-0.6953125, 0.6665039, -0.3540039, -10.6707315, -13.3536587, 4.6951222, -0.002182
-0.6967773, 0.6635742, -0.3505859, -11.0975609, -13.3536587, 4.8170733, -0.0068818
-0.703125, 0.6484375, -0.3525391, -11.7073174, -13.5365858, 4.4512196, -0.0162814
-0.7050781, 0.6411133, -0.3525391, -11.8902445, -13.780488, 4.390244, -0.0270237
-0.715332, 0.6293945, -0.3452148, -12.0121956, -13.9634151, 4.2073174, -0.0290379
-0.7231445, 0.6293945, -0.3393555, -11.8292685, -14.1463413, 4.3292685, -0.0340734
-0.7348633, 0.6303711, -0.3344727, -11.5853662, -14.5731707, 4.390244, -0.036759
-0.7255859, 0.6386719, -0.3330078, -10.2439022, -15.3658543, 4.9390244, -0.0411231
-0.7207031, 0.6459961, -0.3330078, -9.5121956, -16.3414631, 5.1219511, -0.0449836
-0.7050781, 0.6459961, -0.3295898, -8.719512, -17.2560978, 5.4878049, -0.0458228
-0.6982422, 0.6484375, -0.3344727, -9.0853662, -17.1951218, 5.5487804, -0.0473335
-0.6958008, 0.6484375, -0.3344727, -9.8780489, -16.5853653, 5.7317076, -0.0713359
-0.6928711, 0.6479492, -0.3378906, -9.8170738, -15.9756098, 5.7926831, -0.1164874
-0.6987305, 0.6445312, -0.3305664, -10.2439022, -15.2439032, 5.4878049, -0.16701
-0.7001953, 0.6469727, -0.3291016, -9.7560978, -15.4878054, 5.3658538, -0.1942016
-0.7094727, 0.6606445, -0.3256836, -8.719512, -16.2195129, 5.1829271, -0.1827878
-0.7138672, 0.6660156, -0.3276367, -8.2317076, -16.8292694, 5.2439027, -0.1493858
-0.7045898, 0.6728516, -0.3310547, -7.8658538, -17.3780499, 6.1585369, -0.0941634
-0.6894531, 0.6738281, -0.3359375, -8.0487804, -16.2195129, 6.3414636, -0.0186313
-0.6875, 0.6708984, -0.3354492, -8.2926826, -15.060976, 6.0975609, 0.085771
-0.6865234, 0.6870117, -0.3349609, -8.1097565, -13.7195129, 5.9756098, 0.1623102
-0.6870117, 0.690918, -0.3383789, -8.2317076, -13.2926836, 5.670732, 0.1837949
-0.6816406, 0.6972656, -0.3461914, -7.9268293, -13.6585369, 6.1585369, 0.1777523
-0.6791992, 0.6972656, -0.3476562, -8.1097565, -13.4146347, 6.3414636, 0.1529107
-0.6733398, 0.6938477, -0.3491211, -8.780488, -12.560976, 6.0365853, 0.1153124
-0.671875, 0.6904297, -0.3476562, -9.2073174, -12.3170738, 5.4268293, 0.0850996
-0.6757812, 0.6914062, -0.3413086, -9.6951218, -11.5243902, 4.9390244, 0.0663005
-0.6801758, 0.6899414, -0.3374023, -9.5121956, -11.219512, 5.1219511, 0.0532082
-0.6821289, 0.6894531, -0.3452148, -9.2682924, -10.6097565, 5.4878049, 0.0377661
-0.6899414, 0.6889648, -0.3623047, -9.0853662, -9.9390249, 5.609756, 0.0157778
-0.6977539, 0.6860352, -0.3666992, -9.5121956, -9.5121956, 5.5487804, -0.0203098
-0.703125, 0.6777344, -0.3696289, -9.7560978, -9.9390249, 5.7317076, -0.0411231
-0.7109375, 0.6762695, -0.371582, -10, -10.5487804, 5.609756, -0.0505226
-0.7163086, 0.6616211, -0.3720703, -9.2682924, -11.1585369, 5.9146342, -0.0542153
-0.7133789, 0.6591797, -0.3681641, -9.3292685, -11.6463413, 5.9756098, -0.0417945
-0.715332, 0.6474609, -0.3637695, -8.780488, -12.7439032, 5.9146342, -0.0285344
-0.7104492, 0.6479492, -0.3525391, -8.2926826, -13.4146347, 5.8536587, -0.0119173
-0.7050781, 0.6445312, -0.3295898, -7.5, -14.6951227, 5.7926831, 0.0112459
-0.7001953, 0.6391602, -0.3232422, -6.8292685, -14.7560978, 6.1585369, 0.0250095
-0.684082, 0.6474609, -0.3198242, -6.280488, -14.3902445, 6.6463418, 0.0280308
-0.6762695, 0.6591797, -0.3271484, -5.4878049, -14.1463413, 6.8292685, 0.0276951
-0.671875, 0.6689453, -0.3320312, -5, -13.4146347, 6.9512196, 0.0238346
-0.6611328, 0.6816406, -0.3466797, -4.8780489, -12.6219511, 6.9512196, 0.018967
-0.6621094, 0.6875, -0.3500977, -5.0609756, -12.2560978, 6.7682929, 0.0152743
-0.6591797, 0.6831055, -0.3452148, -5.3658538, -12.0731707, 6.6463418, 0.0132601
-0.6621094, 0.6748047, -0.3432617, -5.5487804, -12.3780489, 6.5243902, 0.0129244
-0.6567383, 0.6625977, -0.3447266, -6.1585369, -12.4390249, 6.6463418, 0.0078889
-0.6547852, 0.6577148, -0.3457031, -6.5243902, -12.1341467, 6.4024391, 0.0038605
-0.6611328, 0.6625977, -0.3535156, -6.1585369, -11.1585369, 5.9756098, 0.0038605
-0.6708984, 0.6621094, -0.3588867, -5.7317076, -11.0975609, 6.0975609, 0.0041962
-0.6796875, 0.6674805, -0.3564453, -5.3048782, -11.4024391, 6.280488, -0.0005035
-0.6821289, 0.6586914, -0.355957, -5, -11.7682934, 6.7073174, -0.0045319
-0.6875, 0.6542969, -0.3564453, -4.7560978, -11.8292685, 6.2195125, -0.0035248
-0.6914062, 0.6479492, -0.3496094, -4.5121951, -11.9512196, 6.1585369, 0.0050355
-0.6899414, 0.6450195, -0.3466797, -4.0243902, -11.8292685, 6.2195125, 0.018967
-0.6796875, 0.652832, -0.3359375, -3.6585367, -11.9512196, 6.5243902, 0.0370947
-0.6748047, 0.6557617, -0.331543, -2.9268293, -11.8902445, 6.6463418, 0.0407874
-0.6674805, 0.6650391, -0.331543, -2.3780489, -11.0365858, 6.6463418, 0.0327306
-0.659668, 0.6772461, -0.3354492, -2.3780489, -10.7926836, 6.7073174, 0.0354162
-0.6489258, 0.6791992, -0.347168, -1.8902439, -10.4268293, 7.1951222, 0.0330663
-0.6416016, 0.6743164, -0.3535156, -2.5609756, -9.4512196, 7.2560978, 0.0213169
-0.6469727, 0.6645508, -0.3657227, -2.804878, -8.841464, 7.1341467, -0.0109102
-0.6621094, 0.652832, -0.3740234, -3.3536587, -7.4390244, 6.4024391, -0.0377661
-0.6743164, 0.6542969, -0.3759766, -3.2317073, -7.1951222, 6.2195125, -0.0585794
-0.6992188, 0.6557617, -0.3798828, -2.3780489, -7.6829271, 6.5853658, -0.0659648
-0.703125, 0.6601562, -0.3837891, -1.402439, -8.1707315, 6.7073174, -0.0681468
-0.6987305, 0.6743164, -0.3920898, -0.3658537, -9.5731707, 6.9512196, -0.0619364
-0.6987305, 0.6801758, -0.3955078, 0.0609756, -10.1219511, 6.8292685, -0.0542153
-0.6865234, 0.6831055, -0.3935547, 0.1219512, -10.9756098, 7.3170733, -0.043473
-0.6806641, 0.6831055, -0.3891602, 0, -10.8536587, 7.0731707, -0.0323949
-0.6733398, 0.6772461, -0.3823242, -0.5487805, -10.6097565, 7.1341467, -0.0186313
-0.6743164, 0.6645508, -0.3833008, -1.3414634, -10.3658543, 7.8048782, -0.0075532
-0.6748047, 0.6513672, -0.3833008, -1.5243902, -9.8780489, 7.8658538, -0.0015106
-0.6923828, 0.6459961, -0.3876953, -1.8902439, -9.1463413, 8.1097565, 0.0031891
-0.6967773, 0.6542969, -0.3876953, -1.7682927, -8.780488, 7.8048782, 0.0105745
-0.7011719, 0.6665039, -0.3891602, -0.9146342, -9.2073174, 7.9268293, 0.0105745
-0.7036133, 0.671875, -0.3925781, -0.4878049, -9.8170738, 7.6219516, -0.011078
-0.6914062, 0.6894531, -0.3916016, 0.1829268, -11.219512, 7.9268293, -0.0364233
-0.6860352, 0.6904297, -0.3935547, 0.3048781, -11.8292685, 7.9878049, -0.0555581
-0.6738281, 0.6757812, -0.3813477, 0.4878049, -12.3170738, 8.1097565, -0.061265
-0.6674805, 0.6660156, -0.378418, 0.0609756, -12.3170738, 8.0487804, -0.0451514
-0.6650391, 0.6474609, -0.3852539, -0.1219512, -11.8902445, 7.9268293, -0.0218204
-0.6704102, 0.644043, -0.3867188, 0.1219512, -11.4024391, 8.1707315, 0.0035248
-0.6889648, 0.6577148, -0.3891602, 0.5487805, -11.0975609, 8.2926826, 0.0293736
-0.6972656, 0.6674805, -0.3886719, 1.2195122, -11.5853662, 8.3536587, 0.0451514
-0.7036133, 0.6723633, -0.3823242, 1.5243902, -11.8292685, 8.3536587, 0.0515297
-0.7006836, 0.6762695, -0.3613281, 2.4390244, -12.3170738, 8.2317076, 0.0424659
-0.6923828, 0.6762695, -0.3481445, 2.9878049, -12.6219511, 8.1097565, 0.0280308
-0.6811523, 0.671875, -0.3310547, 4.0243902, -12.3780489, 8.1097565, 0.0078889
-0.6650391, 0.6679688, -0.3295898, 4.390244, -11.6463413, 8.3536587, -0.0115816
-0.644043, 0.6723633, -0.3452148, 5.4268293, -10.4268293, 9.3292685, -0.0310521
-0.6362305, 0.671875, -0.355957, 5.670732, -9.5121956, 9.6951218, -0.0505226
-0.6367188, 0.6713867, -0.3725586, 4.6951222, -7.6219516, 10, -0.0639506
-0.6367188, 0.6645508, -0.3774414, 4.0853658, -5.7926831, 9.7560978, -0.076875
-0.6508789, 0.6577148, -0.3662109, 4.0243902, -5, 9.3902445, -0.0847639
-0.6723633, 0.6489258, -0.3540039, 4.8170733, -4.1463413, 8.5365858, -0.0844282
-0.6806641, 0.6469727, -0.3510742, 5.3048782, -4.2073174, 8.9024391, -0.0775463
-0.6904297, 0.6533203, -0.347168, 7.0121951, -4.5121951, 9.6951218, -0.0753643
-0.6879883, 0.652832, -0.3491211, 7.9878049, -4.2682929, 9.8780489, -0.0706645
-0.6899414, 0.6542969, -0.3652344, 9.3292685, -3.2926829, 10.1219511, -0.0666361
-0.6894531, 0.659668, -0.375, 10.1219511, -2.3780489, 10.2439022, -0.0669718
-0.6904297, 0.6762695, -0.387207, 10.9146347, -1.097561, 10.7317076, -0.0619364
-0.6889648, 0.6865234, -0.3935547, 11.1585369, -0.6097561, 10.9756098, -0.0552224
-0.6826172, 0.6987305, -0.4023438, 11.341464, 0.1219512, 11.4024391, -0.0518654
-0.6801758, 0.7026367, -0.4077148, 11.1585369, 0.7317073, 11.1585369, -0.0508583
-0.6796875, 0.6933594, -0.4072266, 10.4878054, 1.402439, 11.219512, -0.0468299
-0.6811523, 0.6689453, -0.4135742, 10.1219511, 2.3170731, 11.6463413, -0.0458228
-0.6845703, 0.6518555, -0.418457, 10.1829271, 2.9268293, 11.8292685, -0.0471656
-0.6943359, 0.6323242, -0.4331055, 10.6707315, 3.5975611, 12.4390249, -0.0451514
-0.6982422, 0.6362305, -0.4394531, 11.7682934, 3.6585367, 12.8658543, -0.0481727
-0.7124023, 0.6435547, -0.4536133, 13.841464, 2.0121951, 13.1097565, -0.0451514
-0.7124023, 0.6450195, -0.4584961, 14.9390249, 1.1585366, 13.1707315, -0.0357519
-0.7094727, 0.6518555, -0.4624023, 16.8292694, -0.3048781, 12.6219511, -0.03122
-0.7094727, 0.6523438, -0.4624023, 17.6219521, -0.8536586, 12.7439032, -0.0271916
-0.7021484, 0.65625, -0.4672852, 18.780489, -1.2195122, 12.6829271, -0.0142672
-0.7016602, 0.6635742, -0.4716797, 19.7560978, -0.8536586, 12.6219511, -0.0036927
-0.6899414, 0.6757812, -0.4892578, 20.1829281, -0.7317073, 12.8048782, 0.011078
-0.6791992, 0.6850586, -0.5083008, 20.6707325, -0.3048781, 13.3536587, 0.0381018
-0.6762695, 0.6865234, -0.5097656, 20.7317085, -0.2439024, 13.2317076, 0.0760357
-0.6787109, 0.6879883, -0.5009766, 20.4268303, -0.1829268, 12.7439032, 0.1015488
-0.6855469, 0.6845703, -0.4853516, 20, -0.4878049, 12.3170738, 0.0936599
-0.6894531, 0.6674805, -0.4394531, 19.5731716, -0.5487805, 11.7073174, 0.0699931
-0.6899414, 0.6577148, -0.418457, 19.8170738, -0.1829268, 11.280488, 0.0404517
-0.6967773, 0.6459961, -0.3974609, 21.6463413, 1.6463414, 11.4634151, 0.0213169
-0.6958008, 0.6508789, -0.3994141, 23.0487804, 2.5, 11.8902445, 0.0276951
-0.6894531, 0.6645508, -0.4223633, 25.8536587, 4.4512196, 13.7195129, 0.023331
-0.6777344, 0.6777344, -0.4365234, 27.1951218, 5.9756098, 15.060976, 0.0025177
-0.6503906, 0.7036133, -0.46875, 27.3780499, 6.9512196, 15.3658543, -0.0273594
-0.628418, 0.7158203, -0.4882812, 25.8536587, 8.5975609, 14.4512196, -0.0585794
-0.6235352, 0.7050781, -0.4916992, 24.8780499, 9.3292685, 13.9024391, -0.0837568
-0.6274414, 0.6796875, -0.480957, 23.1707325, 11.1585369, 13.5975609, -0.0928206
-0.6230469, 0.6669922, -0.4731445, 22.560976, 12.3170738, 13.3536587, -0.0909743
-0.6245117, 0.6459961, -0.4672852, 22.6219521, 13.5975609, 13.2317076, -0.0753643
-0.6357422, 0.6401367, -0.4677734, 22.9878063, 14.1463413, 13.0487804, -0.0407874
-0.6533203, 0.6479492, -0.480957, 24.0853672, 14.6341467, 13.5975609, -0.0216526
-0.6577148, 0.6547852, -0.4936523, 25.1219521, 15.1829271, 14.0243902, -0.0253452
-0.6606445, 0.6660156, -0.5146484, 26.0365868, 16.2195129, 14.1463413, -0.0323949
-0.6645508, 0.6674805, -0.5239258, 26.5243912, 17.7439022, 13.9024391, -0.0515297
-0.6708984, 0.6708984, -0.5361328, 26.7682934, 18.4146347, 14.0243902, -0.0713359
-0.6728516, 0.6611328, -0.5615234, 27.8048782, 17.9268303, 14.5731707, -0.0820783
-0.6713867, 0.6591797, -0.5722656, 27.9878063, 18.0487804, 15.2439032, -0.1015488
-0.6650391, 0.6645508, -0.5820312, 28.0487804, 17.560976, 15.9146347, -0.1111162
-0.6704102, 0.6640625, -0.5820312, 28.2926826, 17.3780499, 16.0975609, -0.1109483
-0.6816406, 0.6586914, -0.5673828, 27.6219521, 17.439024, 15.4268293, -0.1049058
-0.690918, 0.6630859, -0.5527344, 27.8658543, 17.560976, 15.3048782, -0.0871138
-0.6962891, 0.6689453, -0.5234375, 29.2073174, 17.7439022, 14.6341467, -0.0688182
-0.6938477, 0.6757812, -0.5078125, 30.6707325, 17.439024, 15.1219511, -0.0552224
-0.6748047, 0.6865234, -0.4868164, 32.8048782, 17.3780499, 15.8536587, -0.0451514
-0.6386719, 0.6958008, -0.4863281, 34.3902435, 19.0243912, 16.8902435, -0.0451514
-0.6210938, 0.703125, -0.4985352, 35.1829262, 20.4878044, 17.2560978, -0.0498512
-0.5991211, 0.7021484, -0.5268555, 35.4878044, 23.7195129, 17.6829281, -0.0485084
-0.5898438, 0.7021484, -0.5390625, 35.3658562, 25.060976, 17.9268303, -0.0451514
-0.5966797, 0.6899414, -0.546875, 34.0853653, 27.1951218, 17.1341476, -0.0438087
-0.605957, 0.6772461, -0.5375977, 33.0487823, 28.1707325, 16.8292694, -0.0391089
-0.6293945, 0.6523438, -0.5087891, 31.9512196, 29.9390259, 15.6707325, -0.0392767
-0.6376953, 0.6386719, -0.4995117, 32.5, 30.4878063, 15.3048782, -0.0387732
-0.6518555, 0.6162109, -0.5048828, 35.2439041, 31.7073174, 15.6707325, -0.0350805
-0.6503906, 0.6132812, -0.5234375, 37.1951218, 32.0731697, 16.8292694, -0.0317235
-0.644043, 0.6210938, -0.5761719, 41.4024391, 31.9512196, 18.9024391, -0.030045
-0.6293945, 0.6347656, -0.5996094, 43.1707344, 32.0121956, 18.9634151, -0.0323949
-0.628418, 0.644043, -0.5952148, 42.8048782, 31.5243912, 18.1707325, -0.0280308
-0.6308594, 0.6494141, -0.5722656, 42.6829262, 30.2439022, 17.0731716, -0.0253452
-0.6289062, 0.6469727, -0.5654297, 43.4146347, 30.060976, 16.5853653, -0.0246738
-0.6225586, 0.6484375, -0.5854492, 45.3048782, 30.1829281, 17.0121956, -0.0236667
-0.6181641, 0.6567383, -0.6030273, 46.2804871, 30.6097565, 17.560976, -0.01561
-0.612793, 0.6787109, -0.6542969, 47.1951218, 31.280489, 18.8414631, -0.0025177
-0.6108398, 0.6826172, -0.6777344, 46.9512215, 31.4634151, 19.1463413, 0.0298772
-0.6235352, 0.675293, -0.690918, 45.5487823, 31.8292694, 18.780489, 0.04448
-0.6328125, 0.6601562, -0.6855469, 44.7560997, 31.7682934, 18.3536587, 0.0439765
-0.6494141, 0.6376953, -0.6567383, 44.7560997, 30.3048782, 17.9268303, 0.0414588
-0.6582031, 0.640625, -0.637207, 46.7682953, 28.3536587, 18.4146347, 0.0382696
-0.6494141, 0.6523438, -0.6425781, 47.9268303, 27.7439022, 19.0243912, 0.0270237
-0.6254883, 0.6616211, -0.6733398, 49.8170738, 27.5, 21.5853672, 0.0359197
-0.6103516, 0.6679688, -0.6962891, 50.1219521, 28.5365868, 22.1951218, 0.0481727
-0.6083984, 0.6928711, -0.7202148, 48.5975609, 31.1585369, 22.439024, 0.0347448
-0.6123047, 0.7050781, -0.7260742, 47.3780518, 32.0731697, 22.5, -0.0095674
-0.621582, 0.7241211, -0.722168, 45.5487823, 33.1097565, 23.2317085, -0.0817426
-0.6201172, 0.7250977, -0.7231445, 45, 33.9634171, 23.4756107, -0.1277333
-0.6245117, 0.722168, -0.7119141, 43.7195129, 35.1219521, 23.5365868, -0.1307546
-0.6264648, 0.7211914, -0.6992188, 43.7195129, 35.4268303, 23.5975609, -0.0914778
-0.6176758, 0.7167969, -0.6694336, 43.7195129, 35.9756088, 23.5975609, -0.0193027
-0.6000977, 0.7026367, -0.6445312, 44.5731735, 37.1951218, 23.5365868, 0.047837
-0.590332, 0.6943359, -0.637207, 45.1829262, 38.0487823, 23.6585369, 0.0897993
-0.5717773, 0.6694336, -0.6484375, 47.4390259, 40.7317085, 23.1097565, 0.1131304
-0.5654297, 0.6669922, -0.6625977, 48.1707344, 42.5609779, 23.2926826, 0.114641
-0.5571289, 0.6884766, -0.6923828, 49.3292694, 46.1585388, 23.3536587, 0.0951705
-0.5512695, 0.7050781, -0.6953125, 49.9390259, 47.8048782, 23.2926826, 0.0656291
-0.5317383, 0.7451172, -0.6889648, 48.3536606, 51.4024391, 23.7195129, 0.036759
-0.5170898, 0.7495117, -0.6914062, 47.8048782, 53.0487823, 23.780489, 0.0031891
-0.5029297, 0.7172852, -0.7021484, 46.4634171, 56.5243912, 24.0853672, -0.0229953
-0.496582, 0.699707, -0.7172852, 46.5853653, 58.4146347, 24.3292694, -0.0350805
-0.5043945, 0.6665039, -0.7416992, 46.4024391, 61.8902435, 23.4756107, -0.0471656
-0.5410156, 0.6542969, -0.7758789, 46.2195129, 64.1463394, 22.0121956, -0.0592508
-0.5673828, 0.6557617, -0.7861328, 46.4634171, 64.6341476, 21.6463413, -0.0726787
-0.625, 0.6733398, -0.8115234, 46.5853653, 65.0609741, 21.7073174, -0.0793927
-0.6464844, 0.6850586, -0.8222656, 47.1341476, 64.8780518, 22.3170738, -0.0814069
-0.6572266, 0.6982422, -0.8466797, 46.8292694, 63.7195129, 24.5121956, -0.076875
-0.6518555, 0.6972656, -0.8574219, 46.341465, 63.4756126, 25.7926826, -0.0775463
-0.6308594, 0.6962891, -0.8725586, 45.0609779, 63.5365868, 27.1341476, -0.0807355
-0.6171875, 0.7016602, -0.8701172, 44.2073174, 63.4146347, 27.7439022, -0.0626078
-0.5976562, 0.7138672, -0.8623047, 43.1707344, 64.0853653, 28.841465, -0.0360876
-0.5869141, 0.7163086, -0.8579102, 42.2560997, 64.0853653, 29.4512196, -0.0082246
-0.5678711, 0.7167969, -0.8232422, 41.4634171, 64.1463394, 29.3292694, 0.012253
-0.5576172, 0.690918, -0.7548828, 41.0975609, 64.2682953, 28.1097565, 0.0327306
-0.5444336, 0.6816406, -0.7280273, 41.4024391, 64.3902435, 27.3780499, 0.0481727
-0.515625, 0.6572266, -0.7114258, 43.4756126, 65.3048782, 28.0487804, 0.0553902
-0.5, 0.6396484, -0.7202148, 44.9390259, 66.4634171, 28.780489, 0.0461585
-0.472168, 0.625, -0.7529297, 45.7926826, 70.18293, 29.5731716, 0.0260166
-0.4750977, 0.625, -0.769043, 45.9146347, 72.5, 29.3902454, 0.0078889
-0.5126953, 0.6425781, -0.7822266, 45.6707344, 76.0975647, 27.9878063, -0.0129244
-0.5336914, 0.6572266, -0.7802734, 45.9146347, 76.3414688, 27.7439022, -0.0384375
-0.5566406, 0.690918, -0.777832, 47.7439041, 76.7073212, 29.0243912, -0.054551
-0.5507812, 0.7036133, -0.7836914, 48.7804871, 76.5853653, 29.3902454, -0.0659648
-0.5263672, 0.6982422, -0.7900391, 49.3902435, 77.4390259, 29.3902454, -0.0777142
-0.5058594, 0.6821289, -0.7993164, 49.5121956, 79.5731735, 28.9634151, -0.0679789
-0.4970703, 0.6738281, -0.8056641, 49.2682953, 80.4878082, 28.780489, -0.0357519
-0.4892578, 0.6713867, -0.8256836, 49.9390259, 81.9512177, 28.6585369, 0.021149
-0.4892578, 0.6743164, -0.8320312, 50.2439041, 83.0487823, 28.1707325, 0.0404517
-0.5097656, 0.6816406, -0.8491211, 50.3048782, 83.9024429, 27.0731716, -0.0129244
-0.5200195, 0.6816406, -0.8564453, 49.8780518, 83.8414688, 26.7073174, -0.0882887
-0.5400391, 0.6728516, -0.8745117, 50.0609779, 84.3902435, 26.7073174, -0.1485466
-0.550293, 0.6713867, -0.8793945, 50.1829262, 84.146347, 26.5243912, -0.1868162
-0.5654297, 0.659668, -0.862793, 50.7317085, 83.9024429, 26.280489, -0.1942016
-0.5737305, 0.6567383, -0.8515625, 51.5243912, 83.4146347, 26.0365868, -0.1717098
-0.574707, 0.6411133, -0.8383789, 52.1341476, 83.0487823, 26.3414631, -0.1284047
-0.5458984, 0.6342773, -0.8530273, 54.2073174, 83.2926865, 28.3536587, -0.0753643
-0.5317383, 0.6396484, -0.8657227, 54.9390259, 84.0243912, 29.1463413, -0.0276951
-0.4970703, 0.6606445, -0.8691406, 55.1219521, 85.7317123, 30.1829281, 0.0035248
-0.4916992, 0.6645508, -0.8642578, 55.0609779, 86.1585388, 30, 0.0186313
-0.4902344, 0.6577148, -0.8549805, 54.3292694, 87.0121994, 29.5731716, 0.023331
-0.4868164, 0.6464844, -0.8486328, 54.7560997, 87.2560959, 29.2073174, 0.0199741
-0.480957, 0.6269531, -0.8579102, 55.4878044, 88.3536606, 28.841465, 0.0169528
-0.4824219, 0.6303711, -0.8608398, 56.4024391, 88.9024429, 28.5975609, 0.0159457
-0.4819336, 0.6489258, -0.8764648, 58.2926826, 89.0243912, 28.9634151, 0.0023499
-0.4746094, 0.6557617, -0.8964844, 59.3902435, 89.0853653, 29.6341476, -0.0142672
-0.4692383, 0.6484375, -0.9506836, 59.5731735, 89.7560959, 29.6951218, -0.0287022
-0.4936523, 0.65625, -0.9799805, 59.1463432, 91.4024429, 29.4512196, -0.0387732
-0.5180664, 0.6699219, -0.9765625, 59.0853691, 91.5243912, 29.2682934, -0.0475013
-0.5507812, 0.7011719, -0.9394531, 58.1097565, 90, 29.1463413, -0.0528725
-0.5493164, 0.7114258, -0.9179688, 57.8658562, 89.2682953, 29.1463413, -0.0525368
-0.5107422, 0.6977539, -0.9047852, 58.4146347, 88.7195129, 30.2439022, -0.0522011
-0.4785156, 0.6865234, -0.9042969, 58.5975609, 89.146347, 31.1585369, -0.0485084
-0.4228516, 0.6396484, -0.90625, 58.4146347, 92.8048782, 31.4024391, -0.0406195
-0.4086914, 0.6191406, -0.9042969, 58.3536606, 94.146347, 31.1585369, -0.0381018
-0.4208984, 0.5932617, -0.9116211, 58.9024391, 96.0365906, 30.6097565, -0.0271916
-0.4375, 0.5878906, -0.9155273, 60.8536606, 96.7073212, 30.2439022, -0.0253452
-0.4692383, 0.5908203, -0.9282227, 62.0121956, 97.1341476, 30.060976, -0.0350805
-0.5107422, 0.609375, -0.9287109, 63.7804909, 96.0975647, 30.060976, -0.0438087
-0.5253906, 0.6210938, -0.9350586, 64.7560959, 95.7926865, 30.5487804, -0.0538796
-0.5053711, 0.6542969, -0.9667969, 66.6463394, 94.8170776, 33.1707306, -0.0503548
-0.4760742, 0.6728516, -0.9838867, 66.5853653, 94.9390259, 34.5121956, -0.0414588
-0.4326172, 0.6933594, -1.0029297, 65.3658524, 97.4390259, 35.0609779, -0.018967
-0.4243164, 0.6879883, -0.9941406, 64.0243912, 98.3536606, 34.2682953, 0.0057069
-0.4174805, 0.6479492, -0.9848633, 61.341465, 99.4512253, 33.7804871, 0.0240024
-0.4125977, 0.6176758, -0.9921875, 60.7926826, 99.5121994, 33.7195129, 0.0260166
-0.4282227, 0.5703125, -1.0043945, 61.6463432, 99.5121994, 33.1097565, 0.0246738
-0.4482422, 0.5581055, -0.9995117, 63.2926826, 97.9268341, 31.7073174, 0.0229953
-0.5083008, 0.5556641, -0.9726562, 64.6341476, 96.5853653, 31.280489, 0.0157778
-0.5419922, 0.5644531, -0.9384766, 68.1707306, 93.2926865, 31.4024391, 0.0139315
-0.5454102, 0.5766602, -0.9287109, 70.3658524, 91.9512253, 32.2560997, 0.0310521
-0.4892578, 0.6079102, -0.9321289, 74.2682953, 90.4268341, 36.341465, 0.0451514
-0.440918, 0.6186523, -0.9482422, 75.4268341, 91.0365906, 38.4146347, 0.0387732
-0.3408203, 0.6220703, -0.987793, 75.0609741, 95.18293, 40.1829262, 0.0372625
-0.3168945, 0.6147461, -1, 74.0243912, 98.0487823, 40, 0.0381018
-0.309082, 0.6030273, -1.0024414, 72.6219559, 102.1951218, 38.2926826, 0.0243381
-0.3208008, 0.6015625, -0.9975586, 72.0731735, 103.4146347, 37.8658562, 0.0132601
-0.3505859, 0.6025391, -0.9785156, 72.0731735, 104.2073212, 36.6463432, 0.0038605
-0.3642578, 0.5986328, -0.9765625, 73.2317123, 104.0853653, 36.2195129, -0.0083925
-0.3774414, 0.5854492, -0.9711914, 73.5365906, 104.4512253, 35.9146347, -0.0082246
-0.3730469, 0.5698242, -0.9848633, 74.6951218, 105.4268341, 35.7926826, 0.002182
-0.3696289, 0.5629883, -0.9985352, 74.8170776, 106.2804871, 35.9146347, 0.0109102
-0.3579102, 0.565918, -1.0444336, 75.0609741, 107.5609818, 37.0121956, 0.0016785
-0.3569336, 0.5688477, -1.0766602, 74.8780518, 107.8658524, 37.8658562, -0.0223239
-0.3540039, 0.5825195, -1.105957, 74.0853653, 108.2926865, 39.6341476, -0.0357519
-0.3515625, 0.5883789, -1.1030273, 73.1707306, 108.5975647, 39.5731735, -0.0377661
-0.3637695, 0.5683594, -1.0678711, 71.2804871, 107.0731735, 38.1097565, -0.0303807
-0.3759766, 0.5507812, -1.0458984, 71.4634171, 106.4634171, 37.4390259, -0.0172885
-0.3857422, 0.5253906, -1.0263672, 73.9024429, 104.9390259, 37.5, 0.0109102
-0.3764648, 0.5292969, -1.0361328, 76.7073212, 104.3902435, 38.3536606, 0.0350805
-0.355957, 0.5541992, -1.050293, 77.1341476, 104.4512253, 38.9634171, 0.0522011
-0.3115234, 0.6000977, -1.0522461, 76.7682953, 104.3292694, 40.1219521, 0.0522011
-0.28125, 0.605957, -1.046875, 75.7926865, 103.7804871, 40.6707344, 0.0407874
-0.2226562, 0.5986328, -1.0302734, 73.9024429, 104.5121994, 39.8780479, 0.0256809
-0.2060547, 0.5854492, -1.0200195, 73.2317123, 105.9756088, 39.1463432, 0.0139315
-0.1953125, 0.5273438, -0.9916992, 73.2317123, 108.4756088, 37.2560997, -0.002182
-0.203125, 0.4912109, -0.9750977, 73.8414688, 109.5731735, 36.0365868, -0.0176242
-0.2490234, 0.4282227, -0.9658203, 76.0365906, 110.4878082, 33.3536606, -0.0290379
-0.277832, 0.4248047, -0.9746094, 77.68293, 110.2439041, 33.4146347, -0.0381018
-0.2958984, 0.4521484, -1.0551758, 82.1951218, 109.5731735, 36.2804871, -0.0448157
-0.293457, 0.4785156, -1.0981445, 83.6585388, 109.6341476, 37.6829262, -0.0459907
-0.3061523, 0.534668, -1.1582031, 83.4146347, 109.6341476, 38.1097565, -0.0438087
-0.3149414, 0.5649414, -1.1264648, 81.2195129, 107.5609818, 37.6219521, -0.0464942
-0.3129883, 0.5620117, -1.0898438, 80.3048782, 105.6097565, 37.0121956, -0.0485084
-0.2680664, 0.5239258, -1.0273438, 79.7560959, 101.9512253, 37.3170738, -0.0458228
-0.2324219, 0.4931641, -1.015625, 80.6097565, 101.4024429, 37.5609779, -0.0216526
-0.1523438, 0.4438477, -1.0488281, 81.5853653, 103.2926865, 38.3536606, -0.0102388
-0.1318359, 0.4331055, -1.0751953, 81.7073212, 105.4268341, 37.9268303, -0.018967
-0.1538086, 0.4477539, -1.109375, 81.5853653, 109.3902435, 36.5243912, -0.0377661
-0.1884766, 0.46875, -1.1113281, 81.4024429, 110.0609818, 35.3658562, -0.0525368
-0.2421875, 0.5219727, -1.1000977, 81.2804871, 108.0487823, 34.5731697, -0.0619364
-0.2568359, 0.5483398, -1.1020508, 82.3170776, 104.9390259, 34.6341476, -0.0532082
-0.2358398, 0.5649414, -1.1162109, 82.1341476, 103.5975647, 35.3658562, -0.0394446
-0.1728516, 0.5336914, -1.125, 79.7560959, 104.0853653, 35.2439041, -0.0250095
-0.1533203, 0.5063477, -1.1225586, 78.5365906, 104.7561035, 34.5731697, -0.0125887
-0.1455078, 0.440918, -1.0786133, 76.9512177, 107.4390259, 32.2560997, -0.0105745
-0.1586914, 0.4199219, -1.0551758, 77.4390259, 107.8658524, 31.5853672, -0.0115816
-0.1894531, 0.4003906, -1.0214844, 80.4878082, 106.646347, 30.6707325, -0.0169528
-0.1948242, 0.3901367, -1.019043, 82.5, 105.3048782, 30.5487804, -0.0164492
-0.1948242, 0.3842773, -1.0458984, 86.2195129, 103.9634171, 30.7317085, -0.01561
-0.1953125, 0.3920898, -1.0712891, 87.9268341, 103.9634171, 31.280489, -0.0193027
-0.1894531, 0.4257812, -1.137207, 89.8170776, 104.8780518, 33.4146347, -0.0223239
-0.2006836, 0.4414062, -1.1572266, 89.4512253, 106.1585388, 34.3292694, -0.0283665
-0.2182617, 0.4614258, -1.1552734, 89.0243912, 105.6097565, 34.0243912, -0.0310521
-0.2299805, 0.4384766, -1.0991211, 89.2073212, 102.5609818, 33.2317085, -0.0354162
-0.2241211, 0.4248047, -1.0751953, 90, 100.4268341, 32.9268303, -0.0417945
-0.1625977, 0.3950195, -1.0317383, 93.2926865, 97.1951218, 33.2317085, -0.0508583
-0.1147461, 0.3886719, -1.0170898, 94.8170776, 96.7682953, 33.2317085, -0.0538796
-0.0375977, 0.3696289, -1.0078125, 95.9146347, 99.2682953, 33.4146347, -0.047837
-0.0112305, 0.3623047, -1.0205078, 95.6097565, 101.7073212, 33.1097565, -0.0397803
0.0058594, 0.3603516, -1.0859375, 96.0975647, 107.0121994, 33.1097565, -0.0283665
-0.0063477, 0.3710938, -1.1318359, 96.2804871, 109.8780518, 33.1097565, -0.0146029
-0.0693359, 0.3916016, -1.168457, 95.3048782, 113.9024429, 32.3780479, -0.0035248
-0.1645508, 0.3789062, -1.1518555, 93.7804871, 112.1951218, 29.5731716, 0.0031891
-0.2036133, 0.3652344, -1.1337891, 93.9634171, 109.6341476, 28.9634151, 0.0105745
-0.2099609, 0.3637695, -1.1196289, 96.4024429, 104.0243912, 30.9756107, 0.0008392
-0.1811523, 0.3696289, -1.1210938, 97.9268341, 102.0121994, 32.3780479, -0.0028534
-0.0942383, 0.3725586, -1.1274414, 97.8048782, 101.9512253, 34.0853653, 0.0115816
-0.0585938, 0.3720703, -1.1259766, 96.0365906, 103.1707306, 34.0853653, 0.0251774
-0.0087891, 0.3686523, -1.1162109, 93.1097565, 106.2804871, 34.2682953, 0.0213169
0.015625, 0.3642578, -1.1147461, 92.0731735, 107.8048782, 34.1463432, -0.0104067
0.0341797, 0.3525391, -1.1352539, 91.7073212, 110.6707306, 33.6585388, -0.04448
0.0263672, 0.340332, -1.1411133, 91.3414688, 111.7073212, 32.2560997, -0.0569009
-0.0322266, 0.3286133, -1.1313477, 90.9146347, 112.7439041, 29.6951218, -0.0520333
-0.0947266, 0.3173828, -1.1054688, 91.3414688, 111.2195129, 28.3536587, -0.0377661
-0.1040039, 0.3100586, -1.0917969, 91.8292694, 109.8170776, 28.5975609, -0.0119173
-0.0810547, 0.2895508, -1.0708008, 93.2317123, 107.2561035, 29.4512196, 0.0454871
-0.059082, 0.2739258, -1.0644531, 93.9024429, 106.2804871, 29.2073174, 0.0736858
-0.0107422, 0.2597656, -1.0888672, 95.3048782, 105.5487823, 30.7317085, 0.0696574
0.0209961, 0.2714844, -1.1186523, 95.6707306, 106.0365906, 32.2560997, 0.0428016
0.0595703, 0.3095703, -1.1665039, 95.3048782, 109.2073212, 33.5365868, 0.0085603
0.0488281, 0.3251953, -1.1601562, 94.146347, 110.9146347, 32.3170738, -0.0182956
-0.0024414, 0.3432617, -1.1010742, 91.4024429, 112.1341476, 30, -0.0250095
-0.0200195, 0.3295898, -1.0629883, 91.0365906, 111.2804871, 29.1463413, -0.0223239
0, 0.2768555, -1.0493164, 92.3780518, 108.8414688, 30, -0.0149386
0.0654297, 0.2177734, -1.0639648, 94.5731735, 108.8414688, 31.2195129, 0.0045319
0.0795898, 0.1982422, -1.0664062, 95.2439041, 109.6951218, 31.2195129, 0.0231632
0.0703125, 0.1943359, -1.0913086, 94.8170776, 111.7682953, 30.7926846, 0.0196384
0.050293, 0.2192383, -1.1123047, 95, 112.9268341, 31.4024391, -0.0010071
0.0288086, 0.2866211, -1.15625, 95, 114.2682953, 33.9634171, -0.0250095
0.0292969, 0.3183594, -1.1611328, 94.2682953, 114.6341476, 34.3902435, -0.0548867
0.0283203, 0.3183594, -1.1411133, 91.3414688, 113.5365906, 32.9268303, -0.0731823
0.0288086, 0.2900391, -1.121582, 90.1219559, 112.4390259, 32.4390259, -0.0807355
0.0576172, 0.2138672, -1.1098633, 90.8536606, 110, 31.9512196, -0.0862745
0.0712891, 0.184082, -1.1054688, 92.1341476, 109.6341476, 31.7073174, -0.0834211
0.0551758, 0.1552734, -1.0820312, 94.5121994, 109.0853653, 29.7560978, -0.0745251
0.0175781, 0.1665039, -1.0551758, 97.1951218, 106.2804871, 29.8170738, -0.0844282
0.0146484, 0.1894531, -1.0625, 98.7195129, 104.6341476, 30.7926846, -0.1055772
0.0600586, 0.2216797, -1.1015625, 100.3048782, 102.5, 33.5975609, -0.1169909
0.0839844, 0.2133789, -1.105957, 99.8780518, 102.6219559, 34.5731697, -0.1149767
0.1225586, 0.1655273, -1.0664062, 98.0487823, 102.9878082, 33.2317085, -0.1018845
0.1264648, 0.144043, -1.043457, 97.6219559, 102.9268341, 32.1341476, -0.0793927
0.1088867, 0.1591797, -1.0512695, 99.7561035, 103.2317123, 33.0487823, -0.0501869
0.1171875, 0.1987305, -1.0830078, 101.0365906, 104.5121994, 34.8780479, -0.0243381
0.1542969, 0.2631836, -1.1293945, 99.8780518, 107.1341476, 36.4024391, -0.0072175
0.1606445, 0.2641602, -1.1274414, 97.3170776, 107.68293, 35.1219521, 0.0005035
0.1401367, 0.2070312, -1.1010742, 92.5, 106.646347, 31.7073174, -0.0031891
0.1269531, 0.1640625, -1.1103516, 93.4146347, 103.4146347, 31.5853672, -0.0082246
0.1240234, 0.1650391, -1.1137695, 94.5731735, 102.5, 31.4024391, -0.0162814
0.0883789, 0.1826172, -1.0942383, 95.7317123, 101.0975647, 29.2682934, -0.0075532
0.0698242, 0.1855469, -1.0717773, 95.5487823, 99.0243912, 28.1707325, -0.0072175
0.0668945, 0.1533203, -1.0698242, 95, 94.3902435, 28.5365868, -0.0135958
0.09375, 0.1455078, -1.0947266, 95.1219559, 92.8048782, 29.6951218, -0.0182956
0.1474609, 0.1381836, -1.121582, 95.4878082, 92.1341476, 30.4878063, -0.026688
0.152832, 0.1381836, -1.1142578, 95.18293, 91.8902435, 29.7560978, -0.0357519
0.121582, 0.1333008, -1.0673828, 93.9024429, 89.0853653, 26.8902454, -0.0431373
0.1049805, 0.1381836, -1.0322266, 94.5731735, 87.5, 26.1585369, -0.0710002
0.1171875, 0.1347656, -0.9985352, 97.6219559, 83.4146347, 26.4634151, -0.102388
0.171875, 0.1083984, -0.9892578, 99.5121994, 81.3414688, 26.4024391, -0.110277
0.1918945, 0.090332, -0.9868164, 99.2682953, 81.5853653, 25.9146347, -0.1065843
0.2011719, 0.0839844, -0.9829102, 99.0853653, 83.4756088, 26.0975609, -0.0842603
0.2055664, 0.0878906, -0.9780273, 98.7804871, 84.5121994, 26.5853672, -0.0193027
0.2143555, 0.0864258, -0.9858398, 99.0243912, 86.8292694, 26.0365868, 0.0649577
0.2055664, 0.081543, -0.9946289, 99.2682953, 87.4390259, 24.9390259, 0.1079271
0.1850586, 0.0742188, -0.9990234, 100.9146347, 87.2560959, 23.5975609, 0.0955062
0.1767578, 0.0742188, -0.9921875, 101.5853653, 86.2804871, 23.4756107, 0.064622
0.168457, 0.0883789, -0.9951172, 102.2561035, 84.5121994, 23.5975609, 0.0251774
0.1757812, 0.1030273, -0.9995117, 100.7317123, 84.8780518, 25.4268303, -0.0041962
0.2172852, 0.1098633, -0.996582, 99.4512253, 86.2195129, 26.5243912, -0.0256809
0.2543945, 0.0722656, -0.9814453, 96.2195129, 90.3048782, 26.0365868, -0.0323949
0.2509766, 0.0405273, -0.9741211, 95.4878082, 91.2804871, 25.1219521, -0.0105745
0.2299805, 0.0078125, -0.9873047, 95.9146347, 91.7073212, 23.7195129, 0.0105745
0.2177734, 0.0161133, -0.9995117, 97.1951218, 91.646347, 23.5975609, 0.0203098
0.1826172, 0.0463867, -1.0229492, 98.2317123, 91.3414688, 22.8048782, 0.0213169
0.1601562, 0.0625, -1.0385742, 97.5, 90.3048782, 22.5, 0.0102388
0.1386719, 0.0849609, -1.0986328, 95.6097565, 88.5365906, 23.9634151, -0.0075532
0.140625, 0.0927734, -1.1264648, 93.8414688, 88.2926865, 25.4268303, -0.030045
0.1625977, 0.1210938, -1.1162109, 89.146347, 88.2926865, 26.3414631, -0.0448157
0.175293, 0.1162109, -1.081543, 84.5121994, 84.8780518, 24.7560978, -0.0592508
0.1948242, 0.0419922, -0.984375, 83.6585388, 82.8048782, 23.2926826, -0.0726787
0.2211914, -0.0532227, -0.921875, 85.9756088, 78.7804871, 21.4634151, -0.082414
0.2333984, -0.0742188, -0.9077148, 87.8658524, 77.9878082, 20.9756107, -0.0887922
0.2426758, -0.0600586, -0.8857422, 91.1585388, 78.8414688, 20.6707325, -0.0861067
0.2416992, -0.0380859, -0.875, 92.1341476, 79.2682953, 20.9146347, -0.0847639
0.2626953, -0.0146484, -0.855957, 92.7439041, 79.4512177, 22.3780499, -0.0837568
0.2861328, -0.0288086, -0.8481445, 92.9878082, 79.5731735, 23.2926826, -0.0854353
0.34375, -0.097168, -0.84375, 93.3536606, 81.0365906, 22.8048782, -0.0847639
0.3447266, -0.1367188, -0.8364258, 94.146347, 81.8902435, 21.7682934, -0.0780499
0.3081055, -0.1713867, -0.7910156, 97.7439041, 82.8048782, 19.4512196, -0.0696574
0.28125, -0.1674805, -0.7666016, 102.8048782, 81.4024429, 18.6585369, -0.0619364
0.2446289, -0.1411133, -0.7749023, 105.3658524, 80.4268341, 19.2682934, -0.0547189
0.2734375, -0.0927734, -0.8789062, 108.4146347, 79.3902435, 23.1097565, -0.0428016
0.2978516, -0.065918, -0.9345703, 108.7804871, 80.2439041, 25.060976, -0.0317235
0.3222656, -0.0302734, -0.9609375, 105.3048782, 83.1097565, 25.1829281, -0.0213169
0.3032227, -0.0195312, -0.9418945, 102.9878082, 83.1097565, 23.5975609, -0.0149386
0.2548828, -0.0205078, -0.9414062, 99.6341476, 80.7926865, 22.6219521, -0.0109102
0.2612305, -0.019043, -0.9667969, 99.2073212, 79.5121994, 23.8414631, -0.0075532
0.309082, -0.0244141, -0.9858398, 96.4634171, 78.7195129, 24.0243912, -0.0045319
0.3144531, -0.0385742, -0.9394531, 93.9024429, 78.3536606, 21.280489, -0.0083925
0.2817383, -0.074707, -0.7597656, 89.2682953, 73.8414688, 15.5487804, -0.0082246
0.2802734, -0.081543, -0.6958008, 90.7317123, 67.1341476, 16.4634151, -0.0001678
0.3881836, -0.0927734, -0.7475586, 92.5609741, 66.8902435, 19.0853672, 0.0038605
0.5239258, -0.1044922, -0.8891602, 92.0731735, 75.3658524, 21.7682934, 0.0085603
0.5366211, -0.1181641, -0.9086914, 88.9024429, 81.2804871, 19.939024, 0.0159457
0.4018555, -0.1508789, -0.8266602, 83.5975647, 86.8902435, 12.6829271, 0.0208133
0.2998047, -0.1621094, -0.7651367, 83.2317123, 85, 10.4878054, 0.0219883
0.2021484, -0.1459961, -0.7241211, 89.3902435, 77.3170776, 11.0975609, 0.023331
0.2124023, -0.1352539, -0.7563477, 92.9268341, 73.8414688, 13.1707315, 0.0226596
0.293457, -0.1352539, -0.8393555, 95.3048782, 70.9756088, 15.6707325, 0.0172885
0.3208008, -0.1523438, -0.8623047, 94.0243912, 71.1585388, 16.1585369, 0.0223239
0.3378906, -0.1640625, -0.8510742, 91.4024429, 72.0121994, 16.0365849, 0.036759
0.3251953, -0.1586914, -0.8354492, 92.5609741, 71.4024429, 15.6707325, 0.0626078
0.2958984, -0.1401367, -0.8168945, 94.0853653, 69.9390259, 15.4268293, 0.0740215
0.2832031, -0.1328125, -0.8261719, 95.5487823, 65.6707306, 15, 0.0626078
0.2861328, -0.1474609, -0.8232422, 95.9146347, 63.0487823, 14.5121956, 0.0475013
0.2939453, -0.1748047, -0.8022461, 94.4512253, 58.5365868, 14.4512196, 0.0392767
0.3022461, -0.1772461, -0.7861328, 94.4512253, 56.341465, 14.6341467, 0.0246738
0.3432617, -0.1582031, -0.7905273, 94.2073212, 52.7439041, 15.7317076, 0.0146029
0.3623047, -0.1450195, -0.8095703, 94.4512253, 52.1951218, 16.280489, 0.0072175
0.3969727, -0.1210938, -0.8369141, 92.9268341, 52.4390259, 15.6097565, 0.0008392
0.394043, -0.1064453, -0.8188477, 91.4024429, 52.6219521, 14.1463413, -0.0078889
0.3671875, -0.0893555, -0.7583008, 87.8658524, 50.0609779, 11.341464, -0.0137636
0.3671875, -0.0898438, -0.7402344, 84.8170776, 46.5853653, 10.6707315, -0.0102388
0.4174805, -0.1098633, -0.7514648, 83.3536606, 46.0975609, 11.1585369, -0.0036927
0.4799805, -0.1523438, -0.7651367, 78.9024429, 47.5609779, 10.7317076, -0.0011749
0.4926758, -0.1801758, -0.7480469, 76.0365906, 48.5975609, 8.5975609, -0.011078
0.4609375, -0.2246094, -0.6777344, 72.0731735, 48.1707344, 4.390244, -0.0485084
0.4345703, -0.2382812, -0.644043, 71.8902435, 47.0121956, 2.6219513, -0.0929885
0.4003906, -0.2089844, -0.6103516, 73.7195129, 44.5121956, 1.5853659, -0.1183337
0.4047852, -0.1782227, -0.6054688, 74.2682953, 43.7804871, 2.0731707, -0.128069
0.4472656, -0.152832, -0.6430664, 72.3780518, 44.0853653, 3.5975611, -0.1163195
0.4697266, -0.1630859, -0.6645508, 70.0609741, 45.8536606, 4.1463413, -0.0975204
0.4863281, -0.2280273, -0.6831055, 66.2195129, 51.0365868, 4.4512196, -0.0673075
0.4707031, -0.265625, -0.6738281, 64.4512177, 53.5365868, 2.8658538, -0.0354162
0.4003906, -0.3193359, -0.6542969, 65.0609741, 52.6219521, 1.7682927, -0.0075532
0.3232422, -0.3266602, -0.6586914, 68.5975647, 48.841465, 1.097561, 0.0092317
0.3032227, -0.3037109, -0.6621094, 70.7317123, 45.7926826, 1.0365853, 0.0072175
0.2910156, -0.2382812, -0.6577148, 72.9878082, 40.5487823, 1.6463414, -0.002182
0.3032227, -0.2080078, -0.6503906, 72.8658524, 37.8048782, 2.195122, -0.0199741
0.3564453, -0.1967773, -0.6459961, 72.3780518, 34.5731697, 3.2317073, -0.0330663
0.3911133, -0.2045898, -0.6450195, 71.7073212, 34.3292694, 4.0853658, -0.0364233
0.4506836, -0.2363281, -0.6538086, 70, 34.6341476, 5.3658538, -0.0354162
0.4726562, -0.2617188, -0.6572266, 68.5975647, 35.2439041, 5, -0.0276951
0.4604492, -0.2885742, -0.6674805, 67.3170776, 36.0975609, 3.4146342, -0.0213169
0.4399414, -0.2905273, -0.6845703, 67.1951218, 34.5731697, 2.7439024, -0.0193027
0.4008789, -0.2636719, -0.7143555, 66.7682953, 32.9878044, 2.5609756, -0.0162814
0.3657227, -0.2197266, -0.7250977, 64.0243912, 28.9634151, 1.9512196, -0.0077211
0.3520508, -0.2001953, -0.7114258, 61.4024391, 26.4634151, 1.402439, 0.0005035
0.3544922, -0.1835938, -0.6728516, 57.68293, 22.1341476, 0.6097561, 0.0360876
0.3647461, -0.1889648, -0.65625, 56.4634171, 20.060976, 0, 0.0787213
0.4189453, -0.2124023, -0.6499023, 54.0853653, 17.5, 0.1829268, 0.1079271
0.4423828, -0.2294922, -0.6533203, 52.6829262, 17.0121956, 0.0609756, 0.0844282
0.4741211, -0.2661133, -0.659668, 49.5121956, 15.9756098, -1.0365853, 0.049012
0.4746094, -0.2758789, -0.652832, 48.2926826, 15.4268293, -2.0121951, 0.0276951
0.4458008, -0.2695312, -0.637207, 46.2804871, 13.3536587, -3.4146342, 0.0132601
0.4331055, -0.2739258, -0.6245117, 44.6341476, 10.6707315, -4.8170733, 0.0045319
0.4013672, -0.2836914, -0.5883789, 43.5975609, 9.2682924, -5.1829271, -0.0015106
0.3852539, -0.2998047, -0.5385742, 42.4390259, 5.7317076, -5.670732, 0.0052033
0.3969727, -0.3037109, -0.5136719, 42.4390259, 3.7804878, -5.3658538, 0.0132601
0.4443359, -0.3193359, -0.4584961, 41.8902435, -0.3658537, -5.3658538, 0.0260166
0.472168, -0.3320312, -0.4394531, 41.6463432, -1.0365853, -5.1829271, 0.0216526
0.5244141, -0.3500977, -0.4453125, 41.7682953, -0.4268293, -4.9390244, -0.0310521
0.5400391, -0.3491211, -0.4716797, 42.1951218, 1.402439, -3.6585367, -0.0961776
0.5561523, -0.3237305, -0.550293, 41.5853653, 6.0365853, -1.3414634, -0.1408255
0.5488281, -0.3120117, -0.5869141, 39.9390259, 8.6585369, -1.097561, -0.1700313
0.4926758, -0.3085938, -0.5952148, 34.8780479, 11.341464, -2.8658538, -0.1750668
0.4042969, -0.3134766, -0.5390625, 31.4634151, 7.6219516, -5.4268293, -0.1572747
0.375, -0.3203125, -0.5126953, 30.7926846, 3.2926829, -6.3414636, -0.1294118
0.3793945, -0.3168945, -0.4863281, 31.4024391, -4.1463413, -6.4024391, -0.0871138
0.4023438, -0.3178711, -0.4873047, 31.6463413, -6.4024391, -6.280488, -0.0533761
0.4555664, -0.3383789, -0.4990234, 30.4268303, -6.5853658, -5.609756, -0.0357519
0.4726562, -0.3417969, -0.4995117, 29.0243912, -5.609756, -5.1829271, -0.0323949
0.5102539, -0.3271484, -0.4980469, 25.8536587, -2.7439024, -4.0243902, -0.0330663
0.5229492, -0.315918, -0.4946289, 24.0243912, -1.9512196, -3.4146342, -0.0448157
0.5244141, -0.3076172, -0.4956055, 21.4024391, -0.0609756, -4.0243902, -0.0558938
0.5205078, -0.3076172, -0.487793, 20, -0.1219512, -4.6951222, -0.0599222
0.5092773, -0.3325195, -0.4951172, 17.3780499, -0.4268293, -5.3658538, -0.0659648
0.4707031, -0.3671875, -0.5136719, 16.0365849, -1.0365853, -6.4634147, -0.0683146
0.4575195, -0.3706055, -0.5258789, 15.6097565, -1.3414634, -6.4634147, -0.0676432
0.4316406, -0.3364258, -0.512207, 14.2073174, -3.1707318, -5.5487804, -0.0518654
0.4311523, -0.324707, -0.4995117, 13.1707315, -4.390244, -5.2439027, -0.0125887
0.4311523, -0.3374023, -0.4931641, 11.8902445, -6.7682929, -5.4268293, 0.0015106
0.4379883, -0.3525391, -0.5009766, 11.7682934, -7.7439027, -5.0609756, -0.0270237
0.453125, -0.3647461, -0.5361328, 12.560976, -9.3902445, -4.3292685, -0.0407874
0.4628906, -0.3618164, -0.5571289, 12.6219511, -10.3048782, -3.9024391, -0.0431373
0.4633789, -0.3505859, -0.5585938, 11.8902445, -12.3780489, -4.3292685, -0.0159457
0.4555664, -0.3500977, -0.5322266, 10.9756098, -14.2682934, -4.9390244, 0.0317235
0.440918, -0.3569336, -0.440918, 8.9634151, -20.3048782, -6.4024391, 0.0911421
0.4614258, -0.3710938, -0.3647461, 9.0853662, -24.5121956, -7.5, 0.1190051
0.4907227, -0.3828125, -0.3461914, 9.6951218, -25.3048782, -7.4390244, 0.114641
0.5595703, -0.387207, -0.3393555, 9.2073174, -24.2682934, -7.2560978, 0.0884565
0.590332, -0.3862305, -0.3486328, 8.2317076, -22.8048782, -6.3414636, 0.0501869
0.652832, -0.3701172, -0.3803711, 4.9390244, -18.9024391, -4.5731707, 0.0043641
0.6757812, -0.3613281, -0.3891602, 2.8658538, -16.2195129, -4.2073174, -0.0290379
0.6757812, -0.3422852, -0.3745117, -1.3414634, -10.1829271, -6.0365853, -0.0585794
0.6523438, -0.3325195, -0.3515625, -3.2317073, -8.1707315, -7.5, -0.0743572
0.6020508, -0.3349609, -0.3212891, -5.670732, -6.9512196, -10.1829271, -0.0777142
0.5888672, -0.3413086, -0.3208008, -6.280488, -7.3170733, -11.341464, -0.0773785
0.5883789, -0.3647461, -0.3574219, -8.3536587, -7.6219516, -12.560976, -0.0673075
0.5952148, -0.3754883, -0.3916016, -12.1951218, -4.9390244, -12.9268293, -0.0599222
0.5830078, -0.3740234, -0.4008789, -14.6951227, -3.4756098, -13.0487804, -0.0533761
0.5507812, -0.371582, -0.4550781, -17.7439022, -1.7682927, -12.3780489, -0.0515297
0.5268555, -0.3740234, -0.5092773, -18.4146347, -1.8292683, -10.9756098, -0.0513619
0.4912109, -0.3969727, -0.6083984, -21.6463413, -3.2926829, -8.4756098, -0.0485084
0.456543, -0.4130859, -0.6171875, -24.0243912, -4.5731707, -8.5975609, -0.0461585
0.3706055, -0.4448242, -0.5366211, -27.0731716, -11.0975609, -10.2439022, -0.0485084
0.3344727, -0.4345703, -0.4770508, -27.1341476, -15.9756098, -10.4268293, -0.0464942
0.3242188, -0.3574219, -0.3857422, -23.9634151, -25.3658543, -7.5, -0.0424659
0.3666992, -0.3217773, -0.3803711, -22.439024, -27.8658543, -5.4878049, -0.0421302
0.4921875, -0.3027344, -0.418457, -22.9268303, -26.8902454, -2.0731707, -0.0394446
0.5825195, -0.3457031, -0.4648438, -25.9146347, -22.8658543, -0.3048781, -0.0441444
0.605957, -0.3686523, -0.4643555, -27.7439022, -21.2195129, 0.3658537, -0.0411231
0.6074219, -0.409668, -0.4018555, -30.5487804, -19.939024, -0.7317073, -0.0270237
0.5888672, -0.4213867, -0.3608398, -30.9146347, -20.7926826, -2.1341465, -0.012253
0.5463867, -0.4125977, -0.3500977, -28.780489, -23.5365868, -3.4756098, 0.0018463
0.5405273, -0.3935547, -0.3828125, -26.7682934, -25.060976, -3.1097562, 0.0102388
0.5390625, -0.3706055, -0.4907227, -24.5121956, -25.4878063, -2.3780489, 0.0125887
0.527832, -0.3701172, -0.5268555, -25, -25.6097565, -2.7439024, 0.0115816
0.4838867, -0.355957, -0.5332031, -29.1463413, -27.7439022, -3.4756098, 0.0062104
0.4580078, -0.3427734, -0.5151367, -31.0975609, -30.060976, -3.5365853, 0.0048676
0.4511719, -0.2871094, -0.4970703, -33.9024391, -35.4268303, -2.3170731, 0.0186313
0.5009766, -0.2573242, -0.5161133, -36.8292694, -37.8658562, -1.5853659, 0.0313878
0.5317383, -0.2509766, -0.5258789, -38.6585388, -37.7439041, -2.0731707, 0.0325628
0.5708008, -0.2680664, -0.5004883, -44.1463432, -37.9878044, -3.5975611, 0.0240024
0.5869141, -0.2832031, -0.4785156, -46.8902435, -38.5365868, -4.8170733, 0.0129244
0.6191406, -0.3203125, -0.4355469, -51.5243912, -40.1829262, -6.5243902, -0.0015106
0.6298828, -0.3334961, -0.4233398, -52.8048782, -40.4268303, -7.6219516, -0.0256809
0.6313477, -0.324707, -0.421875, -54.8170738, -38.4756088, -9.2682924, -0.0391089
0.6210938, -0.3056641, -0.4282227, -55.9146347, -37.0121956, -9.3292685, -0.0417945
0.6030273, -0.2592773, -0.4726562, -59.2073174, -33.5975609, -9.1463413, -0.0412909
0.5888672, -0.2514648, -0.5097656, -63.9024391, -30.9146347, -8.719512, -0.018967
0.5551758, -0.2470703, -0.5703125, -66.2804871, -29.9390259, -8.5975609, 0.0320592
0.5014648, -0.277832, -0.5634766, -71.4634171, -30, -9.4512196, 0.0621042
0.4711914, -0.2998047, -0.5444336, -73.5975647, -31.341465, -10.6097565, 0.0696574
0.4091797, -0.3481445, -0.5214844, -75.2439041, -36.8902435, -12.1341467, 0.0505226
0.3920898, -0.3618164, -0.5385742, -73.9024429, -40.0609779, -11.7682934, 0.0135958
0.378418, -0.3686523, -0.6069336, -70.3048782, -45.3048782, -9.7560978, 0.002182
0.3754883, -0.3535156, -0.6298828, -69.3902435, -46.8292694, -8.780488, -0.0052033
0.3535156, -0.3139648, -0.6220703, -70.4878082, -50.0609779, -7.5, -0.0172885
0.3457031, -0.2944336, -0.59375, -71.9512177, -52.9268303, -6.6463418, -0.0273594
0.3574219, -0.3037109, -0.5341797, -73.1097565, -60.0609779, -5.7926831, -0.0317235
0.3789062, -0.3095703, -0.527832, -71.2804871, -65.6707306, -4.8170733, -0.0310521
0.4301758, -0.3129883, -0.5478516, -69.7560959, -67.0121994, -4.0853658, -0.0196384
0.4775391, -0.2949219, -0.5947266, -69.1463394, -67.7439041, -2.9878049, -0.0115816
0.4926758, -0.2851562, -0.6069336, -70.5487823, -67.2560959, -2.6829269, -0.012253
0.5004883, -0.2695312, -0.5957031, -75.0609741, -66.8902435, -2.7439024, -0.0082246
0.5014648, -0.2641602, -0.5742188, -76.9512177, -67.1951218, -3.4756098, -0.0068818
0.4902344, -0.2412109, -0.5361328, -79.7560959, -69.5731735, -4.1463413, -0.0082246
0.4926758, -0.2333984, -0.5419922, -79.9390259, -70.5487823, -4.390244, -0.0226596
0.5107422, -0.2241211, -0.578125, -80.5487823, -71.1585388, -4.390244, -0.0464942
0.5224609, -0.2304688, -0.6040039, -81.646347, -71.2804871, -4.7560978, -0.0990311
0.5229492, -0.2524414, -0.6274414, -85.3658524, -70.3658524, -7.0121951, -0.1472038
0.512207, -0.2602539, -0.6279297, -89.146347, -70.4878082, -9.0243902, -0.1634852
0.4760742, -0.2641602, -0.612793, -90.4268341, -70.9756088, -9.5731707, -0.1634852
0.4560547, -0.2587891, -0.6132812, -91.5243912, -73.0487823, -10.4268293, -0.152575
0.4526367, -0.2514648, -0.609375, -92.0121994, -73.8414688, -11.1585369, -0.1277333
0.4404297, -0.2485352, -0.612793, -93.8414688, -75, -11.9512196, -0.0951705
0.4301758, -0.25, -0.6147461, -94.5731735, -75.4268341, -12.0121956, -0.0632792
0.4189453, -0.237793, -0.6123047, -96.5853653, -75.9756088, -10.1219511, -0.0404517
0.4291992, -0.2338867, -0.6176758, -97.7439041, -76.2195129, -8.9634151, -0.0297093
0.4487305, -0.2475586, -0.6171875, -100.5487823, -76.0975647, -7.5, -0.0263523
0.4555664, -0.2504883, -0.6137695, -102.0121994, -75.8536606, -7.3780489, -0.0246738
0.4536133, -0.2670898, -0.6147461, -104.3292694, -75.7317123, -7.8048782, -0.0297093
0.4492188, -0.2724609, -0.6313477, -105.1219559, -75.0609741, -8.2317076, -0.0283665
0.4248047, -0.2744141, -0.6875, -104.8780518, -74.9390259, -7.8658538, -0.0256809
0.3857422, -0.2563477, -0.7416992, -104.3902435, -75.2439041, -7.7439027, -0.027863
0.3666992, -0.2485352, -0.7509766, -104.6341476, -75.8536606, -8.2926826, -0.0354162
0.3198242, -0.2368164, -0.7226562, -106.3414688, -79.5731735, -10.6707315, -0.0404517
0.2871094, -0.2324219, -0.6914062, -106.9512253, -82.1951218, -12.1951218, -0.040116
0.2636719, -0.2236328, -0.6293945, -106.3414688, -88.2317123, -13.0487804, -0.0397803
0.2641602, -0.2231445, -0.6098633, -105.0609818, -90.9146347, -12.1951218, -0.0323949
0.3081055, -0.2138672, -0.6171875, -102.1951218, -94.146347, -8.5365858, -0.0263523
0.3383789, -0.2080078, -0.6381836, -101.5243912, -93.8414688, -6.7073174, -0.0182956
0.4013672, -0.206543, -0.7109375, -102.4390259, -92.3780518, -3.6585367, -0.0226596
0.4233398, -0.2114258, -0.7485352, -105.4268341, -89.2073212, -2.9878049, -0.0250095
0.4335938, -0.2202148, -0.8085938, -107.4390259, -87.6219559, -3.9024391, -0.01561
0.3979492, -0.2167969, -0.7851562, -111.5243912, -86.2195129, -7.8048782, -0.0095674
0.3637695, -0.2075195, -0.7597656, -113.2317123, -87.2560959, -10.2439022, -0.0018463
0.3056641, -0.1767578, -0.7104492, -115.1219559, -91.1585388, -13.841464, 0.0057069
0.2875977, -0.1518555, -0.7211914, -115.0609818, -93.1707306, -13.5365858, 0.0149386
0.2983398, -0.1005859, -0.8032227, -114.146347, -94.8780518, -10.3048782, 0.0273594
0.3188477, -0.0751953, -0.8574219, -113.9634171, -94.5731735, -8.5975609, 0.0344091
0.3603516, -0.0512695, -0.9370117, -117.7439041, -91.8902435, -7.2560978, 0.0421302
0.3637695, -0.0595703, -0.9506836, -121.4634171, -90.5487823, -9.0243902, 0.0522011
0.3325195, -0.1196289, -0.9389648, -130.1219482, -90.8536606, -14.5731707, 0.0522011
0.3037109, -0.1474609, -0.9199219, -132.6829224, -95.2439041, -18.4146347, 0.0488441
0.2514648, -0.1713867, -0.8706055, -131.5243988, -98.2317123, -18.5975609, 0.0384375
0.2368164, -0.1538086, -0.8022461, -128.1097565, -104.146347, -19.2073174, 0.0317235
0.2304688, -0.1420898, -0.7617188, -126.8292694, -106.2195129, -20.1219521, 0.0226596
0.215332, -0.1274414, -0.7045898, -126.0975647, -109.2073212, -20.2439022, 0.0117494
0.2128906, -0.1264648, -0.7006836, -125.2439041, -109.9390259, -17.3170738, 0.0072175
0.2651367, -0.1557617, -0.7563477, -122.3170776, -108.7804871, -7.9268293, 0.0018463
0.3178711, -0.1791992, -0.7973633, -121.3414688, -106.4024429, -4.1463413, -0.008896
0.3789062, -0.2255859, -0.840332, -122.9878082, -100.9756088, -3.7804878, -0.0169528
0.3642578, -0.2421875, -0.8378906, -124.5121994, -98.7195129, -6.1585369, -0.0290379
0.2714844, -0.2216797, -0.8100586, -124.3902435, -97.6219559, -9.6951218, -0.0344091
0.2128906, -0.1962891, -0.8134766, -117.4390259, -100.9756088, -8.0487804, -0.061265
0.1484375, -0.1445312, -0.9033203, -112.86586, -103.1707306, -6.4024391, -0.0991989
0.1171875, -0.1015625, -1.0424805, -104.8780518, -107.7439041, -5.5487804, -0.1210193
0.0917969, -0.0722656, -1.0878906, -103.4146347, -110.1219559, -6.5243902, -0.1233692
0.027832, 0, -1.1049805, -102.3780518, -116.3414688, -9.1463413, -0.1077592
0.0004883, 0.0195312, -1.090332, -102.4390259, -120.6097565, -9.9390249, -0.0820783
-0.0024414, 0.0351562, -1.0224609, -101.4634171, -130.5487823, -9.7560978, -0.043473
0.0322266, 0.0249023, -0.9755859, -100.3048782, -135.5487823, -9.3292685, 0.0038605
0.1450195, -0.015625, -0.8745117, -98.4146347, -143.1097565, -8.9634151, 0.061265
0.2094727, -0.0415039, -0.8203125, -97.8048782, -144.8170776, -9.0243902, 0.112459
0.3457031, -0.0927734, -0.7392578, -96.8292694, -143.3536682, -9.0853662, 0.1388113
0.40625, -0.1049805, -0.7304688, -95.9146347, -136.8292694, -8.4146347, 0.1267262
0.4980469, -0.1000977, -0.7827148, -95.6707306, -131.3414612, -7.8658538, 0.1038987
0.5380859, -0.0380859, -0.8764648, -96.8902435, -118.0487823, -8.4146347, 0.0862745
0.5297852, 0.012207, -0.9233398, -98.9634171, -110.7317123, -10.3658543, 0.0908064
0.4443359, 0.1137695, -0.9760742, -107.2561035, -97.5609741, -16.3414631, 0.0891279
0.3745117, 0.1459961, -0.9804688, -112.7439041, -92.9268341, -19.4512196, 0.0569009
0.2485352, 0.1381836, -0.996582, -121.9512253, -89.7560959, -21.280489, 0.0339055
0.1992188, 0.1103516, -1.0449219, -123.9634171, -90.3658524, -19.6341476, 0.0132601
0.168457, 0.0351562, -1.1762695, -125.7926865, -93.5975647, -13.9024391, 0.0052033
0.168457, -0.0009766, -1.2348633, -126.646347, -94.6341476, -12.560976, 0.0011749
0.1186523, -0.0351562, -1.2514648, -132.0731812, -97.8048782, -17.3170738, 0.005539
0.0600586, -0.027832, -1.206543, -137.2561035, -104.9390259, -24.5731716, 0.0105745
-0.0849609, 0.0185547, -1.0751953, -137.6829376, -110.4268341, -24.9390259, 0.0005035
-0.1054688, 0.0532227, -0.996582, -132.3780518, -123.2317123, -17.9268303, -0.0041962
-0.0532227, 0.0419922, -0.9902344, -127.9268341, -128.9634247, -13.1707315, 0.0307164
0.1074219, -0.0380859, -1.0136719, -121.4634171, -135.3048859, -10.1219511, 0.0411231
0.1640625, -0.0878906, -1.0185547, -120.2439041, -135.6707306, -11.4024391, -0.0025177
0.1933594, -0.1601562, -0.9912109, -118.0487823, -134.0853729, -14.8780489, -0.0538796
0.1855469, -0.1733398, -0.9619141, -115.9146347, -133.3536682, -15.5487804, -0.1005417
0.1479492, -0.144043, -0.9013672, -108.8414688, -134.3902435, -15.3658543, -0.1498894
0.1337891, -0.1142578, -0.8696289, -104.3292694, -136.2804871, -15.2439032, -0.1784237
0.1274414, -0.0629883, -0.8032227, -95.18293, -141.0975647, -15.7317076, -0.1666743
0.1586914, -0.0522461, -0.7075195, -88.7195129, -145.1829376, -15.8536587, -0.1411612
0.1943359, -0.0742188, -0.6538086, -86.0365906, -146.8292694, -15.5487804, -0.1176623
0.2875977, -0.1469727, -0.6010742, -80.4268341, -145.4878082, -14.0243902, -0.1042344
0.3354492, -0.1796875, -0.6230469, -77.8048782, -143.6585388, -12.5, -0.0921492
0.4003906, -0.1767578, -0.7592773, -71.6463394, -134.3902435, -7.6829271, -0.0748608
0.4160156, -0.1147461, -0.8569336, -68.8414688, -128.2926788, -5.4878049, -0.0663005
0.3823242, 0.1054688, -1.0625, -68.0487823, -114.8780518, -3.6585367, -0.057908
0.3320312, 0.2226562, -1.137207, -71.7073212, -108.7804871, -5.1829271, -0.0572366
0.2080078, 0.3813477, -1.230957, -86.5853653, -100.6097565, -11.0975609, -0.0572366
0.1420898, 0.3994141, -1.2597656, -95.7317123, -99.7561035, -14.3902445, -0.0686503
0.0605469, 0.3188477, -1.3496094, -110.4268341, -102.4390259, -17.6219521, -0.0777142
0.0053711, 0.2216797, -1.496582, -114.6951218, -108.5365906, -17.3780499, -0.0777142
-0.0336914, 0.222168, -1.5307617, -115.1219559, -112.4390259, -16.8292694, -0.0815747
-0.1137695, 0.2626953, -1.4560547, -120.4878082, -121.9512253, -19.4512196, -0.0850996
-0.1416016, 0.2441406, -1.3530273, -125.7926865, -128.9024353, -23.5975609, -0.0807355
-0.1542969, 0.1230469, -1.0908203, -135.4878082, -146.8902435, -32.6829262, -0.0699931
-0.1347656, 0.0527344, -0.9741211, -136.7682953, -155.2439117, -33.4756088, -0.040116
-0.0073242, -0.0239258, -0.8510742, -128.5975647, -164.7561035, -23.6585369, -0.0166171
0.1025391, -0.0307617, -0.8671875, -121.9512253, -164.6341553, -16.7682934, -0.0062104
0.3032227, 0.019043, -0.9907227, -113.3536606, -155.0609741, -9.0853662, -0.0082246
0.3452148, 0.0664062, -1.0649414, -113.5365906, -147.8048859, -9.0853662, -0.0199741
0.3149414, 0.1577148, -1.1694336, -120.1219559, -132.7439117, -13.2317076, -0.0337377
0.1894531, 0.1933594, -1.1733398, -127.3170776, -124.2682953, -17.6829281, -0.0357519
0.1108398, 0.1791992, -1.1425781, -129.3292694, -122.9878082, -20.7926826, -0.0236667
-0.078125, 0.0825195, -1.03125, -127.7439041, -127.0731735, -28.9634151, -0.0182956
-0.168457, 0.0288086, -0.9707031, -123.2317123, -132.0731812, -31.7073174, -0.0196384
-0.309082, -0.0229492, -0.9067383, -106.2804871, -145.9146423, -31.4024391, -0.0142672
-0.3354492, -0.0048828, -0.9101562, -94.6341476, -153.7195129, -27.6219521, -0.0001678
-0.2612305, 0.0874023, -0.9697266, -72.2560959, -167.5609741, -17.9878044, 0.0132601
-0.1884766, 0.1381836, -1.0068359, -64.8170776, -172.3780518, -14.6341467, 0.0191348
-0.0620117, 0.2026367, -1.0424805, -58.5365868, -176.0365906, -13.9634151, 0.0213169
-0.0146484, 0.2114258, -1.0390625, -58.4146347, -174.8780518, -15, -0.0058747
0.0371094, 0.190918, -1.0375977, -59.3292694, -170.6707306, -16.5853653, -0.0495155
0.0522461, 0.1567383, -1.1181641, -57.9268303, -164.9390259, -16.0975609, -0.0713359
0.0424805, 0.1606445, -1.1923828, -56.1585388, -162.0121918, -16.0365849, -0.0757
-0.019043, 0.222168, -1.3330078, -54.6341476, -157.6829376, -17.2560978, -0.0605936
-0.0708008, 0.2768555, -1.387207, -55.4268303, -157.1341553, -19.0243912, -0.0310521
-0.2255859, 0.4003906, -1.4438477, -60.7926826, -159.8780518, -23.4146347, 0.0078889
-0.2910156, 0.4516602, -1.4492188, -65.18293, -163.0487823, -24.1463413, 0.0663005
-0.3388672, 0.5141602, -1.425293, -75.5487823, -171.5853729, -20.1219521, 0.1260548
-0.3071289, 0.5229492, -1.3959961, -81.4024429, -175.5487823, -17.0731716, 0.1163195
-0.1728516, 0.4897461, -1.3046875, -94.5121994, -179.5121918, -13.4146347, 0.0931563
-0.0874023, 0.4506836, -1.2329102, -101.3414688, -178.4756165, -13.2317076, 0.0849317
0.0805664, 0.3408203, -1.0727539, -113.5365906, -172.1341553, -15.060976, 0.0679789
0.2236328, 0.2080078, -0.9521484, -121.9512253, -161.7682953, -19.0853672, 0.0340734
0.2636719, 0.1411133, -0.9169922, -125, -155.6097565, -21.7682934, 0.0354162
0.2587891, 0.0234375, -0.8959961, -128.0487823, -142.8048859, -26.4634151, 0.023331
0.2143555, -0.0092773, -0.921875, -127.9878082, -136.4634247, -28.2317085, -0.0082246
0.0566406, 0.0141602, -1.03125, -122.7439041, -125.7926865, -29.0243912, -0.0377661
-0.0546875, 0.074707, -1.1054688, -118.6585388, -122.2561035, -28.7195129, -0.0649577
-0.3173828, 0.2685547, -1.2319336, -112.2561035, -122.2561035, -27.4390259, -0.0713359
-0.4296875, 0.3735352, -1.265625, -109.9390259, -126.5853653, -25.5487804, -0.0652934
-0.565918, 0.5249023, -1.2641602, -109.0243912, -142.3780518, -20.4878044, -0.0481727
-0.5673828, 0.5483398, -1.2246094, -109.6341476, -150.8536682, -18.2317085, -0.0283665
-0.4589844, 0.4902344, -1.1220703, -108.9024429, -162.4390259, -16.7682934, -0.0119173
-0.3100586, 0.3261719, -1.0556641, -106.646347, -162.1341553, -19.7560978, -0.002182
-0.2421875, 0.2280273, -1.0395508, -105.5487823, -158.9024353, -21.9512196, 0.005539
-0.1728516, 0.0488281, -1.0048828, -103.1097565, -150.2439117, -27.4390259, 0.0092317
-0.1723633, 0.0004883, -0.9785156, -100.9146347, -147.2561035, -29.0243912, 0.0115816
-0.2080078, 0.012207, -0.8950195, -95.5487823, -146.0975647, -28.0487804, -0.0035248
-0.2290039, 0.0517578, -0.8574219, -91.3414688, -147.86586, -25.5487804, -0.0276951
-0.2348633, 0.1381836, -0.8652344, -81.646347, -150.7317047, -20.1219521, -0.0397803
-0.2324219, 0.1679688, -0.9150391, -77.3170776, -150, -17.9268303, -0.047837
-0.2416992, 0.2070312, -1.0605469, -72.6219559, -143.5365906, -14.8170738, -0.0498512
-0.2597656, 0.2192383, -1.1352539, -72.7439041, -139.0243988, -14.1463413, -0.0505226
-0.3486328, 0.2373047, -1.2407227, -75.9756088, -131.5243988, -14.2682934, -0.0498512
-0.4707031, 0.3061523, -1.253418, -78.1707306, -132.8048859, -12.8048782, -0.0461585
-0.5097656, 0.3520508, -1.2260742, -77.3780518, -136.2804871, -11.1585369, -0.04448
-0.5214844, 0.4394531, -1.1523438, -74.1463394, -146.8902435, -8.3536587, -0.0459907
-0.4941406, 0.4609375, -1.1181641, -72.5, -152.0121918, -7.9878049, -0.0488441
-0.3945312, 0.4541016, -1.0795898, -70.9756088, -157.2561035, -9.4512196, -0.0448157
-0.3417969, 0.4223633, -1.0854492, -71.3414688, -156.0975647, -10.1829271, -0.0317235
-0.2490234, 0.3583984, -1.152832, -73.2317123, -147.7439117, -11.219512, -0.0028534
-0.2290039, 0.3491211, -1.2084961, -74.3902435, -142.2561035, -11.280488, 0.0119173
-0.2529297, 0.3789062, -1.324707, -77.0731735, -134.3292694, -10.4268293, -0.0041962
-0.284668, 0.4169922, -1.3554688, -82.5609741, -134.6341553, -11.5853662, -0.0256809
-0.3759766, 0.4946289, -1.3012695, -86.3414688, -137.2561035, -13.9024391, -0.0328985
-0.4628906, 0.5126953, -1.0917969, -93.9024429, -142.5, -19.939024, -0.0129244
-0.4853516, 0.4853516, -0.9682617, -96.2195129, -144.2073212, -22.560976, 0.0555581
-0.4428711, 0.3588867, -0.8125, -94.2073212, -142.0731812, -22.6829281, 0.0884565
-0.3950195, 0.2744141, -0.796875, -90.1219559, -137.9268341, -20.9756107, 0.0639506
-0.2895508, 0.1425781, -0.8696289, -81.1585388, -126.4634171, -16.3414631, 0.0025177
-0.2670898, 0.1137695, -0.9194336, -77.68293, -121.1585388, -14.8170738, -0.0540475
-0.3051758, 0.1674805, -0.9770508, -73.4756088, -113.9634171, -13.4756098, -0.1159838
-0.3510742, 0.2353516, -0.9697266, -72.5609741, -112.6219559, -12.2560978, -0.1421683
-0.4243164, 0.3808594, -0.9125977, -71.2804871, -112.9268341, -8.719512, -0.1394827
-0.4345703, 0.4311523, -0.8808594, -70.2439041, -111.9512253, -6.4634147, -0.1122911
-0.3994141, 0.4643555, -0.8427734, -70.18293, -109.146347, -5.9146342, -0.0713359
-0.3374023, 0.4277344, -0.8876953, -70.5487823, -99.7561035, -5.4878049, -0.0318914
-0.3129883, 0.4003906, -0.9438477, -71.0365906, -94.5121994, -5.4268293, 0.0008392
-0.2910156, 0.3764648, -1.090332, -73.2926865, -86.4634171, -2.8658538, 0.0172885
-0.2983398, 0.3823242, -1.1567383, -74.8780518, -84.2073212, -1.3414634, 0.0240024
-0.3413086, 0.4111328, -1.2348633, -79.6951218, -84.3292694, -2.1341465, 0.0219883
-0.3837891, 0.4194336, -1.2412109, -82.7439041, -85.9146347, -5.1829271, 0.0182956
-0.5087891, 0.3847656, -1.1933594, -88.1707306, -91.5243912, -12.9268293, 0.043473
-0.5766602, 0.3535156, -1.1630859, -88.5365906, -95.2439041, -15.8536587, 0.0636149
-0.6850586, 0.2763672, -1.1450195, -83.2926865, -104.2682953, -16.4024391, 0.0485084
-0.7045898, 0.2543945, -1.1459961, -72.5609741, -114.5121994, -12.0121956, 0.0152743
-0.6928711, 0.2768555, -1.1655273, -67.8048782, -119.9390259, -9.6341467, -0.0203098
-0.6533203, 0.3759766, -1.1293945, -62.2560997, -131.0975647, -7.2560978, -0.0599222
-0.6132812, 0.4316406, -1.0888672, -61.2804909, -135.9146423, -6.4634147, -0.0881209
-0.4863281, 0.5029297, -1.0107422, -60.4268303, -141.9512177, -3.2926829, -0.0854353
-0.4018555, 0.5166016, -0.9951172, -60.0609779, -142.1341553, -1.8902439, -0.0726787
-0.2426758, 0.4916992, -1.0063477, -60.1219521, -137.1341553, -1.3414634, -0.0673075
-0.1928711, 0.4746094, -1.027832, -61.5853691, -132.8048859, -2.9878049, -0.06009
-0.1884766, 0.4482422, -1.050293, -66.7073212, -123.1707382, -8.1707315, -0.0475013
-0.2314453, 0.4477539, -1.0424805, -69.5731735, -118.5975647, -10.7317076, -0.0411231
-0.3427734, 0.4414062, -0.9833984, -74.1463394, -113.1097565, -13.7195129, -0.0431373
-0.3969727, 0.4394531, -0.9375, -75.0609741, -112.86586, -14.3902445, -0.04448
-0.4746094, 0.4106445, -0.8486328, -74.2073212, -112.9268341, -14.0243902, -0.0424659
-0.4985352, 0.3745117, -0.8012695, -69.6341476, -112.6219559, -13.4146347, -0.0421302
-0.4921875, 0.3618164, -0.8017578, -66.4634171, -112.2561035, -12.4390249, -0.0491798
-0.4604492, 0.3481445, -0.8637695, -59.9390259, -110.4268341, -8.6585369, -0.0538796
-0.434082, 0.3569336, -0.9047852, -57.7439041, -109.4512253, -7.0121951, -0.0498512
-0.3999023, 0.4086914, -0.9526367, -56.4634171, -107.5, -5.609756, -0.0424659
-0.394043, 0.4438477, -0.9462891, -57.8048782, -106.0365906, -5.670732, -0.0330663
-0.3925781, 0.5068359, -0.8852539, -61.7073174, -103.5365906, -6.7682929, -0.0223239
-0.3847656, 0.5224609, -0.8388672, -63.6585388, -101.7073212, -7.4390244, -0.0179599
-0.355957, 0.5205078, -0.7646484, -66.2195129, -96.2195129, -8.2317076, -0.0458228
-0.3334961, 0.5024414, -0.7583008, -67.0121994, -89.0853653, -8.1707315, -0.0674754
-0.3037109, 0.4404297, -0.828125, -67.1341476, -85.1219559, -7.9878049, -0.0803998
-0.3183594, 0.3701172, -0.9614258, -69.6341476, -77.3170776, -8.0487804, -0.0887922
-0.355957, 0.3422852, -1.0263672, -71.5853653, -74.0853653, -8.5975609, -0.0904707
-0.4912109, 0.3120117, -1.0966797, -75.7317123, -70.7317123, -10, -0.0793927
-0.574707, 0.3208008, -1.0927734, -77.3780518, -71.5243912, -10.3048782, -0.0501869
-0.722168, 0.3623047, -1.0546875, -77.8048782, -79.3902435, -8.9634151, -0.0253452
-0.7646484, 0.3847656, -1.0385742, -76.646347, -86.0365906, -6.8292685, -0.0031891
-0.7563477, 0.4121094, -1.0585938, -72.2560959, -98.9024429, -0.9756098, 0.0119173
-0.7138672, 0.4199219, -1.097168, -69.6951218, -104.5121994, 2.0731707, 0.0186313
-0.6142578, 0.4311523, -1.184082, -67.2560959, -110.2439041, 4.390244, 0.0219883
-0.5756836, 0.4521484, -1.203125, -69.5121994, -113.1707306, 3.1707318, 0.0283665
-0.5576172, 0.4936523, -1.1655273, -72.5, -114.6951218, 1.7682927, 0.0313878
-0.5566406, 0.5014648, -1.0522461, -77.5, -119.2682953, -1.3414634, 0.0276951
-0.5537109, 0.4858398, -0.9887695, -79.0243912, -121.2195129, -2.2560976, -0.0038605
-0.5288086, 0.4472656, -0.8979492, -77.5, -124.0243912, -3.1097562, -0.0330663
-0.5185547, 0.4326172, -0.8652344, -75.6707306, -124.3902435, -3.0487804, -0.0557259
-0.4956055, 0.4335938, -0.8325195, -72.4390259, -123.1097565, -2.804878, -0.0652934
-0.487793, 0.4428711, -0.815918, -71.6463394, -121.9512253, -2.9268293, -0.0627756
-0.4824219, 0.4755859, -0.7641602, -72.3170776, -118.8414688, -2.195122, -0.0485084
-0.4682617, 0.4902344, -0.7436523, -72.68293, -116.646347, -1.5243902, -0.0236667
-0.4438477, 0.4956055, -0.7016602, -72.9878082, -111.4634171, 1.0365853, 0.0112459
-0.4257812, 0.4863281, -0.6958008, -72.4390259, -104.5121994, 2.195122, 0.040116
-0.402832, 0.4560547, -0.6938477, -72.68293, -100.6707306, 2.1341465, 0.0475013
-0.4296875, 0.4145508, -0.7045898, -72.5, -92.9878082, 0.5487805, 0.0377661
-0.4575195, 0.4101562, -0.7104492, -72.2560959, -89.2682953, -0.1829268, 0.030045
-0.5341797, 0.4360352, -0.7304688, -70.7926865, -84.5731735, -0.3658537, 0.018967
-0.5639648, 0.4672852, -0.7470703, -69.5731735, -83.2926865, 0.3658537, 0.0052033
-0.5922852, 0.5302734, -0.7832031, -67.5, -82.3780518, 2.6219513, 0.0035248
-0.5942383, 0.5546875, -0.8012695, -67.3780518, -81.8902435, 3.3536587, 0.0270237
-0.581543, 0.5825195, -0.8027344, -69.6951218, -79.5731735, 2.804878, 0.0428016
-0.5761719, 0.5834961, -0.7929688, -72.0121994, -77.7439041, 1.7073171, 0.0370947
-0.5625, 0.5639648, -0.7641602, -75.9146347, -72.68293, -0.0609756, 0.030045
-0.5576172, 0.5439453, -0.7607422, -77.3780518, -67.4390259, -0.4268293, 0.0480049
-0.5551758, 0.5102539, -0.7685547, -77.5, -64.9390259, -0.6707317, 0.0755322
-0.5825195, 0.4819336, -0.8125, -77.3170776, -61.5243912, -1.097561, 0.0750286
-0.6113281, 0.4750977, -0.8378906, -76.4024429, -60.4878044, -1.402439, 0.0562295
-0.6743164, 0.4716797, -0.909668, -75.4268341, -60.9146347, -0.6707317, 0.0360876
-0.7041016, 0.4702148, -0.9458008, -75.0609741, -61.9512215, -0.1219512, 0.0186313
-0.7539062, 0.4672852, -0.9858398, -74.2682953, -65.6707306, 0.5487805, -0.0041962
-0.7758789, 0.4750977, -0.9887695, -74.3292694, -68.2926865, 0.4268293, -0.0172885
-0.815918, 0.5024414, -0.9897461, -72.9878082, -75.5487823, 0.4268293, -0.0223239
-0.8232422, 0.5200195, -0.9902344, -72.0731735, -79.4512177, 1.5853659, -0.0552224
-0.7954102, 0.5288086, -0.9931641, -71.8292694, -87.1341476, 3.9024391, -0.0864424
-0.7368164, 0.5205078, -0.9848633, -73.1707306, -92.1341476, 5.1219511, -0.0956741
-0.7104492, 0.512207, -0.9707031, -74.4512177, -93.4146347, 4.390244, -0.0950027
-0.6894531, 0.4980469, -0.9326172, -76.7682953, -94.6951218, 3.2317073, -0.0726787
-0.6870117, 0.5, -0.9213867, -77.5609741, -95.1219559, 3.1097562, -0.0109102
-0.6889648, 0.5185547, -0.9018555, -77.5609741, -95.9756088, 3.7195122, 0.0428016
-0.690918, 0.53125, -0.8945312, -77.0731735, -96.7682953, 4.0243902, 0.0528725
-0.6894531, 0.565918, -0.8818359, -76.9512177, -99.0243912, 4.2073174, 0.047837
-0.6884766, 0.5737305, -0.8696289, -77.1951218, -100, 3.9634147, 0.0370947
-0.6806641, 0.5766602, -0.8330078, -77.9878082, -101.0365906, 3.2926829, 0.0149386
-0.671875, 0.5683594, -0.8100586, -78.8414688, -101.1585388, 2.8658538, -0.0072175
-0.6567383, 0.512207, -0.7373047, -80.4878082, -100.9756088, 1.2804878, -0.0258488
-0.6508789, 0.4609375, -0.6362305, -81.5243912, -97.9268341, -1.2804878, -0.0471656
-0.6601562, 0.4550781, -0.5874023, -80.9146347, -95.9756088, -1.8292683, -0.0619364
-0.6733398, 0.4692383, -0.5546875, -77.0731735, -92.68293, 1.097561, -0.0810712
-0.6582031, 0.4926758, -0.5605469, -74.5121994, -91.5243912, 3.9634147, -0.1055772
-0.5942383, 0.5317383, -0.6108398, -70.7926865, -88.1097565, 7.9878049, -0.1411612
-0.5722656, 0.5522461, -0.6445312, -70.2439041, -85.6707306, 8.2926826, -0.1824521
-0.5712891, 0.5766602, -0.7070312, -71.4024429, -78.7195129, 6.7073174, -0.1921874
-0.5869141, 0.5834961, -0.7270508, -72.4390259, -75.4268341, 5.8536587, -0.1834592
-0.6196289, 0.5976562, -0.7558594, -74.7560959, -70.5487823, 4.4512196, -0.1680171
-0.6416016, 0.6010742, -0.7583008, -75.6707306, -68.9024429, 3.8414636, -0.142504
-0.6875, 0.621582, -0.7416992, -76.8902435, -66.7682953, 0.7317073, -0.1012131
-0.7285156, 0.6254883, -0.7021484, -78.7804871, -65.3658524, -0.8536586, -0.0599222
-0.7397461, 0.6220703, -0.6791992, -79.0243912, -64.7560959, -1.097561, -0.0287022
-0.7338867, 0.6098633, -0.6416016, -78.7804871, -63.3536606, -0.7317073, -0.0182956
-0.71875, 0.5952148, -0.637207, -78.2317123, -61.8292694, 0, -0.0142672
-0.6904297, 0.5683594, -0.6494141, -77.6219559, -57.5609779, 1.2804878, -0.0152743
-0.6870117, 0.559082, -0.6694336, -77.8658524, -55.0609779, 1.5853659, -0.0206455
-0.6943359, 0.5424805, -0.7128906, -78.6585388, -49.8170738, 1.8902439, -0.0198062
-0.7021484, 0.5390625, -0.7333984, -78.8414688, -47.6219521, 2.0121951, -0.0062104
-0.7412109, 0.5371094, -0.7749023, -78.7804871, -45.3658562, 2.195122, -0.0001678
-0.7612305, 0.5375977, -0.7905273, -78.4146347, -45.4878044, 2.6219513, -0.0083925
-0.7954102, 0.5439453, -0.8144531, -76.9512177, -48.1097565, 2.195122, -0.0256809
-0.815918, 0.534668, -0.8183594, -75.0609741, -52.6219521, 1.5243902, -0.0431373
-0.815918, 0.5292969, -0.8120117, -74.0853653, -55.6707344, 1.2195122, -0.0528725
-0.8115234, 0.5253906, -0.796875, -72.1341476, -61.4024391, 1.2804878, -0.0532082
-0.8022461, 0.5297852, -0.7841797, -71.4024429, -64.1463394, 1.402439, -0.0357519
-0.7578125, 0.53125, -0.7641602, -70.9756088, -68.7195129, 2.4390244, 0.0008392
-0.7329102, 0.5297852, -0.7631836, -71.1585388, -70.0609741, 2.804878, 0.0260166
-0.6967773, 0.5170898, -0.7553711, -72.7439041, -70.5487823, 3.1707318, 0.0253452
-0.6835938, 0.5092773, -0.7519531, -72.9268341, -70.3048782, 2.9268293, 0.017792
-0.6791992, 0.5068359, -0.7451172, -73.2926865, -68.9024429, 2.0731707, 0.0072175
-0.6831055, 0.5083008, -0.7290039, -73.1707306, -68.8414688, 1.9512196, -0.0018463
-0.6938477, 0.5219727, -0.6923828, -72.5, -69.3292694, 1.5243902, -0.0035248
-0.6850586, 0.5419922, -0.6533203, -71.7682953, -71.2195129, 1.0365853, 0.0011749
-0.6733398, 0.5463867, -0.640625, -71.0365906, -71.5853653, 1.097561, 0.0025177
-0.6533203, 0.5527344, -0.6333008, -70, -71.0975647, 1.2195122, 0.0018463
-0.6435547, 0.5551758, -0.6337891, -69.5121994, -70.0609741, 1.2804878, 0.0035248
-0.6391602, 0.5668945, -0.6367188, -68.8414688, -67.0731735, 1.0365853, 0.008896
-0.6420898, 0.5727539, -0.6323242, -69.0243912, -65.5487823, 0.7926829, -0.0031891
-0.6586914, 0.5634766, -0.6142578, -69.6341476, -62.68293, -0.1219512, -0.0258488
-0.668457, 0.5634766, -0.6054688, -69.9390259, -61.1585388, 0.2439024, -0.0357519
-0.684082, 0.5551758, -0.5820312, -70.0609741, -58.841465, -0.4268293, -0.0310521
-0.6875, 0.5585938, -0.5708008, -69.3292694, -58.0487823, -0.5487805, -0.0182956
-0.6845703, 0.5600586, -0.5615234, -67.9878082, -57.0731735, 0.1219512, 0.033402
-0.6650391, 0.5532227, -0.574707, -66.0975647, -55.9146347, 1.402439, 0.0797284
-0.6552734, 0.5537109, -0.5888672, -65.6097565, -55.18293, 1.6463414, 0.0985275
-0.6455078, 0.5595703, -0.6196289, -65, -52.3780518, 2.0731707, 0.1092699
-0.6503906, 0.5625, -0.6367188, -65, -50.9146347, 1.8902439, 0.110277
-0.6713867, 0.5673828, -0.6582031, -66.2804871, -47.6219521, 1.2195122, 0.1038987
-0.6899414, 0.5668945, -0.6655273, -66.8902435, -46.4634171, 0.1829268, 0.1018845
-0.7368164, 0.5732422, -0.6723633, -66.6463394, -45.9146347, -0.6097561, 0.1042344
-0.7597656, 0.5732422, -0.6777344, -66.0365906, -46.4634171, -0.5487805, 0.0985275
-0.7836914, 0.5639648, -0.6899414, -64.0243912, -48.5365868, -0.1829268, 0.0923171
-0.7885742, 0.5581055, -0.6962891, -62.7439041, -50.2439041, -0.3658537, 0.0814069
-0.7949219, 0.5610352, -0.6967773, -60.1219521, -53.841465, -0.1219512, 0.0783856
-0.7807617, 0.5708008, -0.684082, -58.1097565, -57.2560997, 0.0609756, 0.0837568
-0.765625, 0.5795898, -0.6728516, -57.1951218, -58.4756126, 0.1829268, 0.0706645
-0.7285156, 0.5981445, -0.6464844, -55.8536606, -60.8536606, 0.2439024, 0.040116
-0.7124023, 0.6074219, -0.6376953, -55.2439041, -61.4634171, 0.5487805, -0.0057069
-0.6655273, 0.621582, -0.6298828, -55, -61.2195129, 1.1585366, -0.0481727
-0.6503906, 0.628418, -0.6225586, -55.1219521, -60.3658562, 1.2195122, -0.1223621
-0.6357422, 0.6225586, -0.6220703, -56.5853653, -57.8048782, 0.3048781, -0.1878233
-0.6376953, 0.6137695, -0.6186523, -57.3780518, -56.341465, 0.1219512, -0.2136721
-0.6679688, 0.5883789, -0.6152344, -58.5975609, -52.9878044, -0.9756098, -0.2113222
-0.6855469, 0.5786133, -0.6074219, -58.5365868, -51.0975609, -2.2560976, -0.1871519
-0.7265625, 0.5556641, -0.5834961, -57.8048782, -50.6097565, -2.8658538, -0.145861
-0.7607422, 0.5493164, -0.5439453, -56.0365868, -51.6463432, -2.9268293, -0.0928206
-0.7626953, 0.5493164, -0.5249023, -54.7560997, -52.6829262, -2.8658538, -0.0459907
-0.7441406, 0.5629883, -0.5053711, -51.4634171, -54.0853653, -1.4634147, -0.012253
-0.7231445, 0.5683594, -0.5126953, -50, -54.5121956, -0.4268293, 0.0092317
-0.6738281, 0.5830078, -0.5439453, -47.2560997, -53.4146347, 1.2804878, 0.0381018
-0.6567383, 0.5888672, -0.5664062, -46.9512215, -51.8902435, 1.7073171, 0.0406195
-0.6557617, 0.5834961, -0.5996094, -47.6829262, -48.0487823, 1.1585366, -0.0028534
-0.6655273, 0.5820312, -0.6113281, -48.4756126, -45.6097565, 0.3658537, -0.0834211
-0.7114258, 0.5830078, -0.6137695, -49.6951218, -42.1341476, -0.8536586, -0.1542535
-0.7333984, 0.5864258, -0.6142578, -48.7195129, -42.0731735, -1.0365853, -0.1965515
-0.7719727, 0.6010742, -0.6137695, -47.3780518, -43.1707344, -0.9756098, -0.2069581
-0.7763672, 0.6044922, -0.6176758, -45.1219521, -45.7317085, -0.7317073, -0.207126
-0.7729492, 0.6118164, -0.6137695, -44.5731735, -46.5853653, -0.6707317, -0.188159
-0.7548828, 0.597168, -0.5908203, -43.5365868, -47.3780518, -0.9756098, -0.1473716
-0.7509766, 0.5917969, -0.5786133, -43.1097565, -46.7073174, -1.097561, -0.1055772
-0.7426758, 0.5976562, -0.5595703, -41.2804871, -45.5487823, -0.8536586, -0.0730144
-0.7412109, 0.6040039, -0.5629883, -39.5731735, -45.3658562, 0.3048781, -0.0475013
-0.7270508, 0.6035156, -0.5986328, -35.3658562, -46.341465, 2.5, -0.0344091
-0.7182617, 0.59375, -0.6235352, -34.0243912, -46.2804871, 3.1097562, -0.0280308
-0.7246094, 0.5820312, -0.6586914, -33.841465, -45.6707344, 2.2560976, -0.0303807
-0.7333984, 0.5766602, -0.6635742, -35, -44.0243912, 1.097561, -0.0374304
-0.7661133, 0.5878906, -0.6621094, -34.6341476, -43.9634171, 1.1585366, -0.043473
-0.7788086, 0.605957, -0.6264648, -33.4756088, -45.6707344, 1.4634147, -0.0407874
-0.7700195, 0.6191406, -0.6079102, -32.4390259, -47.0121956, 1.3414634, -0.040116
-0.7363281, 0.6381836, -0.5683594, -31.0365868, -49.6951218, 1.1585366, -0.0365911
-0.7148438, 0.6445312, -0.5585938, -30.4878063, -50, 1.1585366, -0.0391089
-0.6733398, 0.640625, -0.5473633, -30.1219521, -49.3902435, 1.402439, -0.0327306
-0.6577148, 0.628418, -0.5595703, -30.6707325, -47.6829262, 1.7682927, -0.0062104
-0.6508789, 0.5922852, -0.5742188, -32.2560997, -43.6585388, 2.1341465, 0.0303807
-0.6625977, 0.574707, -0.5810547, -33.5975609, -40.7317085, 1.7073171, 0.0572366
-0.7114258, 0.5507812, -0.5766602, -34.3292694, -35.9756088, 0.7317073, 0.0669718
-0.7338867, 0.5581055, -0.5708008, -32.9268303, -35, 0.4878049, 0.0807355
-0.7607422, 0.5893555, -0.5595703, -31.4024391, -36.341465, 0.7926829, 0.1572747
-0.7402344, 0.6108398, -0.5576172, -28.1097565, -40.1829262, 1.6463414, 0.2086366
-0.7172852, 0.6157227, -0.5610352, -26.7073174, -41.5243912, 2.0121951, 0.1911803
-0.6738281, 0.6113281, -0.5703125, -26.7682934, -41.2804871, 1.2195122, 0.1049058
-0.6601562, 0.6030273, -0.5722656, -27.6219521, -39.8170738, 0.4878049, 0.0736858
-0.6689453, 0.597168, -0.5795898, -29.1463413, -34.6951218, -0.4878049, 0.0515297
-0.6826172, 0.5996094, -0.5776367, -29.8780499, -32.3780479, -0.4878049, 0.0352483
-0.7075195, 0.5932617, -0.5805664, -29.7560978, -29.4512196, 0.2439024, 0.0287022
-0.7231445, 0.5966797, -0.5825195, -29.1463413, -29.5731716, 0.6097561, 0.0142672
-0.7402344, 0.6020508, -0.5981445, -26.4024391, -30.5487804, 1.097561, 0.0256809
-0.7456055, 0.6049805, -0.6069336, -24.5121956, -32.6829262, 1.5243902, 0.0448157
-0.7363281, 0.5883789, -0.6054688, -24.0243912, -32.8048782, 1.3414634, 0.0454871
-0.7431641, 0.5654297, -0.5888672, -24.1463413, -32.2560997, 1.0365853, 0.0384375
-0.7470703, 0.5556641, -0.5712891, -23.5365868, -31.0975609, 0.7317073, 0.0260166
-0.7783203, 0.5639648, -0.5561523, -20.9756107, -29.6951218, 1.2804878, -0.0010071
-0.78125, 0.5722656, -0.5551758, -19.3902435, -29.6341476, 1.8292683, -0.0381018
-0.7705078, 0.6010742, -0.5610352, -15.9146347, -30.4268303, 3.7804878, -0.0659648
-0.7509766, 0.6171875, -0.5664062, -14.6341467, -31.4024391, 4.1463413, -0.0948348
-0.7099609, 0.6235352, -0.5820312, -13.4146347, -31.341465, 4.9390244, -0.1435111
-0.6938477, 0.625, -0.5874023, -13.5365858, -30.3048782, 4.6341462, -0.1842985
-0.6782227, 0.6191406, -0.5966797, -14.0853662, -27.2560978, 3.7804878, -0.2287785
-0.684082, 0.621582, -0.5957031, -14.2073174, -24.0243912, 3.2926829, -0.2581521
-0.7167969, 0.6166992, -0.5996094, -14.1463413, -23.0487804, 3.6585367, -0.2576486
-0.7407227, 0.6005859, -0.590332, -13.6585369, -22.3170738, 3.3536587, -0.2334783
-0.7539062, 0.5888672, -0.5830078, -13.5365858, -22.3780499, 3.1707318, -0.1841306
-0.7695312, 0.5737305, -0.5722656, -11.8902445, -22.560976, 2.9878049, -0.1304189
-0.7739258, 0.5771484, -0.5688477, -10.7317076, -22.8048782, 3.7804878, -0.0746929
-0.7607422, 0.5952148, -0.5654297, -7.8658538, -23.2926826, 4.6951222, -0.0350805
-0.7485352, 0.6044922, -0.5595703, -6.4024391, -23.1707325, 5, -0.0142672
-0.7197266, 0.6147461, -0.5449219, -5.3048782, -22.2560978, 4.4512196, -0.0139315
-0.7114258, 0.6181641, -0.5361328, -4.6341462, -20.9146347, 4.5121951, -0.040116
-0.6816406, 0.6152344, -0.5385742, -3.8414636, -18.8414631, 4.8780489, -0.0411231
-0.6650391, 0.6118164, -0.5493164, -2.3170731, -17.1341476, 5.609756, -0.0129244
-0.6469727, 0.6186523, -0.5698242, -2.2560976, -15.7317076, 5.609756, 0.026688
-0.6621094, 0.6123047, -0.6010742, -3.2926829, -12.2560978, 4.7560978, 0.0619364
-0.6743164, 0.6035156, -0.6142578, -4.0243902, -10.4878054, 4.0853658, 0.0803998
-0.7109375, 0.5947266, -0.6230469, -5.4878049, -7.3170733, 3.6585367, 0.0830854
-0.7358398, 0.5966797, -0.6259766, -5.8536587, -6.5243902, 3.7195122, 0.0770428
-0.7670898, 0.6005859, -0.6196289, -4.8780489, -6.0975609, 3.1707318, 0.0575723
-0.7729492, 0.6040039, -0.6171875, -3.8414636, -7.1341467, 3.2926829, 0.0384375
-0.7553711, 0.605957, -0.6137695, -1.8902439, -8.780488, 3.4756098, 0.0151064
-0.7451172, 0.6010742, -0.6088867, -1.097561, -9.1463413, 3.7195122, -0.0109102
-0.7197266, 0.5878906, -0.5981445, -0.1219512, -8.5975609, 4.3292685, -0.0394446
-0.706543, 0.5864258, -0.5917969, 0.7926829, -6.2195125, 4.6341462, -0.0595865
-0.7026367, 0.5888672, -0.5786133, 0.8536586, -4.6951222, 4.5121951, -0.0713359
-0.7075195, 0.59375, -0.5727539, 1.8902439, -1.8292683, 5.1829271, -0.0686503
-0.7124023, 0.6005859, -0.5766602, 2.9878049, -0.6097561, 5.9756098, -0.0569009
-0.7133789, 0.6079102, -0.5991211, 5.7317076, -0.6707317, 7.3170733, -0.0068818
-0.7099609, 0.609375, -0.6176758, 7.2560978, -0.8536586, 7.6829271, 0.0226596
-0.7148438, 0.6069336, -0.6450195, 8.9024391, -1.1585366, 8.0487804, 0.0045319
-0.7211914, 0.5922852, -0.6484375, 8.5365858, -1.097561, 7.6829271, -0.0607614
-0.7460938, 0.5732422, -0.6430664, 8.0487804, 0.3658537, 6.7682929, -0.1131304
-0.7626953, 0.5712891, -0.637207, 8.1707315, 1.097561, 6.6463418, -0.1270619
-0.7905273, 0.574707, -0.6191406, 9.5731707, 2.1341465, 7.6219516, -0.1166552
-0.7875977, 0.5932617, -0.612793, 12.2560978, 0.7317073, 8.780488, -0.0861067
-0.7822266, 0.5976562, -0.6166992, 13.2926836, 0.2439024, 9.2073174, -0.054551
-0.7382812, 0.6098633, -0.6176758, 15.5487804, -0.6707317, 9.6341467, -0.0223239
-0.7207031, 0.6074219, -0.6191406, 15.9146347, -0.7317073, 9.8170738, 0.0213169
-0.6977539, 0.6064453, -0.6220703, 17.0731716, 0.9756098, 9.5731707, 0.0844282
-0.6889648, 0.6069336, -0.621582, 17.5, 2.2560976, 9.6951218, 0.1361257
-0.6918945, 0.5981445, -0.6181641, 18.2317085, 4.8780489, 9.5121956, 0.1206836
-0.7016602, 0.5996094, -0.6108398, 18.2926826, 5.9146342, 8.9634151, 0.1233692
-0.7211914, 0.597168, -0.5966797, 19.0243912, 8.1707315, 8.9024391, 0.216022
-0.7285156, 0.6015625, -0.59375, 19.8170738, 9.0853662, 8.9024391, 0.3100175
-0.7250977, 0.6010742, -0.5986328, 22.0121956, 9.3292685, 9.7560978, 0.290547
-0.7094727, 0.6020508, -0.5981445, 23.1707325, 9.8780489, 10.6097565, 0.2019226
-0.6992188, 0.5981445, -0.5874023, 23.4756107, 10.4268293, 10.1829271, 0.1059129
-0.6806641, 0.59375, -0.5698242, 23.3536587, 12.8658543, 9.2073174, 0.0280308
-0.6806641, 0.5976562, -0.5664062, 23.9634151, 14.1463413, 9.1463413, -0.0271916
-0.6625977, 0.6113281, -0.5795898, 25.060976, 16.9512196, 9.4512196, -0.0397803
-0.6577148, 0.6132812, -0.5947266, 25.8536587, 18.1707325, 10.2439022, -0.04448
-0.6513672, 0.6152344, -0.6323242, 26.4024391, 21.4024391, 9.8170738, -0.0505226
-0.6572266, 0.6147461, -0.6494141, 26.0975609, 23.4146347, 9.0243902, -0.0706645
-0.6884766, 0.6142578, -0.6635742, 24.9390259, 26.7682934, 7.6219516, -0.1049058
-0.7036133, 0.6152344, -0.6630859, 24.5731716, 28.4146347, 7.1341467, -0.1317617
-0.7280273, 0.6142578, -0.644043, 24.6341476, 29.2073174, 7.1341467, -0.1472038
-0.7368164, 0.6064453, -0.6323242, 25.7926826, 29.9390259, 7.0731707, -0.1099413
-0.7387695, 0.6030273, -0.6347656, 26.5853672, 30.3658543, 7.0121951, -0.0911421
-0.7373047, 0.5961914, -0.6464844, 28.3536587, 32.0121956, 7.5, -0.1240406
-0.7368164, 0.5883789, -0.6577148, 28.9024391, 32.8048782, 7.8658538, -0.1686885
-0.7353516, 0.5913086, -0.6733398, 30.1829281, 35.2439041, 8.780488, -0.2505989
-0.7387695, 0.5957031, -0.6738281, 30.7317085, 36.0975609, 8.9634151, -0.3205921
-0.7470703, 0.5947266, -0.6796875, 31.2195129, 37.4390259, 9.6341467, -0.3425803
-0.7451172, 0.590332, -0.6787109, 31.0365868, 37.6829262, 9.8170738, -0.3221027
-0.7509766, 0.578125, -0.6787109, 32.0731697, 38.5365868, 10.7317076, -0.2717479
-0.7475586, 0.5766602, -0.6811523, 33.4756088, 38.9024391, 11.341464, -0.2036011
-0.7480469, 0.5825195, -0.6923828, 36.0975609, 39.1463432, 12.0121956, -0.1257191
-0.7392578, 0.5976562, -0.6977539, 38.2317085, 39.5731735, 12.2560978, -0.0820783
-0.734375, 0.6025391, -0.6923828, 39.1463432, 39.6951218, 11.6463413, -0.0605936
-0.7333984, 0.6088867, -0.6762695, 40.1829262, 39.8170738, 11.5853662, -0.0454871
-0.7255859, 0.6108398, -0.6606445, 40.9146347, 40.3048782, 11.1585369, -0.0318914
-0.7124023, 0.6142578, -0.6386719, 42.6219521, 42.1341476, 11.5243902, -0.0082246
-0.703125, 0.6162109, -0.6396484, 43.6585388, 43.2317085, 11.7073174, 0.0135958
-0.6801758, 0.6171875, -0.6606445, 44.7560997, 46.2195129, 12.4390249, 0.0528725
-0.6713867, 0.6103516, -0.6787109, 45, 48.1707344, 12.8048782, 0.1015488
-0.6694336, 0.6005859, -0.7041016, 45.6707344, 51.5243912, 12.9878054, 0.1386435
-0.6738281, 0.5966797, -0.7045898, 44.9390259, 52.9268303, 12.5, 0.1495537
-0.703125, 0.5913086, -0.6826172, 44.7560997, 55.9756126, 11.5243902, 0.1431754
-0.7241211, 0.5742188, -0.6445312, 45.5487823, 57.9878044, 10.9756098, 0.1200122
-0.7280273, 0.5693359, -0.6337891, 46.4634171, 58.7195129, 11.280488, 0.0970169
-0.7158203, 0.5644531, -0.6396484, 50.1219521, 60, 12.560976, 0.0629435
-0.7070312, 0.5639648, -0.6572266, 51.8292694, 60.8536606, 13.4146347, 0.040116
-0.6879883, 0.5795898, -0.7045898, 54.6341476, 63.0487823, 14.7560978, 0.0323949
-0.6826172, 0.5908203, -0.7265625, 55.0609779, 64.4512177, 14.8780489, 0.0293736
-0.6791992, 0.612793, -0.7587891, 54.9390259, 67.3780518, 15, 0.0357519
-0.6782227, 0.6186523, -0.7680664, 54.0853653, 68.5365906, 14.7560978, 0.0622721
-0.6806641, 0.6279297, -0.7636719, 52.3780518, 70.2439041, 14.2073174, 0.1166552
-0.6860352, 0.6323242, -0.7509766, 51.341465, 71.0365906, 13.5975609, 0.2119936
-0.6845703, 0.6337891, -0.734375, 50.1219521, 72.8048782, 12.3780489, 0.3017929
-0.6801758, 0.6328125, -0.7670898, 50.6707344, 74.2682953, 14.3292685, 0.2610056
-0.6665039, 0.6313477, -0.8027344, 51.2804909, 74.3902435, 15.4878054, 0.1696956
-0.6508789, 0.6108398, -0.8710938, 51.8902435, 74.7560959, 16.8902435, 0.0152743
-0.6557617, 0.6020508, -0.8925781, 50.7317085, 75.5487823, 16.1585369, -0.1193408
-0.7128906, 0.5932617, -0.8842773, 47.7439041, 76.8292694, 13.2926836, -0.1129625
-0.7456055, 0.5942383, -0.8564453, 46.5853653, 76.8292694, 11.9512196, -0.0485084
-0.7978516, 0.5986328, -0.7880859, 47.0731735, 75.18293, 12.0731707, -0.0095674
-0.8041992, 0.6020508, -0.7631836, 48.4756126, 73.5975647, 13.1097565, 0.0370947
-0.7744141, 0.6118164, -0.7539062, 52.6219521, 70.9146347, 16.4024391, 0.0782177
-0.7470703, 0.6162109, -0.7641602, 54.5731735, 70.4268341, 17.8048782, 0.072343
-0.6894531, 0.6171875, -0.7895508, 57.1341476, 72.0121994, 19.3902435, 0.0535439
-0.6625977, 0.5996094, -0.8129883, 56.0975609, 75.8536606, 19.0853672, 0.0313878
-0.6630859, 0.5898438, -0.815918, 55.4268303, 77.5609741, 18.9634151, -0.008896
-0.6699219, 0.5644531, -0.7973633, 54.0853653, 80.1219559, 19.0243912, -0.0621042
-0.6806641, 0.5576172, -0.7729492, 54.6341476, 80.9146347, 18.5975609, -0.100206
-0.6967773, 0.5566406, -0.7172852, 56.7682953, 82.6219559, 17.6219521, -0.1195087
-0.6977539, 0.5629883, -0.6928711, 58.5975609, 83.0487823, 17.5, -0.1359579
-0.6918945, 0.5893555, -0.6914062, 63.4146347, 84.2073212, 18.8414631, -0.1559319
-0.6757812, 0.6005859, -0.7148438, 66.2804871, 85.2439041, 20.3658543, -0.1701991
-0.6132812, 0.6230469, -0.8032227, 70.5487823, 87.2560959, 23.5975609, -0.1787594
-0.5844727, 0.6289062, -0.8432617, 70.8536606, 90.7926865, 23.7195129, -0.1777523
-0.5810547, 0.6293945, -0.8837891, 69.3902435, 93.1097565, 22.0121956, -0.1683528
-0.6254883, 0.6201172, -0.8657227, 66.2804871, 96.0365906, 19.2073174, -0.1284047
-0.6542969, 0.6132812, -0.8574219, 65.6707306, 96.4024429, 18.7195129, -0.093492
-0.6865234, 0.5839844, -0.8657227, 67.5609741, 95.3658524, 19.2682934, -0.0871138
-0.690918, 0.5708008, -0.8852539, 69.4512177, 94.3902435, 20.2439022, -0.0861067
-0.7094727, 0.5424805, -0.9511719, 73.1097565, 93.3536606, 21.4024391, -0.0726787
-0.7211914, 0.5366211, -0.9814453, 74.1463394, 92.9268341, 21.280489, -0.0585794
-0.7529297, 0.5546875, -1.0131836, 74.0243912, 90.7926865, 21.8292694, -0.0471656
-0.7661133, 0.5722656, -1.0087891, 73.2317123, 89.146347, 22.6829281, -0.0350805
-0.765625, 0.621582, -0.956543, 72.1341476, 86.0975647, 24.8170738, -0.0287022
-0.7446289, 0.6459961, -0.9204102, 71.4024429, 84.0243912, 26.1585369, -0.026688
-0.6899414, 0.6713867, -0.8579102, 70.9756088, 84.5121994, 26.0975609, -0.0287022
-0.6162109, 0.6474609, -0.8388672, 70.5487823, 87.9268341, 25.4878063, -0.0344091
-0.5834961, 0.6333008, -0.855957, 70.4268341, 90.6097565, 25.3658543, -0.0461585
-0.5390625, 0.5932617, -0.8945312, 69.0243912, 96.5853653, 25.2439022, -0.0585794
-0.5224609, 0.5839844, -0.9077148, 67.9878082, 99.4512253, 24.8780499, -0.0817426
-0.5361328, 0.5664062, -0.8999023, 64.8780518, 103.4146347, 22.9268303, -0.0740215
-0.5561523, 0.5678711, -0.8862305, 63.841465, 104.7561035, 21.5243912, -0.0344091
-0.6074219, 0.5878906, -0.8730469, 63.5365868, 104.7561035, 21.0975609, 0.0182956
-0.6240234, 0.5922852, -0.8779297, 64.8170776, 104.8780518, 21.8292694, 0.0538796
-0.6279297, 0.6010742, -0.9111328, 67.6219559, 105.8536606, 24.0243912, 0.026688
-0.628418, 0.5981445, -0.9267578, 67.7439041, 107.1951218, 22.9878063, -0.0485084
-0.6376953, 0.5820312, -0.9321289, 66.5853653, 108.3536606, 21.8292694, -0.0814069
-0.6508789, 0.5629883, -0.9057617, 65.6707306, 109.3902435, 20.5487804, -0.0780499
-0.6494141, 0.5576172, -0.8920898, 66.2195129, 109.6951218, 20.9146347, -0.0626078
-0.628418, 0.5512695, -0.8969727, 68.9024429, 109.0243912, 22.9268303, -0.0270237
-0.6103516, 0.5581055, -0.9199219, 70.7317123, 108.9634171, 23.780489, 0.04448
-0.5810547, 0.5688477, -0.9941406, 71.8292694, 110.9756088, 25.1219521, 0.117998
-0.578125, 0.5742188, -1.0263672, 70.7317123, 112.2561035, 24.5731716, 0.1663386
-0.5961914, 0.590332, -1.0395508, 67.5609741, 114.6341476, 23.7195129, 0.1878233
-0.6113281, 0.5947266, -1.0239258, 66.2804871, 114.9390259, 23.3536587, 0.178088
-0.6274414, 0.5957031, -0.9848633, 64.2682953, 113.4146347, 22.8658543, 0.1426719
-0.6279297, 0.5854492, -0.9785156, 64.7560959, 111.7073212, 22.560976, 0.1094377
-0.6015625, 0.5678711, -0.984375, 65.8536606, 112.0121994, 23.2317085, 0.0803998
-0.5825195, 0.5976562, -0.9873047, 67.4390259, 113.7195129, 23.9024391, 0.0438087
-0.5693359, 0.6166992, -0.9814453, 66.8902435, 114.4512253, 24.2682934, 0.0129244
-0.5327148, 0.6088867, -0.9863281, 63.9634171, 114.9390259, 24.2073174, -0.0052033
-0.512207, 0.5893555, -0.9853516, 62.1951218, 116.0975647, 23.8414631, -0.0203098
-0.5058594, 0.5297852, -0.9765625, 59.8170738, 119.9390259, 21.8902435, -0.0364233
-0.5166016, 0.5087891, -0.9672852, 59.9390259, 122.0121994, 21.5853672, -0.0387732
-0.5537109, 0.5053711, -0.9516602, 61.7073174, 123.5365906, 21.5853672, -0.0159457
-0.559082, 0.5126953, -0.9545898, 62.8048782, 122.86586, 22.5, -0.0139315
-0.5488281, 0.527832, -0.9770508, 64.9390259, 121.9512253, 24.6341476, -0.0125887
-0.546875, 0.5283203, -1.0043945, 65.3658524, 123.1707382, 25.6097565, 0.0354162
-0.5473633, 0.5478516, -1.0576172, 65.1219559, 124.5731735, 26.4024391, 0.0193027
-0.5478516, 0.5805664, -1.0585938, 63.0487823, 126.8902435, 27.560976, -0.0344091
-0.5488281, 0.5927734, -1.0458984, 62.0731735, 127.0731735, 27.8048782, -0.0814069
-0.5371094, 0.5869141, -1.0166016, 60.3658562, 126.4024429, 26.9512196, -0.1263905
-0.5200195, 0.5737305, -1.0078125, 60, 126.2804871, 26.3414631, -0.1911803
-0.4916992, 0.5083008, -1.0131836, 60.6097565, 126.5243912, 25.060976, -0.2291142
-0.484375, 0.4819336, -1.0170898, 60.4878044, 127.0731735, 24.5121956, -0.2264286
-0.4833984, 0.4584961, -1.003418, 61.5853691, 127.86586, 23.780489, -0.1942016
-0.4902344, 0.4560547, -0.9956055, 62.1341476, 127.9878082, 23.9634151, -0.1097734
-0.5068359, 0.4741211, -0.9824219, 63.6585388, 126.8292694, 25, -0.0293736
-0.5068359, 0.4819336, -0.980957, 65.9756088, 125.9756165, 26.8902454, 0.0330663
-0.4868164, 0.484375, -0.9946289, 66.8902435, 126.2195129, 27.6219521, 0.1042344
-0.4575195, 0.4892578, -0.9970703, 67.5, 128.1707306, 27.6219521, 0.1621424
-0.4511719, 0.4882812, -0.9951172, 67.4390259, 129.146347, 27.560976, 0.2005798
-0.4326172, 0.4897461, -0.9956055, 67.4390259, 130.3048859, 28.1097565, 0.2012512
-0.4165039, 0.4863281, -1.0141602, 67.5609741, 130.9146423, 28.841465, 0.2281071
-0.390625, 0.487793, -1.0703125, 67.7439041, 132.9268341, 29.2073174, 0.3059892
-0.3916016, 0.4956055, -1.097168, 67.5, 133.8414612, 29.0853672, 0.3435874
-0.4150391, 0.4946289, -1.1025391, 65.7926865, 134.6341553, 27.8048782, 0.2787976
-0.4365234, 0.4951172, -1.0751953, 64.2073212, 133.9024353, 26.5243912, 0.0035248
-0.4628906, 0.4814453, -1.0004883, 62.8048782, 131.2195129, 24.3292694, -0.3264668
-0.4604492, 0.4736328, -0.9794922, 64.5731735, 129.146347, 24.9390259, -0.5100938
-0.4213867, 0.4609375, -0.9936523, 66.6463394, 129.3292694, 26.4634151, -0.5661555
-0.359375, 0.4506836, -1.0546875, 68.5975647, 132.3170776, 28.5365868, -0.5473564
-0.3496094, 0.4541016, -1.0795898, 67.5, 134.7561035, 28.2926826, -0.4607462
-0.3696289, 0.4550781, -1.0888672, 64.0853653, 137.0731812, 27.0731716, -0.3012894
-0.3842773, 0.4506836, -1.0708008, 62.5609779, 137.0731812, 26.5853672, -0.1062486
-0.3974609, 0.4282227, -1.03125, 61.2804909, 135.1829224, 26.8902454, 0.0548867
-0.4023438, 0.4204102, -1.012207, 62.2560997, 134.0853729, 27.3170738, 0.1384756
-0.3969727, 0.4057617, -0.9975586, 65.5487823, 132.6829224, 28.0487804, 0.1740597
-0.387207, 0.4003906, -1.0019531, 67.0121994, 132.3780518, 28.3536587, 0.1723812
-0.3828125, 0.3857422, -1.0205078, 69.5121994, 133.2317047, 27.9878063, 0.1139696
-0.3862305, 0.3901367, -1.0341797, 71.6463394, 133.7195129, 29.1463413, 0.0337377
-0.378418, 0.40625, -1.0776367, 72.1341476, 133.4146423, 30.4268303, -0.040116
-0.3730469, 0.4321289, -1.1118164, 72.5609741, 132.9268341, 32.0731697, -0.1038987
-0.359375, 0.4467773, -1.1132812, 72.3170776, 132.3170776, 32.5, -0.1304189
-0.3457031, 0.4804688, -1.0493164, 70.4878082, 131.2804871, 31.7682934, -0.2136721
-0.328125, 0.4882812, -0.9995117, 69.5121994, 130.7926788, 31.0365868, -0.357351
-0.2700195, 0.4521484, -0.918457, 68.2317123, 130.9146423, 28.9024391, -0.4056916
-0.2333984, 0.4267578, -0.9116211, 68.4756088, 132.5, 28.6585369, -0.3915923
-0.1645508, 0.3769531, -0.9643555, 70, 137.86586, 29.6341476, -0.3252918
-0.1381836, 0.3686523, -1.0083008, 70.3658524, 141.5243988, 30.4268303, -0.2049439
-0.1293945, 0.3813477, -1.0957031, 68.7804871, 147.3170776, 30.3048782, -0.0485084
-0.1455078, 0.4023438, -1.1230469, 65.7317123, 149.5731812, 28.1097565, 0.0589151
-0.230957, 0.4545898, -1.1225586, 63.841465, 149.146347, 27.0731716, 0.1109483
-0.2993164, 0.472168, -1.1025391, 61.7682953, 146.3414612, 25.6097565, 0.1267262
-0.3203125, 0.4560547, -1.1020508, 61.4024391, 144.9390259, 24.6951218, 0.1267262
-0.3510742, 0.4013672, -1.1064453, 61.8902435, 143.7804871, 22.8658543, 0.0871138
-0.3647461, 0.371582, -1.1025391, 62.0731735, 143.3536682, 22.439024, 0.0736858
-0.375, 0.3339844, -1.0693359, 64.1463394, 141.4634247, 22.560976, 0.0736858
-0.3735352, 0.3295898, -1.0507812, 65.3048782, 139.4512177, 23.780489, 0.0757
-0.3359375, 0.3364258, -1.0366211, 68.9634171, 135.0609741, 27.2560978, 0.0683146
-0.3012695, 0.3378906, -1.043457, 71.0975647, 133.7804871, 28.7195129, 0.0703288
-0.2319336, 0.3422852, -1.050293, 73.5365906, 133.8414612, 29.9390259, 0.0743572
-0.1972656, 0.3476562, -1.0239258, 73.1707306, 136.4634247, 28.780489, 0.0743572
-0.1928711, 0.3442383, -1.0073242, 72.5, 137.6829376, 27.8658543, 0.0656291
-0.184082, 0.3286133, -1, 72.3780518, 138.5365906, 28.1707325, 0.0562295
-0.1738281, 0.3198242, -1.0195312, 73.2317123, 138.7195129, 28.5975609, 0.0481727
-0.1479492, 0.3222656, -1.0878906, 75.3048782, 139.7561035, 30.4878063, 0.0298772
-0.1464844, 0.3369141, -1.1289062, 75.2439041, 140.1219482, 30.3658543, 0.0105745
-0.1635742, 0.3701172, -1.1723633, 73.2317123, 140.2439117, 29.3292694, -0.002182
-0.1791992, 0.3867188, -1.1699219, 71.4634171, 139.7561035, 28.841465, -0.0075532
-0.215332, 0.3886719, -1.1176758, 68.4756088, 136.7682953, 27.2560978, 0.0005035
-0.2192383, 0.3706055, -1.0878906, 67.8048782, 134.2073212, 26.2195129, 0.0045319
-0.2158203, 0.3173828, -1.0454102, 68.9634171, 130.1219482, 23.9024391, 0.0142672
-0.1987305, 0.2617188, -1.027832, 71.3414688, 127.7439041, 23.780489, 0.0318914
-0.1801758, 0.2421875, -1.0361328, 72.5609741, 126.9512253, 24.5731716, 0.0481727
-0.1357422, 0.246582, -1.046875, 73.4756088, 126.8292694, 27.0121956, 0.0498512
-0.1171875, 0.2719727, -1.0454102, 73.3536606, 127.0731735, 27.9268303, 0.0488441
-0.0717773, 0.3334961, -1.0239258, 72.68293, 128.5365906, 28.7195129, 0.047837
-0.0507812, 0.3447266, -1.0209961, 72.0121994, 129.3902435, 28.2317085, 0.0360876
-0.0214844, 0.3110352, -1.0390625, 70.18293, 132.1341553, 26.2195129, 0.036759
-0.0166016, 0.2807617, -1.0410156, 69.2682953, 134.0243988, 24.6341476, 0.0810712
-0.0307617, 0.2299805, -1.015625, 68.2926865, 136.9512177, 22.0731716, 0.124712
-0.0512695, 0.2094727, -0.9882812, 68.5365906, 137.0731812, 21.2195129, 0.1287404
-0.0869141, 0.1806641, -0.9467773, 70.9756088, 135.6707306, 19.6341476, 0.1163195
-0.1054688, 0.1640625, -0.9726562, 75.6707306, 133.5365906, 20.9146347, 0.1044022
-0.1044922, 0.1694336, -1.0092773, 78.7804871, 132.9878082, 22.7439022, 0.068986
-0.0805664, 0.1845703, -1.0800781, 82.68293, 132.8048859, 25.5487804, 0.0159457
-0.0766602, 0.1977539, -1.1040039, 83.1707306, 132.86586, 25.8536587, -0.0273594
-0.1069336, 0.2192383, -1.1289062, 82.7439041, 131.5243988, 25.060976, -0.0397803
-0.1323242, 0.2270508, -1.1430664, 82.5, 130.2439117, 25.1829281, -0.0485084
-0.1508789, 0.2304688, -1.1533203, 83.4146347, 125.9146347, 26.8292694, -0.0767071
-0.1499023, 0.2333984, -1.1455078, 84.2073212, 123.8414688, 27.1341476, -0.0206455
-0.1455078, 0.2333984, -1.0839844, 84.2682953, 119.3902435, 25.8536587, 0.1362936
-0.1347656, 0.2280273, -1.0385742, 84.0243912, 117.2561035, 25.2439022, 0.209308
-0.0786133, 0.2114258, -0.980957, 83.7804871, 113.1707306, 25.8536587, 0.1851377
0.0200195, 0.1943359, -0.9912109, 85.18293, 112.3780518, 29.2073174, 0.152575
0.0742188, 0.184082, -1.0117188, 85.2439041, 113.7804871, 30.6097565, -0.018967
0.1606445, 0.1645508, -1.0366211, 82.9268341, 118.6585388, 30.1219521, -0.1619745
0.1757812, 0.1459961, -1.0429688, 80.2439041, 121.1585388, 28.4146347, -0.2552987
0.1337891, 0.1157227, -1.043457, 77.1951218, 124.5121994, 24.3292694, -0.3036393
0.0917969, 0.1166992, -1.0444336, 77.1951218, 125.5487823, 23.5365868, -0.2834974
0.0327148, 0.1606445, -1.0327148, 79.146347, 125.36586, 24.5121956, -0.194873
0.0214844, 0.1879883, -1.0146484, 80.3048782, 124.4512253, 24.4512196, -0.0649577
0.0009766, 0.2128906, -0.9736328, 79.7560959, 122.4390259, 22.3780499, 0.0548867
-0.0014648, 0.1972656, -0.9658203, 79.3902435, 121.4634171, 21.5243912, 0.1381399
0.0209961, 0.1342773, -0.9907227, 79.9390259, 119.3292694, 21.5243912, 0.1748989
0.0576172, 0.0673828, -1.0473633, 81.4634171, 119.2073212, 23.5365868, 0.1656672
0.0673828, 0.0537109, -1.0688477, 82.3780518, 119.5731735, 23.9634151, 0.1119554
0.0449219, 0.0634766, -1.081543, 83.8414688, 119.0243912, 23.8414631, 0.0354162
0.0185547, 0.0776367, -1.0708008, 84.3292694, 117.7439041, 23.2926826, -0.0424659
-0.03125, 0.1137695, -1.0234375, 85.5487823, 112.8048782, 23.8414631, -0.0965133
-0.0395508, 0.1264648, -0.9926758, 86.7073212, 110, 24.5121956, -0.1263905
-0.0146484, 0.1225586, -0.9492188, 88.9024429, 104.9390259, 25.7926826, -0.1364614
0.0170898, 0.1000977, -0.9394531, 89.9390259, 103.5365906, 26.1585369, -0.1211872
0.0810547, 0.0429688, -0.921875, 91.9512253, 102.2561035, 26.4024391, -0.04448
0.1137695, 0.0195312, -0.9282227, 92.9268341, 102.3170776, 26.5853672, -0.0015106
0.1513672, 0.0073242, -0.9804688, 94.6341476, 103.5365906, 27.7439022, -0.1263905
0.1782227, 0.0717773, -1.0776367, 96.2804871, 105.5487823, 31.0975609, -0.2314641
0.1870117, 0.1245117, -1.1171875, 95.4878082, 107.1951218, 32.6219521, -0.2996109
0.1958008, 0.2285156, -1.140625, 90.4878082, 110.9756088, 32.3780479, -0.3338521
0.1875, 0.2636719, -1.1259766, 86.1585388, 112.3780518, 30.4878063, -0.3212634
0.1645508, 0.2412109, -1.0605469, 76.2195129, 112.9878082, 25.4268303, -0.2690623
0.1547852, 0.1923828, -1.0180664, 72.3780518, 112.0121994, 23.1707325, -0.1482109
0.1650391, 0.0708008, -0.9453125, 69.4512177, 109.0853653, 20.3658543, -0.0139315
0.1743164, 0.0200195, -0.9272461, 70, 108.1097565, 19.8170738, 0.0770428
0.1860352, -0.0283203, -0.9418945, 73.6585388, 107.0121994, 20.1219521, 0.1233692
0.1870117, -0.0229492, -0.9677734, 77.3170776, 107.4390259, 21.4634151, 0.0951705
0.1850586, 0.0302734, -0.9858398, 78.4756088, 107.1951218, 21.7073174, 0.0293736
0.1826172, 0.0859375, -0.9365234, 77.7439041, 105.6097565, 21.0365868, -0.0323949
0.1796875, 0.0917969, -0.9018555, 77.0121994, 103.9024429, 19.8170738, -0.0881209
0.1806641, 0.0478516, -0.862793, 75.8536606, 100.3658524, 18.1097565, -0.0894636
0.1948242, 0.012207, -0.8598633, 76.8902435, 99.5731735, 18.1097565, -0.0582437
0.2192383, -0.0439453, -0.8979492, 80.7317123, 100.7926865, 19.2073174, -0.043473
0.2265625, -0.0483398, -0.9213867, 82.7439041, 101.7073212, 19.7560978, -0.0229953
0.2104492, -0.027832, -0.9677734, 85.8536606, 102.4390259, 20.3658543, -0.0015106
0.1972656, -0.0102539, -0.9765625, 86.646347, 101.8902435, 20.9756107, 0.0015106
0.1787109, 0.0219727, -0.9594727, 87.6219559, 98.7195129, 21.0975609, -0.0072175
0.1640625, 0.0234375, -0.9194336, 88.4146347, 94.5731735, 19.2073174, -0.0099031
0.1601562, 0.0014648, -0.8286133, 89.0853653, 92.3170776, 18.2317085, -0.0114137
0.1860352, -0.0639648, -0.7797852, 93.2317123, 88.1097565, 17.3780499, -0.0149386
0.2099609, -0.1015625, -0.7866211, 96.5243912, 86.8902435, 17.6829281, -0.0045319
0.2543945, -0.1225586, -0.8476562, 103.6585388, 86.4634171, 20.4878044, 0.0176242
0.2749023, -0.1015625, -0.8769531, 106.3414688, 86.9512253, 22.0121956, -0.0001678
0.309082, -0.0336914, -0.9145508, 108.5975647, 88.5365906, 23.5365868, -0.0619364
0.3154297, -0.0112305, -0.9125977, 107.8658524, 89.2682953, 22.9268303, -0.0763714
0.2939453, 0.0029297, -0.8862305, 104.8170776, 89.4512253, 20.060976, -0.0558938
0.284668, -0.0092773, -0.8666992, 103.7195129, 88.8414688, 18.9024391, 0.0562295
0.2817383, -0.0532227, -0.8579102, 103.1097565, 87.0121994, 17.1341476, 0.2072938
0.2817383, -0.0639648, -0.8857422, 104.0853653, 86.4634171, 17.0731716, 0.2396887
0.2866211, -0.0292969, -0.9331055, 104.0853653, 86.5243912, 18.0487804, 0.2079652
0.3076172, 0.0458984, -0.934082, 102.6219559, 85.6707306, 19.2682934, 0.1804379
0.3266602, 0.0512695, -0.9116211, 100.3658524, 84.5121994, 18.1097565, 0.0938277
0.3452148, -0.0297852, -0.8730469, 94.7561035, 80.5487823, 13.0487804, 0.0137636
0.3383789, -0.0913086, -0.8623047, 93.2317123, 78.6585388, 10, 0.0015106
0.3081055, -0.15625, -0.8730469, 95.1219559, 76.8292694, 7.8048782, 0.0884565
0.2958984, -0.1357422, -0.8818359, 97.3780518, 76.8292694, 8.9024391, 0.2066224
0.2871094, -0.0239258, -0.9042969, 99.7561035, 76.3414688, 12.1341467, 0.2358282
0.2978516, 0.0307617, -0.9223633, 98.7195129, 76.0365906, 12.560976, 0.1811093
0.3188477, 0.0786133, -0.9501953, 92.0731735, 75, 12.0731707, 0.0829175
0.3364258, 0.0644531, -0.9448242, 84.0243912, 75.0609741, 9.6341467, -0.0364233
0.3569336, -0.0048828, -0.8754883, 80.6707306, 74.7560959, 7.6219516, -0.1379721
0.3530273, -0.1108398, -0.7875977, 78.1097565, 72.8048782, 3.1097562, -0.194873
0.3413086, -0.1503906, -0.769043, 78.7804871, 70.7317123, 2.1341465, -0.2177005
0.3305664, -0.1821289, -0.7832031, 83.1707306, 68.5975647, 4.0243902, -0.223743
0.3383789, -0.168457, -0.796875, 85.2439041, 68.3536606, 5.5487804, -0.2247501
0.3427734, -0.1337891, -0.7939453, 85.9756088, 69.8170776, 5.9146342, -0.2271
0.331543, -0.1206055, -0.7724609, 84.8780518, 70.18293, 5.1219511, -0.2250858
0.3051758, -0.1210938, -0.7333984, 83.0487823, 68.4756088, 3.9024391, -0.2271
0.3046875, -0.1230469, -0.7382812, 83.1097565, 67.0731735, 4.7560978, -0.223743
0.3466797, -0.1235352, -0.7885742, 85.8536606, 65.5487823, 7.9268293, -0.2079652
0.375, -0.1132812, -0.8081055, 86.2195129, 65.9146347, 9.0853662, -0.1858091
0.4106445, -0.1083984, -0.7958984, 85.2439041, 65.5487823, 7.8048782, -0.1619745
0.4013672, -0.1640625, -0.7319336, 81.8902435, 63.3536606, 2.7439024, -0.1498894
0.3818359, -0.1923828, -0.6938477, 81.0975647, 61.9512215, 1.0365853, -0.145861
0.3569336, -0.25, -0.6494141, 85.0609741, 59.0243912, -0.1829268, -0.160296
0.359375, -0.2734375, -0.6435547, 88.5365906, 57.6219521, 0, -0.1774166
0.3657227, -0.2636719, -0.6464844, 95, 55.2439041, 0.9146342, -0.1727169
0.3696289, -0.2387695, -0.668457, 97.0121994, 53.841465, 1.6463414, -0.1418326
0.3959961, -0.1704102, -0.7358398, 98.1097565, 52.8048782, 4.2682929, -0.0820783
0.4194336, -0.1362305, -0.769043, 97.3170776, 53.5365868, 5.5487804, 0.0381018
0.4663086, -0.112793, -0.7851562, 92.6219559, 56.2804909, 5.609756, 0.145861
0.4716797, -0.1323242, -0.7739258, 86.646347, 57.2560997, 0.9146342, 0.2052796
0.4516602, -0.2045898, -0.722168, 84.0243912, 56.6463432, -1.5243902, 0.2500954
0.4243164, -0.2626953, -0.6606445, 83.4756088, 52.9878044, -3.0487804, 0.2737621
0.4301758, -0.2744141, -0.6445312, 84.9390259, 51.0365868, -2.3780489, 0.2777905
0.4555664, -0.2729492, -0.6523438, 87.1341476, 49.6341476, -1.2804878, 0.269398
0.4624023, -0.2543945, -0.671875, 88.0487823, 50.7317085, -1.0365853, 0.2301213
0.4716797, -0.2197266, -0.7211914, 87.0121994, 53.6585388, -1.2195122, 0.1722133
0.4736328, -0.2114258, -0.7358398, 85.4878082, 55.18293, -1.6463414, 0.1186694
0.4541016, -0.2060547, -0.7338867, 81.4024429, 55.7317085, -2.8658538, 0.06009
0.4423828, -0.2080078, -0.7148438, 79.4512177, 54.5731735, -3.5975611, -0.0018463
0.4174805, -0.2304688, -0.6791992, 77.3780518, 50.2439041, -4.3292685, -0.0451514
0.4199219, -0.2514648, -0.6757812, 77.6219559, 46.0975609, -4.390244, -0.0736858
0.421875, -0.2714844, -0.6865234, 78.0487823, 44.8780479, -4.1463413, -0.1084306
0.4277344, -0.2670898, -0.6987305, 78.1097565, 43.5365868, -3.5365853, -0.1003738
0.4316406, -0.2548828, -0.6943359, 77.2560959, 42.9878044, -3.4146342, -0.002182
0.4335938, -0.2446289, -0.6611328, 74.6341476, 41.0365868, -3.7195122, 0.0240024
0.4375, -0.2490234, -0.6425781, 73.4756088, 39.8170738, -3.7804878, -0.0344091
0.4580078, -0.2573242, -0.605957, 71.7682953, 36.4024391, -3.8414636, -0.110277
0.4750977, -0.2709961, -0.5947266, 71.7682953, 35.0609779, -3.7195122, -0.1337758
0.5102539, -0.2958984, -0.5800781, 72.0731735, 34.0853653, -4.3292685, -0.0730144
0.5224609, -0.300293, -0.5688477, 71.5243912, 34.5731697, -4.8170733, -0.0686503
0.5332031, -0.3012695, -0.5507812, 69.8170776, 35.1829262, -5.9756098, -0.1012131
0.5336914, -0.2954102, -0.5444336, 67.6219559, 36.2804871, -5.4268293, -0.1378042
0.5439453, -0.2919922, -0.5556641, 67.0731735, 36.9512215, -5.0609756, -0.1666743
0.5546875, -0.2988281, -0.6049805, 65.7926865, 38.2926826, -4.6341462, -0.190341
0.5576172, -0.3027344, -0.628418, 64.8170776, 39.0243912, -5.5487804, -0.2019226
0.527832, -0.2978516, -0.6313477, 61.7073174, 39.5121956, -7.5609756, -0.2007477
0.5024414, -0.2822266, -0.6157227, 60.0609779, 39.1463432, -8.3536587, -0.1851377
0.465332, -0.2666016, -0.5947266, 57.6219521, 36.6463432, -8.719512, -0.1626459
0.4584961, -0.2626953, -0.597168, 57.68293, 35.0609779, -7.8658538, -0.1498894
0.4746094, -0.269043, -0.6176758, 57.1341476, 33.2926826, -6.280488, -0.1478752
0.4824219, -0.2841797, -0.6230469, 56.341465, 32.8658562, -6.7073174, -0.1378042
0.4780273, -0.3144531, -0.6074219, 53.2926826, 32.5, -8.719512, -0.110277
0.4609375, -0.3212891, -0.5942383, 52.0121956, 29.3902454, -9.6341467, -0.0773785
0.4458008, -0.3295898, -0.5947266, 52.5, 27.4390259, -8.780488, -0.0552224
0.4555664, -0.3115234, -0.6025391, 53.9024391, 24.2073174, -7.2560978, -0.1106126
0.4716797, -0.3012695, -0.6040039, 53.9024391, 23.2317085, -6.8292685, -0.193698
0.4746094, -0.3032227, -0.5922852, 51.8292694, 20.9756107, -7.9268293, -0.2130007
0.4716797, -0.3046875, -0.5844727, 50.5487823, 19.7560978, -8.1097565, -0.2022583
0.46875, -0.315918, -0.5703125, 49.5121956, 17.8048782, -7.0731707, -0.1668421
0.4750977, -0.3129883, -0.5639648, 49.2073174, 16.7073174, -6.4634147, -0.1022202
0.4921875, -0.309082, -0.5585938, 48.6585388, 15.3658543, -5.670732, -0.0129244
0.5053711, -0.3037109, -0.5556641, 47.8048782, 14.5731707, -5.609756, 0.0834211
0.5200195, -0.3066406, -0.5605469, 46.0365868, 12.8658543, -5.8536587, 0.1663386
0.5180664, -0.3227539, -0.5634766, 43.7804871, 11.4634151, -6.5243902, 0.2334783
0.519043, -0.3256836, -0.5556641, 42.8048782, 10.8536587, -6.890244, 0.2401923
0.519043, -0.3305664, -0.5424805, 40.6097565, 9.3902445, -7.7439027, 0.1952087
0.5102539, -0.3305664, -0.5405273, 39.5731735, 8.2926826, -7.6219516, 0.1713741
0.5200195, -0.3154297, -0.5522461, 37.8658562, 5.9756098, -6.8292685, 0.2294499
0.5332031, -0.3085938, -0.5585938, 36.8902435, 4.8780489, -6.4634147, 0.244892
0.5581055, -0.2763672, -0.5458984, 32.9878044, 4.7560978, -7.1951222, 0.2052796
0.5600586, -0.2685547, -0.5205078, 30.4268303, 4.6341462, -7.5609756, 0.1186694
0.5727539, -0.2890625, -0.4863281, 25.4878063, 3.9634147, -8.5365858, 0.0146029
0.5839844, -0.3222656, -0.4741211, 24.0853672, 3.8414636, -8.841464, -0.0310521
0.5898438, -0.3789062, -0.4711914, 22.3780499, 4.5731707, -10.5487804, 0.0018463
0.5668945, -0.3876953, -0.4833984, 22.5, 6.0365853, -11.341464, 0.0783856
0.5527344, -0.3725586, -0.4907227, 22.2560978, 6.1585369, -10.9756098, 0.1633173
0.5415039, -0.3164062, -0.5097656, 20.6707325, 6.1585369, -9.4512196, 0.1807736
0.5424805, -0.2880859, -0.5131836, 18.9024391, 6.0365853, -8.3536587, 0.1364614
0.5493164, -0.2827148, -0.5336914, 14.3902445, 6.0365853, -8.1097565, 0.0780499
0.5483398, -0.3051758, -0.5439453, 12.0731707, 6.1585369, -8.4756098, 0.021149
0.5268555, -0.3867188, -0.5512695, 8.9634151, 5.7317076, -9.8170738, -0.0914778
0.5024414, -0.4243164, -0.5415039, 8.5365858, 4.8170733, -10.4268293, -0.2200504
0.4477539, -0.4350586, -0.4853516, 8.5365858, 0.7317073, -11.0365858, -0.2704051
0.4277344, -0.4155273, -0.4570312, 9.5121956, -2.5, -10.3048782, -0.2821546
0.4311523, -0.3637695, -0.4555664, 11.5853662, -8.6585369, -6.8292685, -0.2620127
0.4951172, -0.3193359, -0.5146484, 13.2317076, -11.6463413, -3.0487804, -0.2036011
0.5288086, -0.3115234, -0.5444336, 12.8048782, -11.280488, -2.0121951, -0.1337758
0.5620117, -0.3081055, -0.5698242, 8.2926826, -8.9024391, -2.3170731, -0.0649577
0.5585938, -0.3076172, -0.5585938, 5.1219511, -8.3536587, -2.9268293, 0.0041962
0.543457, -0.3227539, -0.5195312, 0.7926829, -10.1219511, -4.1463413, 0.0446479
0.5463867, -0.3369141, -0.5107422, -0.4268293, -12.0731707, -4.2073174, 0.1079271
0.5473633, -0.3701172, -0.5029297, -1.0365853, -15.9146347, -5.1829271, 0.1757382
0.546875, -0.3803711, -0.4970703, -1.5853659, -17.0121956, -5.7926831, 0.1837949
0.5283203, -0.3632812, -0.4707031, -2.9268293, -18.9024391, -7.1341467, 0.1871519
0.5205078, -0.340332, -0.4599609, -3.5975611, -19.5731716, -6.6463418, 0.2724193
0.5415039, -0.2954102, -0.4589844, -5.2439027, -21.2195129, -4.6341462, 0.2751049
0.5830078, -0.2856445, -0.4838867, -8.2926826, -20.8536587, -4.2073174, 0.194873
0.5966797, -0.2944336, -0.4995117, -10, -20.1219521, -4.8170733, 0.1206836
0.5986328, -0.3300781, -0.5253906, -14.0243902, -18.2926826, -6.280488, 0.040116
0.5859375, -0.3457031, -0.5229492, -15.8536587, -17.7439022, -6.8292685, -0.0760357
0.5449219, -0.3427734, -0.4912109, -19.4512196, -18.780489, -7.7439027, -0.1700313
0.5307617, -0.3276367, -0.4663086, -21.3414631, -20.4878044, -7.3170733, -0.230457
0.5361328, -0.3193359, -0.4272461, -23.9634151, -23.5365868, -6.9512196, -0.2331426
0.5478516, -0.3383789, -0.4189453, -25.3658543, -24.6951218, -7.1341467, -0.194873
0.5610352, -0.3837891, -0.4394531, -26.3414631, -24.9390259, -8.1097565, -0.1404898
0.5610352, -0.4038086, -0.4545898, -25.9146347, -25, -8.1097565, -0.0746929
0.5512695, -0.4013672, -0.4619141, -25.7317085, -24.7560978, -7.0731707, -0.0078889
