Application:, Trigno Discover (1.6.5)
Date/Time:, 05/02/2025 10:27:50
Collection Length (seconds):, 41.796
wrist (81457), , , , , , bicep (81139)
sensor mode: 609, , , , , , sensor mode: 40
ACC X (G), ACC Y (G), ACC Z (G), GYRO X (deg/s), GYRO Y (deg/s), GYRO Z (deg/s), EMG 1 (mV)
370.3704 Hz, 370.3704 Hz, 370.3704 Hz, 370.3704 Hz, 370.3704 Hz, 370.3704 Hz, 2148.1481 Hz
0.8974609, -0.2890625, -0.3598633, -14.8780489, -7.0121951, 3.7195122, 0.0182956
0.8989258, -0.2905273, -0.3583984, -14.6951227, -7.1341467, 3.7804878, 0.0072175
0.902832, -0.2871094, -0.3540039, -14.6341467, -7.0731707, 3.7804878, -0.0050355
0.9052734, -0.2817383, -0.3505859, -14.8170738, -6.9512196, 4.0243902, -0.0139315
0.9013672, -0.2729492, -0.3515625, -15.1219511, -6.3414636, 4.0243902, -0.0216526
0.9033203, -0.2719727, -0.3525391, -15.3658543, -6.280488, 4.0243902, -0.0458228
0.9003906, -0.2758789, -0.3608398, -15.9756098, -6.6463418, 4.3292685, -0.0659648
0.902832, -0.2773438, -0.3569336, -16.7682934, -6.8292685, 4.6951222, -0.0649577
0.9116211, -0.2875977, -0.3408203, -17.3780499, -7.3170733, 4.8170733, -0.0679789
0.9101562, -0.2880859, -0.3339844, -16.9512196, -7.1951222, 5.0609756, -0.0626078
0.9116211, -0.293457, -0.3237305, -16.0975609, -6.4024391, 5.1219511, -0.0508583
0.9077148, -0.2871094, -0.3251953, -15.4878054, -6.3414636, 5.3048782, -0.0332341
0.9038086, -0.2797852, -0.3393555, -14.5121956, -5.9146342, 5.2439027, -0.0115816
0.9033203, -0.277832, -0.3515625, -14.6341467, -5.9146342, 5.3658538, 0.0090639
0.9023438, -0.2763672, -0.3666992, -15, -6.4024391, 5.9146342, 0.0287022
0.9116211, -0.2783203, -0.3603516, -16.2195129, -6.6463418, 6.5243902, 0.0421302
0.9194336, -0.284668, -0.3583984, -16.3414631, -6.9512196, 6.4024391, 0.0481727
0.9194336, -0.2817383, -0.3466797, -16.2195129, -6.4634147, 6.9512196, 0.0525368
0.9213867, -0.2890625, -0.347168, -16.0365849, -6.0975609, 6.7073174, 0.0535439
0.9174805, -0.2856445, -0.3427734, -15.7317076, -5.1219511, 6.2195125, 0.0481727
0.9140625, -0.2841797, -0.34375, -15.6097565, -4.9390244, 6.1585369, 0.0397803
0.90625, -0.284668, -0.3452148, -15.5487804, -5.3048782, 5.9756098, 0.0276951
0.9038086, -0.2890625, -0.3413086, -15.7926836, -5.7317076, 6.0975609, 0.0206455
0.90625, -0.296875, -0.3378906, -15.3048782, -5.4268293, 6.4024391, 0.0172885
0.9057617, -0.3007812, -0.3388672, -15.3658543, -5.7926831, 6.4024391, 0.005539
0.9101562, -0.2978516, -0.3359375, -14.3292685, -5.7317076, 6.5243902, -0.0028534
0.9145508, -0.2954102, -0.3359375, -13.5365858, -5.5487804, 6.2195125, -0.0018463
0.9155273, -0.2954102, -0.3349609, -13.1707315, -5.7317076, 5.7926831, -0.0085603
0.9199219, -0.2954102, -0.3359375, -13.0487804, -5.9146342, 5.4878049, -0.0112459
0.918457, -0.3022461, -0.3378906, -12.7439032, -5.9756098, 5.4878049, -0.0203098
0.9194336, -0.3012695, -0.3442383, -12.6829271, -5.8536587, 5.7926831, -0.0290379
0.9140625, -0.3012695, -0.3466797, -12.9878054, -5.609756, 5.609756, -0.0307164
0.9189453, -0.2949219, -0.3417969, -12.8048782, -5.7926831, 6.0365853, -0.0372625
0.921875, -0.2910156, -0.3427734, -12.4390249, -5.670732, 5.8536587, -0.0391089
0.9199219, -0.2871094, -0.3505859, -11.8902445, -6.0365853, 5.3658538, -0.0411231
0.9208984, -0.2866211, -0.3544922, -12.0731707, -5.9756098, 5.1829271, -0.0397803
0.9155273, -0.2944336, -0.3579102, -12.3780489, -5.8536587, 4.9390244, -0.0381018
0.9155273, -0.2998047, -0.3544922, -12.6219511, -5.4268293, 5, -0.0424659
0.9116211, -0.3012695, -0.3525391, -13.1097565, -5.2439027, 5.1219511, -0.0411231
0.9091797, -0.2993164, -0.34375, -12.560976, -5.3048782, 5.1829271, -0.0381018
0.9135742, -0.2963867, -0.340332, -12.3780489, -5.2439027, 5.2439027, -0.0337377
0.9111328, -0.2900391, -0.3476562, -11.7073174, -5.4268293, 5.3048782, -0.0303807
0.9101562, -0.2861328, -0.3515625, -11.4634151, -5.4268293, 5.3658538, -0.0273594
0.9140625, -0.2773438, -0.3569336, -12.0121956, -5.1219511, 5.4878049, -0.0310521
0.9155273, -0.2724609, -0.359375, -12.560976, -5.1829271, 5.1219511, -0.0317235
0.9140625, -0.2714844, -0.3637695, -13.841464, -5.1829271, 5.4878049, -0.030045
0.9121094, -0.269043, -0.362793, -14.6341467, -5.3048782, 5.7926831, -0.0370947
0.9160156, -0.2651367, -0.3618164, -15.6097565, -5.3048782, 6.5853658, -0.0485084
0.9213867, -0.2680664, -0.359375, -15.6097565, -5.3048782, 6.7073174, -0.0538796
0.9248047, -0.2695312, -0.359375, -15.9146347, -5, 6.5853658, -0.0632792
0.9194336, -0.2807617, -0.355957, -16.4634151, -4.390244, 6.4024391, -0.0762036
0.9155273, -0.2822266, -0.3579102, -16.4634151, -4.2073174, 6.5243902, -0.0944991
0.9111328, -0.293457, -0.3461914, -16.4024391, -4.0243902, 6.3414636, -0.1079271
0.9086914, -0.2993164, -0.3388672, -16.2195129, -4.0243902, 6.6463418, -0.0976883
0.9038086, -0.296875, -0.3295898, -15.1829271, -3.9024391, 6.7073174, -0.061265
0.90625, -0.3007812, -0.324707, -14.8170738, -3.7804878, 6.7682929, -0.012253
0.9072266, -0.2978516, -0.3271484, -13.841464, -4.1463413, 6.280488, 0.0246738
0.9047852, -0.2988281, -0.331543, -13.841464, -4.390244, 6.280488, 0.0399481
0.8994141, -0.293457, -0.3378906, -14.2073174, -4.5731707, 6.3414636, 0.0347448
0.9018555, -0.2905273, -0.3388672, -14.6951227, -5.3048782, 6.5243902, 0.0240024
0.9038086, -0.2861328, -0.3369141, -14.5731707, -5.1219511, 6.8292685, 0.005539
0.9067383, -0.2822266, -0.3300781, -14.3292685, -5.4878049, 6.7073174, -0.0078889
0.909668, -0.2744141, -0.3291016, -13.6585369, -5.4268293, 6.6463418, -0.0129244
0.9160156, -0.2700195, -0.3369141, -13.5365858, -5.7317076, 6.5243902, -0.0186313
0.9155273, -0.2734375, -0.340332, -13.841464, -5.9146342, 6.3414636, -0.018967
0.9174805, -0.2792969, -0.3442383, -14.6951227, -6.3414636, 5.9146342, -0.0196384
0.9155273, -0.2856445, -0.3452148, -15.6097565, -6.3414636, 5.8536587, -0.0219883
0.9111328, -0.3061523, -0.3383789, -15.7317076, -6.7682929, 5.7926831, -0.0216526
0.909668, -0.3129883, -0.3359375, -15.9146347, -6.5243902, 5.5487804, -0.0229953
0.9091797, -0.3222656, -0.3261719, -14.8780489, -6.9512196, 5.5487804, -0.0204776
0.9042969, -0.328125, -0.3208008, -13.3536587, -7.0731707, 5.3048782, -0.0199741
0.9023438, -0.3300781, -0.3217773, -12.560976, -7.0731707, 5.1829271, -0.0231632
0.9013672, -0.3198242, -0.3242188, -10.9756098, -7.5, 5.1829271, -0.0229953
0.8989258, -0.3139648, -0.3310547, -10.6707315, -7.5609756, 4.9390244, -0.023331
0.9052734, -0.3041992, -0.3305664, -10.5487804, -7.9878049, 4.3292685, -0.0441444
0.9057617, -0.2993164, -0.3305664, -10.4878054, -8.3536587, 3.9634147, -0.0674754
0.9101562, -0.2998047, -0.3291016, -10.9756098, -9.0853662, 3.5975611, -0.0814069
0.9145508, -0.3041992, -0.3295898, -10.8536587, -9.4512196, 3.2317073, -0.0887922
0.9199219, -0.3134766, -0.3266602, -10.9756098, -9.5121956, 2.9268293, -0.0936599
0.9174805, -0.3168945, -0.3286133, -10.7926836, -9.5121956, 2.9268293, -0.0840925
0.9160156, -0.3227539, -0.3251953, -10, -9.3902445, 3.0487804, -0.0629435
0.9091797, -0.315918, -0.3276367, -9.2073174, -9.1463413, 2.8658538, -0.04448
0.9086914, -0.3134766, -0.3378906, -9.2682924, -9.2682924, 2.5609756, -0.0229953
0.9047852, -0.3027344, -0.3510742, -9.5731707, -9.3902445, 2.6219513, 0.0011749
0.9042969, -0.2963867, -0.3574219, -9.9390249, -9.1463413, 2.6219513, 0.0125887
0.9077148, -0.2817383, -0.3613281, -10.7317076, -9.6341467, 3.2926829, 0.024506
0.9111328, -0.2729492, -0.3569336, -10.7317076, -9.2682924, 3.7195122, 0.026688
0.9199219, -0.2617188, -0.3608398, -10.7317076, -9.3902445, 3.8414636, 0.026688
0.9257812, -0.2578125, -0.3647461, -10.5487804, -9.0243902, 3.5365853, 0.0246738
0.9375, -0.2597656, -0.375, -11.219512, -8.2926826, 2.9268293, 0.021149
0.9345703, -0.2587891, -0.3764648, -12.0121956, -7.6219516, 2.6219513, 0.0199741
0.9233398, -0.2763672, -0.3632812, -13.841464, -7.0121951, 2.5609756, 0.0139315
0.9140625, -0.2910156, -0.3481445, -13.9024391, -6.4024391, 3.3536587, 0.008896
0.9140625, -0.2919922, -0.3378906, -13.780488, -6.0975609, 3.7804878, -0.0031891
0.9033203, -0.2900391, -0.3256836, -12.2560978, -5.3048782, 3.9634147, -0.008896
0.8974609, -0.2856445, -0.3256836, -11.341464, -5.4268293, 3.8414636, -0.0250095
0.8950195, -0.2783203, -0.3305664, -10.7317076, -5.670732, 3.5365853, -0.0428016
0.8945312, -0.2749023, -0.3378906, -10.6707315, -6.0365853, 3.4756098, -0.0525368
0.8984375, -0.2890625, -0.34375, -11.341464, -7.0121951, 3.7195122, -0.0552224
0.9047852, -0.2895508, -0.3466797, -12.0121956, -7.1341467, 3.6585367, -0.0532082
0.9165039, -0.300293, -0.3383789, -11.9512196, -7.0731707, 3.5365853, -0.0475013
0.9233398, -0.3032227, -0.3354492, -12.2560978, -6.890244, 3.4756098, -0.036759
0.9179688, -0.3056641, -0.3291016, -11.5853662, -5.9756098, 3.1707318, -0.0344091
0.9135742, -0.3041992, -0.3344727, -10.9756098, -5.670732, 3.4146342, -0.0377661
0.9125977, -0.300293, -0.3408203, -10.7926836, -5.7317076, 3.3536587, -0.0394446
0.9047852, -0.2963867, -0.3427734, -10.5487804, -5.8536587, 3.4146342, -0.0417945
0.902832, -0.2910156, -0.340332, -10.9756098, -6.0365853, 3.3536587, -0.0384375
0.9047852, -0.284668, -0.3354492, -11.4634151, -6.4634147, 3.3536587, -0.0377661
0.9082031, -0.28125, -0.3378906, -11.4024391, -6.7682929, 3.2317073, -0.0505226
0.9091797, -0.2832031, -0.3388672, -11.341464, -6.9512196, 2.6219513, -0.0733501
0.9121094, -0.2822266, -0.3432617, -11.4024391, -7.1341467, 2.3780489, -0.0830854
0.9165039, -0.2856445, -0.3476562, -11.7073174, -7.0121951, 2.1341465, -0.0798962
0.9125977, -0.293457, -0.3476562, -12.0731707, -6.5853658, 2.195122, -0.0605936
0.909668, -0.3017578, -0.3393555, -12.6219511, -6.7682929, 2.1341465, -0.0458228
0.9121094, -0.3041992, -0.331543, -12.2560978, -6.4634147, 2.6219513, -0.0323949
0.9101562, -0.3061523, -0.3276367, -11.5853662, -6.5243902, 2.5609756, -0.0196384
0.90625, -0.3017578, -0.3222656, -10.6707315, -6.280488, 2.1341465, -0.0068818
0.9003906, -0.300293, -0.324707, -10.3048782, -6.6463418, 1.5853659, 0.0083925
0.9008789, -0.2905273, -0.3349609, -10, -7.1341467, 1.1585366, 0.0105745
0.9003906, -0.2851562, -0.3393555, -10.4268293, -7.3170733, 1.3414634, 0.012253
0.9042969, -0.2851562, -0.3369141, -11.219512, -7.9878049, 1.7073171, 0.0166171
0.9033203, -0.2871094, -0.3374023, -11.4634151, -7.8048782, 1.9512196, 0.0196384
0.9086914, -0.2875977, -0.3417969, -12.0731707, -8.4146347, 2.1341465, 0.0226596
0.9111328, -0.2861328, -0.3466797, -11.8292685, -8.2926826, 2.1341465, 0.026688
0.9155273, -0.2822266, -0.3530273, -11.8292685, -7.9878049, 1.6463414, 0.0236667
0.909668, -0.2832031, -0.3554688, -12.3170738, -8.1097565, 1.5853659, 0.0240024
0.9160156, -0.2890625, -0.3549805, -12.3780489, -8.1097565, 1.5853659, 0.0219883
0.9150391, -0.2910156, -0.3461914, -12.3170738, -7.9268293, 1.7682927, 0.0083925
0.9169922, -0.2910156, -0.3417969, -12.2560978, -7.6829271, 1.7682927, 0.0045319
0.9169922, -0.2851562, -0.3442383, -12.0121956, -7.5609756, 1.5243902, -0.0005035
0.918457, -0.284668, -0.3442383, -11.6463413, -7.4390244, 1.5853659, -0.0085603
0.9116211, -0.2817383, -0.3510742, -12.1341467, -7.5, 1.097561, -0.0172885
0.9072266, -0.2827148, -0.3535156, -12.3170738, -7.9268293, 1.2195122, -0.0223239
0.9042969, -0.2861328, -0.3476562, -13.4146347, -7.9268293, 1.097561, -0.0219883
0.8994141, -0.2905273, -0.3427734, -13.4146347, -7.8048782, 1.4634147, -0.0293736
0.8974609, -0.2885742, -0.3339844, -13.4756098, -7.8658538, 2.0121951, -0.0313878
0.8989258, -0.2875977, -0.3349609, -12.9268293, -7.5609756, 1.8902439, -0.0323949
0.9013672, -0.2841797, -0.3364258, -12.5, -7.6829271, 1.7682927, -0.0394446
0.9052734, -0.2861328, -0.3417969, -12.560976, -8.0487804, 1.5243902, -0.0377661
0.9072266, -0.2841797, -0.340332, -12.6219511, -8.2926826, 1.2195122, -0.0310521
0.9091797, -0.2939453, -0.3442383, -12.9268293, -8.5365858, 1.0365853, -0.0290379
0.9086914, -0.2958984, -0.3432617, -13.1707315, -8.9024391, 1.2195122, -0.0318914
0.9106445, -0.3032227, -0.3413086, -13.0487804, -8.719512, 0.9756098, -0.0283665
0.9106445, -0.3007812, -0.3339844, -12.9878054, -8.4146347, 0.7317073, -0.0229953
0.9125977, -0.296875, -0.3251953, -12.0121956, -8.3536587, 0.9146342, -0.0240024
0.9082031, -0.2866211, -0.3256836, -11.9512196, -8.4756098, 0.8536586, -0.0250095
0.9072266, -0.2875977, -0.3300781, -11.7073174, -8.841464, 0.6707317, -0.0256809
0.9018555, -0.2832031, -0.3408203, -12.1951218, -9.2073174, 0.4268293, -0.0223239
0.8999023, -0.2851562, -0.34375, -12.4390249, -9.5121956, 0.5487805, -0.0209812
0.8989258, -0.2929688, -0.3457031, -13.7195129, -10.060976, 0.9756098, -0.018967
0.9013672, -0.2919922, -0.3476562, -13.6585369, -9.8780489, 0.7317073, -0.0149386
0.9101562, -0.2885742, -0.3393555, -13.2317076, -10.1829271, 1.097561, -0.01561
0.9125977, -0.2895508, -0.3388672, -12.6829271, -10.1829271, 0.9146342, -0.0203098
0.9145508, -0.2851562, -0.3374023, -11.8902445, -9.5731707, 0.8536586, -0.0166171
0.9125977, -0.2836914, -0.3408203, -11.8902445, -9.3902445, 0.6707317, -0.0171206
0.9130859, -0.2758789, -0.3500977, -12.2560978, -9.3902445, 0.7926829, -0.0149386
0.9038086, -0.2729492, -0.3569336, -12.6829271, -9.5731707, 0.7317073, -0.0142672
0.9052734, -0.2714844, -0.355957, -13.9634151, -9.5731707, 0.7926829, -0.0149386
0.9018555, -0.2788086, -0.3491211, -14.7560978, -9.6341467, 1.097561, -0.0149386
0.9018555, -0.2802734, -0.3447266, -14.8780489, -9.7560978, 1.097561, -0.0139315
0.9052734, -0.2851562, -0.3427734, -14.6341467, -9.5121956, 1.2804878, -0.0223239
0.9052734, -0.2861328, -0.3486328, -14.2073174, -9.6951218, 1.2804878, -0.0293736
0.9057617, -0.2929688, -0.3603516, -14.3902445, -9.0853662, 1.2804878, -0.0265202
0.9033203, -0.2958984, -0.3623047, -14.9390249, -8.9634151, 1.1585366, -0.0253452
0.9003906, -0.2983398, -0.3569336, -15.1829271, -8.6585369, 1.4634147, -0.0276951
0.9072266, -0.2983398, -0.3544922, -14.8780489, -8.719512, 1.8902439, -0.0285344
0.9086914, -0.2949219, -0.355957, -14.5121956, -8.4146347, 2.195122, -0.0290379
0.9155273, -0.2856445, -0.3544922, -14.0243902, -8.2926826, 2.0731707, -0.0261845
0.9116211, -0.2802734, -0.3535156, -13.841464, -7.8048782, 1.7682927, -0.0290379
0.9179688, -0.2822266, -0.3535156, -14.0853662, -7.7439027, 1.6463414, -0.0263523
0.9199219, -0.2871094, -0.3520508, -14.7560978, -7.7439027, 1.402439, -0.0256809
0.918457, -0.2856445, -0.3461914, -15.4878054, -7.7439027, 1.8902439, -0.0246738
0.9179688, -0.2915039, -0.3378906, -15.7317076, -7.6829271, 1.8292683, -0.0337377
0.9150391, -0.2973633, -0.3383789, -15.9756098, -7.3170733, 1.6463414, -0.0347448
0.9077148, -0.2963867, -0.3369141, -15.6097565, -7.2560978, 1.402439, -0.0364233
0.8945312, -0.2983398, -0.340332, -15.2439032, -7.2560978, 1.7682927, -0.0384375
0.8969727, -0.3007812, -0.3393555, -14.6951227, -7.1341467, 2.1341465, -0.0377661
0.9013672, -0.3027344, -0.3452148, -14.1463413, -7.6829271, 2.0121951, -0.0374304
0.9033203, -0.2993164, -0.347168, -13.7195129, -7.9878049, 1.7682927, -0.0377661
0.9038086, -0.300293, -0.3496094, -13.780488, -7.6219516, 1.2804878, -0.0377661
0.9086914, -0.2973633, -0.3554688, -13.841464, -7.5, 1.2804878, -0.0270237
0.9121094, -0.2988281, -0.3525391, -13.841464, -7.3780489, 1.2804878, -0.0149386
0.918457, -0.3061523, -0.34375, -13.7195129, -7.3170733, 1.0365853, -0.0172885
0.9165039, -0.3046875, -0.3383789, -13.7195129, -7.3170733, 1.097561, -0.0370947
0.9140625, -0.3046875, -0.3364258, -13.5975609, -6.9512196, 0.9756098, -0.0558938
0.9135742, -0.3022461, -0.3393555, -13.7195129, -6.9512196, 1.2195122, -0.0679789
0.8964844, -0.3056641, -0.3393555, -13.3536587, -6.5243902, 1.3414634, -0.0736858
0.8959961, -0.3022461, -0.3408203, -13.2926836, -6.5243902, 1.4634147, -0.0760357
0.8984375, -0.2924805, -0.3432617, -13.1097565, -6.8292685, 1.7682927, -0.0810712
0.9013672, -0.2851562, -0.3457031, -12.7439032, -7.5, 1.8902439, -0.0877852
0.9082031, -0.2827148, -0.3515625, -12.8658543, -7.3780489, 1.7682927, -0.0904707
0.9121094, -0.2851562, -0.3618164, -13.4756098, -7.1951222, 1.5243902, -0.0864424
0.9130859, -0.2851562, -0.3623047, -14.1463413, -7.1951222, 1.5243902, -0.051194
0.9130859, -0.2871094, -0.3608398, -15, -6.890244, 2.3170731, -0.0008392
0.9169922, -0.2875977, -0.3491211, -14.6951227, -6.7682929, 2.2560976, 0.0488441
0.9208984, -0.2861328, -0.3457031, -14.4512196, -6.5853658, 2.2560976, 0.0746929
0.921875, -0.2875977, -0.3393555, -14.0243902, -6.4634147, 1.9512196, 0.0743572
0.9101562, -0.2905273, -0.347168, -14.0243902, -6.280488, 1.4634147, 0.0589151
0.9072266, -0.293457, -0.3520508, -14.3902445, -6.1585369, 1.402439, 0.036759
0.8999023, -0.3041992, -0.355957, -15.060976, -6.6463418, 2.0121951, 0.0109102
0.9038086, -0.3076172, -0.3510742, -15.4878054, -6.5853658, 2.5, -0.0015106
0.9077148, -0.3071289, -0.3481445, -15.3048782, -6.6463418, 2.5, -0.0068818
0.9130859, -0.3085938, -0.3442383, -14.6951227, -6.280488, 1.9512196, -0.0095674
0.9116211, -0.3100586, -0.3432617, -14.5731707, -6.1585369, 1.8902439, -0.0323949
0.90625, -0.3066406, -0.34375, -13.841464, -6.0365853, 2.0731707, -0.0548867
0.9072266, -0.3041992, -0.3427734, -13.841464, -5.7317076, 1.7682927, -0.068986
0.9125977, -0.2939453, -0.3427734, -13.5975609, -5.7926831, 2.3170731, -0.0800641
0.9125977, -0.2875977, -0.3442383, -13.841464, -5.9756098, 2.0731707, -0.0773785
0.918457, -0.2832031, -0.3500977, -14.5121956, -6.0975609, 1.6463414, -0.0654612
0.9228516, -0.2817383, -0.3569336, -15.1829271, -6.1585369, 1.6463414, -0.0424659
0.9125977, -0.284668, -0.3520508, -16.4634151, -6.3414636, 1.3414634, -0.0246738
0.9125977, -0.2958984, -0.3481445, -17.439024, -6.4024391, 1.402439, -0.0099031
0.9160156, -0.3027344, -0.3461914, -17.8048782, -6.4634147, 1.6463414, 0.0070497
0.9169922, -0.3076172, -0.3442383, -17.8048782, -6.890244, 1.3414634, 0.017792
0.9125977, -0.3110352, -0.3427734, -17.6829281, -6.4634147, 1.4634147, 0.0253452
0.9018555, -0.3095703, -0.3413086, -17.3780499, -6.4634147, 1.402439, 0.0250095
0.9013672, -0.3071289, -0.3398438, -17.2560978, -6.4024391, 1.1585366, 0.0290379
0.8999023, -0.3041992, -0.3344727, -16.7682934, -7.1341467, 1.2804878, 0.0287022
0.9008789, -0.2983398, -0.3369141, -16.8902435, -7.0731707, 1.3414634, 0.0246738
0.9091797, -0.2900391, -0.3369141, -16.4024391, -7.4390244, 1.5243902, 0.0258488
0.9140625, -0.2885742, -0.3383789, -16.4634151, -7.5609756, 1.7073171, 0.0199741
0.9169922, -0.2856445, -0.3359375, -16.5853653, -7.5, 1.5853659, 0.0129244
0.9155273, -0.2939453, -0.3349609, -16.2195129, -7.2560978, 0.7926829, 0.0083925
0.918457, -0.2963867, -0.3310547, -16.1585369, -7.5609756, 0.6097561, 0.0028534
0.9140625, -0.3061523, -0.3305664, -15.9756098, -7.7439027, 0.9146342, 0.0018463
0.9086914, -0.3110352, -0.328125, -15.5487804, -7.5, 1.2804878, 0.0031891
0.90625, -0.3144531, -0.3364258, -14.8780489, -7.5609756, 1.4634147, 0.0035248
0.9052734, -0.3110352, -0.3447266, -14.6341467, -7.5, 1.2804878, -0.0087282
0.8945312, -0.2988281, -0.3544922, -14.5121956, -7.5609756, 1.8292683, -0.0135958
0.8959961, -0.2915039, -0.3574219, -14.6951227, -7.5609756, 2.2560976, -0.0092317
0.9038086, -0.2856445, -0.3579102, -14.6951227, -8.1707315, 2.6219513, -0.0102388
0.9067383, -0.28125, -0.3613281, -14.5731707, -8.6585369, 2.804878, -0.011078
0.9194336, -0.2841797, -0.3515625, -15, -8.841464, 2.2560976, -0.0229953
0.9204102, -0.2924805, -0.3510742, -15.1829271, -8.2926826, 1.8902439, -0.0391089
0.9194336, -0.2963867, -0.3432617, -15, -8.2317076, 1.9512196, -0.0560616
0.9179688, -0.3046875, -0.3432617, -15, -7.9268293, 2.3780489, -0.0582437
0.9223633, -0.3100586, -0.34375, -14.7560978, -7.8658538, 2.3170731, -0.0552224
0.9189453, -0.3125, -0.3442383, -14.1463413, -8.2317076, 2.7439024, -0.0520333
0.9174805, -0.3085938, -0.3500977, -14.0243902, -8.0487804, 2.5, -0.0461585
0.9130859, -0.3139648, -0.3569336, -13.4146347, -8.4756098, 2.5609756, -0.0471656
0.9121094, -0.3139648, -0.355957, -13.5365858, -8.719512, 2.3780489, -0.047837
0.9116211, -0.3154297, -0.3579102, -13.5975609, -8.780488, 2.0731707, -0.0461585
0.9067383, -0.3154297, -0.3569336, -13.4146347, -8.719512, 2.0731707, -0.0411231
0.902832, -0.3134766, -0.3466797, -13.2926836, -8.5975609, 2.3170731, -0.0357519
0.9067383, -0.3076172, -0.3408203, -12.9268293, -8.6585369, 2.7439024, -0.0330663
0.9052734, -0.3046875, -0.3417969, -12.6829271, -8.9024391, 2.804878, -0.0151064
0.9082031, -0.3017578, -0.3427734, -12.3170738, -9.2682924, 2.6219513, -0.0015106
0.9033203, -0.300293, -0.3452148, -12.4390249, -9.2073174, 2.5, 0.0105745
0.9101562, -0.2988281, -0.3535156, -12.8048782, -10, 2.5, 0.0213169
0.9057617, -0.3012695, -0.3544922, -12.8658543, -10.1829271, 2.195122, 0.033402
0.9082031, -0.3012695, -0.3554688, -13.2317076, -10.3658543, 2.2560976, 0.0347448
0.9101562, -0.3051758, -0.3588867, -13.5975609, -10.6097565, 2.4390244, 0.033402
0.9116211, -0.3071289, -0.3500977, -13.4756098, -10.7926836, 2.3170731, 0.0280308
0.9091797, -0.3100586, -0.3510742, -13.5975609, -10.7926836, 2.0121951, 0.0240024
0.9033203, -0.3129883, -0.3447266, -13.6585369, -11.0975609, 2.0731707, 0.0146029
0.8955078, -0.3173828, -0.34375, -13.780488, -11.5853662, 1.8902439, 0.0045319
0.8994141, -0.3203125, -0.347168, -13.5975609, -11.7682934, 1.8902439, -0.0028534
0.9038086, -0.3232422, -0.347168, -13.2317076, -12.6829271, 1.7073171, -0.0135958
0.9052734, -0.3232422, -0.3486328, -12.8658543, -12.8048782, 1.6463414, -0.0209812
0.9052734, -0.3139648, -0.3554688, -12.2560978, -13.1707315, 1.9512196, -0.0273594
0.9091797, -0.3100586, -0.362793, -11.7682934, -13.4756098, 1.7682927, -0.0323949
0.9213867, -0.3051758, -0.3759766, -11.7073174, -13.9024391, 1.2195122, -0.0337377
0.9248047, -0.3017578, -0.3798828, -11.8292685, -13.9024391, 0.7926829, -0.0384375
0.9223633, -0.3012695, -0.3818359, -12.6219511, -13.9634151, 0.6707317, -0.0360876
0.9208984, -0.3046875, -0.378418, -12.9878054, -14.2073174, 0.3658537, -0.0357519
0.9169922, -0.3056641, -0.3701172, -13.9024391, -14.3292685, 0.3658537, -0.0310521
0.9165039, -0.3095703, -0.3652344, -13.9634151, -15.4268293, 0.1829268, -0.0290379
0.9125977, -0.3115234, -0.3603516, -13.9634151, -15.8536587, -0.3048781, -0.0344091
0.9125977, -0.3129883, -0.3544922, -13.841464, -17.1341476, -0.3658537, -0.0359197
0.9150391, -0.3129883, -0.3564453, -13.5365858, -17.7439022, -0.6097561, -0.0406195
0.9179688, -0.3037109, -0.3666992, -14.3902445, -18.8414631, -0.7317073, -0.0397803
0.9223633, -0.2983398, -0.3759766, -14.7560978, -19.4512196, -0.7317073, -0.0448157
0.9282227, -0.2958984, -0.3896484, -16.1585369, -20.3048782, -0.9756098, -0.0438087
0.925293, -0.296875, -0.3959961, -17.3170738, -20.9756107, -1.1585366, -0.04448
0.925293, -0.309082, -0.3935547, -19.1463413, -21.0365868, -1.1585366, -0.0417945
0.9243164, -0.3095703, -0.3842773, -19.2682934, -21.4634151, -1.2804878, -0.0357519
0.9296875, -0.3203125, -0.371582, -19.3902435, -22.6219521, -1.097561, -0.0347448
0.9257812, -0.3242188, -0.3662109, -18.6585369, -23.4756107, -1.097561, -0.033402
0.9238281, -0.3242188, -0.3666992, -18.4146347, -24.1463413, -1.2804878, -0.0250095
0.9106445, -0.3266602, -0.3818359, -19.0243912, -24.9390259, -1.7073171, -0.0206455
0.9057617, -0.3261719, -0.3920898, -19.5121956, -25.2439022, -1.6463414, -0.0263523
0.8964844, -0.3295898, -0.4023438, -20.2439022, -26.280489, -1.1585366, -0.0218204
0.887207, -0.3256836, -0.3999023, -20.5487804, -26.9512196, -0.7317073, -0.0216526
0.8896484, -0.3168945, -0.4013672, -19.8780499, -28.1707325, -0.2439024, -0.0276951
0.8920898, -0.3144531, -0.4057617, -19.1463413, -28.9024391, -0.1829268, -0.0273594
0.8974609, -0.3100586, -0.4243164, -18.0487804, -29.8170738, -0.3048781, -0.0240024
0.9018555, -0.3115234, -0.4404297, -17.9268303, -30.2439022, -0.1219512, -0.01561
0.9067383, -0.3139648, -0.4658203, -18.1707325, -30.4878063, 0.1829268, -0.0152743
0.90625, -0.3154297, -0.4804688, -18.9634151, -30.1829281, 0.9146342, -0.0109102
0.90625, -0.3164062, -0.4848633, -19.5121956, -30.4268303, 1.4634147, -0.0082246
0.9116211, -0.3129883, -0.4838867, -19.5731716, -30.2439022, 2.195122, -0.0072175
0.9086914, -0.3134766, -0.480957, -19.6951218, -30.060976, 2.6219513, -0.0095674
0.9057617, -0.3061523, -0.4804688, -19.939024, -30.060976, 3.3536587, -0.0085603
0.9072266, -0.2983398, -0.4829102, -20, -30.060976, 3.9634147, -0.0125887
0.9106445, -0.2866211, -0.4892578, -20.5487804, -30.5487804, 4.7560978, -0.0149386
0.9121094, -0.2792969, -0.4887695, -21.0975609, -31.1585369, 5.1829271, -0.01561
0.9145508, -0.2807617, -0.4853516, -22.560976, -32.5, 5.7926831, -0.0149386
0.9204102, -0.277832, -0.4868164, -23.7195129, -33.2317085, 6.0975609, -0.01561
0.9213867, -0.2802734, -0.4833984, -25.4878063, -34.2073174, 6.8292685, -0.0169528
0.9248047, -0.2958984, -0.4863281, -27.5, -35.3658562, 7.2560978, -0.0125887
0.9282227, -0.3007812, -0.4897461, -27.8658543, -35.7926826, 7.9268293, -0.0129244
0.9267578, -0.3110352, -0.4628906, -28.1097565, -36.7073174, 8.4756098, -0.01561
0.9296875, -0.3178711, -0.4589844, -28.7195129, -38.0487823, 9.1463413, -0.0307164
0.9384766, -0.3339844, -0.4682617, -30.7926846, -40.7317085, 9.1463413, -0.0377661
0.940918, -0.3466797, -0.4697266, -31.6463413, -41.8902435, 8.5975609, -0.0350805
0.9174805, -0.3759766, -0.4702148, -32.7439041, -43.1097565, 7.6829271, -0.0352483
0.9013672, -0.3876953, -0.4731445, -32.2560997, -43.7195129, 8.1707315, -0.0377661
0.8955078, -0.4033203, -0.4770508, -30.8536587, -45.4268303, 9.8780489, -0.0426337
0.8950195, -0.4008789, -0.4780273, -29.5121956, -46.5243912, 10.7926836, -0.0471656
0.9018555, -0.3886719, -0.4960938, -27.6829281, -47.8048782, 11.1585369, -0.0458228
0.9013672, -0.3710938, -0.5302734, -27.0121956, -49.4512215, 10.3048782, -0.0399481
0.8994141, -0.3666992, -0.5473633, -27.6219521, -50.1219521, 10.060976, -0.0397803
0.9018555, -0.371582, -0.5620117, -28.9634151, -51.341465, 10.2439022, -0.0290379
0.9013672, -0.3779297, -0.5620117, -29.3292694, -52.0731735, 10.9146347, -0.030045
0.9101562, -0.3764648, -0.543457, -29.1463413, -52.4390259, 12.1951218, -0.0344091
0.9101562, -0.3701172, -0.5336914, -28.780489, -52.1341476, 12.8658543, -0.0310521
0.9130859, -0.3530273, -0.5209961, -27.8048782, -52.0121956, 14.0853662, -0.0397803
0.9086914, -0.3374023, -0.5200195, -27.6219521, -51.8292694, 14.5121956, -0.051194
0.8974609, -0.3056641, -0.5332031, -28.4146347, -52.1341476, 15.1219511, -0.0627756
0.8916016, -0.2802734, -0.5737305, -29.2073174, -53.2317085, 15.5487804, -0.0585794
0.8959961, -0.2817383, -0.5966797, -32.0121956, -55.18293, 16.0975609, -0.0433051
0.9057617, -0.293457, -0.6171875, -35.3658562, -57.1951218, 16.4024391, -0.0303807
0.9121094, -0.3100586, -0.6293945, -36.8902435, -57.68293, 16.5243912, -0.0112459
0.9213867, -0.347168, -0.6264648, -39.0243912, -58.2926826, 16.6463413, 0.0020142
0.9248047, -0.3588867, -0.6181641, -39.4512215, -58.2926826, 16.7073174, 0.0090639
0.9130859, -0.3876953, -0.5952148, -39.5121956, -58.0487823, 17.8048782, 0.0065461
0.8964844, -0.3989258, -0.5708008, -38.1707344, -58.4146347, 18.4756107, -0.0124208
0.8852539, -0.3974609, -0.5761719, -35.1219521, -59.6341476, 20.4268303, -0.0354162
0.8881836, -0.390625, -0.5820312, -34.0243912, -59.7560997, 20.8536587, -0.0642863
0.8867188, -0.3662109, -0.5976562, -33.7804871, -60.4878044, 20.6707325, -0.0881209
0.8818359, -0.3417969, -0.6157227, -34.0853653, -60.4268303, 20.7926826, -0.1015488
0.8808594, -0.3364258, -0.6274414, -35.4878044, -61.6463432, 20.5487804, -0.0908064
0.8837891, -0.3388672, -0.65625, -37.9878044, -63.7804909, 21.4024391, -0.0412909
0.887207, -0.3442383, -0.6616211, -39.3292694, -65, 22.0121956, 0.0186313
0.90625, -0.3515625, -0.6635742, -41.7073174, -67.0731735, 22.9268303, 0.0562295
0.9101562, -0.3505859, -0.668457, -42.7439041, -67.1951218, 23.2926826, 0.0730144
0.9057617, -0.3422852, -0.6694336, -43.9634171, -67.3170776, 24.0853672, 0.0726787
0.9091797, -0.3364258, -0.6728516, -44.3902435, -67.4390259, 24.2073174, 0.0629435
0.9072266, -0.324707, -0.6972656, -45.3658562, -68.1097565, 25.3048782, 0.0501869
0.9091797, -0.3266602, -0.7041016, -46.4634171, -69.1463394, 25.6097565, 0.0370947
0.9160156, -0.3383789, -0.715332, -48.5365868, -71.2195129, 25.6707325, 0.0313878
0.9174805, -0.3706055, -0.7001953, -49.6951218, -72.5, 25.9756107, 0.0246738
0.9228516, -0.3857422, -0.684082, -52.2560997, -73.7195129, 26.0365868, 0.0140993
0.9179688, -0.4150391, -0.640625, -53.1097565, -74.2073212, 25.9146347, 0.0045319
0.9082031, -0.4272461, -0.6201172, -52.8658562, -74.2073212, 26.280489, -0.0043641
0.8837891, -0.425293, -0.5874023, -50.4878044, -75.7317123, 26.3414631, -0.0169528
0.8710938, -0.4223633, -0.5795898, -48.9024391, -77.1341476, 26.2195129, -0.0206455
0.8525391, -0.4130859, -0.5844727, -45.8536606, -81.0975647, 26.4634151, -0.0243381
0.8491211, -0.4077148, -0.6000977, -44.8170738, -83.4146347, 26.3414631, -0.0256809
0.8496094, -0.4057617, -0.6337891, -44.2073174, -88.4756088, 26.2195129, -0.0250095
0.847168, -0.409668, -0.6533203, -44.0243912, -90.5487823, 25.7317085, -0.0243381
0.8642578, -0.4238281, -0.6611328, -44.8170738, -94.3902435, 25.5487804, -0.0231632
0.8730469, -0.4316406, -0.6650391, -45.3658562, -95.9756088, 25.5487804, -0.0270237
0.8837891, -0.4291992, -0.6650391, -44.1463432, -99.146347, 25.3048782, -0.03122
0.8881836, -0.4189453, -0.6879883, -42.0121956, -100.9756088, 25.060976, -0.0270237
0.8837891, -0.4116211, -0.6967773, -41.1585388, -102.0731735, 24.8780499, -0.0271916
0.8823242, -0.3925781, -0.7246094, -39.9390259, -104.3292694, 25.1829281, -0.0303807
0.8779297, -0.3847656, -0.7363281, -40, -105.5487823, 25.4878063, -0.0280308
0.8789062, -0.3686523, -0.7548828, -40.4878044, -108.1707306, 26.1585369, -0.0327306
0.8808594, -0.3623047, -0.7578125, -41.2804871, -109.6341476, 26.4024391, -0.0340734
0.8798828, -0.3569336, -0.7612305, -42.6829262, -111.7073212, 26.5243912, -0.0381018
0.8813477, -0.3564453, -0.7607422, -43.4146347, -112.7439041, 26.3414631, -0.0377661
0.8754883, -0.3642578, -0.7646484, -44.7560997, -114.7561035, 26.3414631, -0.0411231
0.8671875, -0.3745117, -0.7749023, -45.5487823, -116.5853653, 27.1341476, -0.0344091
0.8676758, -0.3779297, -0.7832031, -45.6707344, -117.7439041, 27.4390259, -0.0305486
0.8652344, -0.3813477, -0.8066406, -45, -119.4512253, 28.1707325, -0.0253452
0.8647461, -0.3774414, -0.8208008, -44.5121956, -120.2439041, 28.780489, -0.0256809
0.8764648, -0.3735352, -0.8413086, -43.6585388, -121.4634171, 29.9390259, -0.0246738
0.8798828, -0.3691406, -0.847168, -43.841465, -122.0731735, 30.1829281, -0.0236667
0.8959961, -0.3564453, -0.8530273, -43.841465, -122.1951218, 31.0365868, -0.0223239
0.8974609, -0.3481445, -0.8525391, -44.0243912, -122.2561035, 31.6463413, -0.0290379
0.9003906, -0.3330078, -0.8569336, -45.4268303, -122.0731735, 32.0121956, -0.0377661
0.8984375, -0.3242188, -0.8588867, -45.9756126, -122.3780518, 32.0731697, -0.0485084
0.8857422, -0.309082, -0.8696289, -48.0487823, -122.9878082, 32.3170738, -0.0528725
0.8798828, -0.3076172, -0.8969727, -50.6097565, -124.8780518, 32.6829262, -0.0538796
0.8735352, -0.3105469, -0.9047852, -52.1951218, -125.9756165, 32.8048782, -0.0669718
0.8681641, -0.3393555, -0.9121094, -55.2439041, -127.7439041, 33.3536606, -0.072343
0.8671875, -0.3588867, -0.9077148, -56.8292694, -128.5975647, 33.5975609, -0.0639506
0.8686523, -0.3925781, -0.8886719, -58.9024391, -129.6341553, 33.841465, -0.0565652
0.8632812, -0.40625, -0.8789062, -59.3292694, -130.0609741, 33.841465, -0.0379339
0.8642578, -0.4287109, -0.8666992, -58.4756126, -130.7926788, 33.7195129, -0.0203098
0.8618164, -0.4370117, -0.8671875, -57.6219521, -131.0975647, 33.5975609, -0.0132601
0.8500977, -0.4418945, -0.8764648, -55.3048782, -132.2561035, 33.2317085, -0.0035248
0.8452148, -0.4423828, -0.8818359, -54.8170738, -133.0487823, 33.2317085, 0.0011749
0.8466797, -0.4350586, -0.8920898, -53.2926826, -134.3292694, 32.9878044, -0.0005035
0.8413086, -0.4174805, -0.8969727, -52.9268303, -135.36586, 32.9878044, -0.0036927
0.8466797, -0.4111328, -0.8989258, -52.8048782, -136.0365906, 33.1097565, -0.0003357
0.8491211, -0.3930664, -0.902832, -52.4390259, -137.2561035, 32.9878044, 0.0041962
0.8481445, -0.3818359, -0.909668, -52.8048782, -137.9878082, 32.9268303, -0.0003357
0.8457031, -0.3754883, -0.9257812, -53.3536606, -140.1219482, 32.0731697, -0.0006714
0.8417969, -0.3779297, -0.9370117, -53.9634171, -141.0365906, 31.7073174, 0.0005035
0.8369141, -0.3823242, -0.9667969, -55.7926826, -142.5, 32.0121956, -0.0015106
0.8364258, -0.3862305, -0.9858398, -56.4634171, -142.6829376, 32.5609779, 0.0018463
0.8364258, -0.3886719, -0.9990234, -57.1951218, -143.6585388, 33.1707306, -0.005539
0.8408203, -0.3852539, -0.9970703, -57.1951218, -144.146347, 33.2926826, -0.0176242
0.8505859, -0.3764648, -0.9848633, -56.7073174, -144.8780518, 33.5365868, -0.0223239
0.8647461, -0.3813477, -0.9614258, -56.5243912, -146.0365906, 32.1341476, -0.023331
0.8632812, -0.3867188, -0.9521484, -56.4634171, -146.3414612, 31.8902454, -0.0226596
0.855957, -0.3999023, -0.9321289, -57.5, -148.1097565, 31.0975609, -0.018967
0.8476562, -0.4077148, -0.9291992, -57.9878044, -149.3902435, 30.8536587, -0.0176242
0.8212891, -0.4111328, -0.9272461, -58.2926826, -151.4024353, 30.2439022, -0.0196384
0.8041992, -0.40625, -0.9331055, -57.8658562, -152.5609741, 30.060976, -0.0240024
0.7851562, -0.4018555, -0.9545898, -55.8536606, -154.9390259, 29.8780499, -0.0297093
0.7758789, -0.3930664, -0.9736328, -54.6341476, -155.8536682, 29.8780499, -0.0260166
0.7695312, -0.3725586, -1.0083008, -52.6829262, -158.1097565, 30.1219521, -0.0209812
0.7714844, -0.3642578, -1.0214844, -52.3170738, -159.2682953, 30.2439022, -0.0229953
0.7871094, -0.3525391, -1.034668, -52.8658562, -160.2439117, 30.7926846, -0.0149386
0.8061523, -0.3505859, -1.0244141, -54.0853653, -160.3048859, 31.341465, -0.008896
0.8164062, -0.3447266, -1.0273438, -55, -160.2439117, 31.4024391, -0.0109102
0.8222656, -0.3491211, -1.0424805, -55.6097565, -159.8780518, 31.0975609, -0.0223239
0.8198242, -0.3520508, -1.0585938, -55.6097565, -160.0609741, 31.0365868, -0.0276951
0.8061523, -0.3671875, -1.0864258, -55.4878044, -160.0609741, 31.4634151, -0.0320592
0.8022461, -0.3823242, -1.0844727, -55.3658562, -160.7317047, 31.9512196, -0.0337377
0.8012695, -0.4160156, -1.0454102, -54.7560997, -161.2804871, 33.0487823, -0.0320592
0.8037109, -0.4287109, -1.0170898, -54.2073174, -161.5853729, 33.1097565, -0.0238346
0.7983398, -0.4394531, -0.9882812, -51.7073174, -160.1219482, 32.7439041, -0.0169528
0.7822266, -0.434082, -0.9853516, -50, -159.0243988, 32.2560997, -0.0139315
0.737793, -0.3994141, -1.0107422, -46.4024391, -157.8048859, 31.280489, -0.0203098
0.7016602, -0.3549805, -1.0419922, -43.5975609, -159.0243988, 31.0365868, -0.0250095
0.6948242, -0.3310547, -1.0551758, -42.7439041, -160.6097565, 31.1585369, -0.0293736
0.6928711, -0.2900391, -1.0688477, -42.9878044, -162.6219482, 32.1951218, -0.036759
0.6982422, -0.2773438, -1.0771484, -43.9634171, -163.2317047, 32.6829262, -0.0428016
0.7099609, -0.2666016, -1.0869141, -46.7682953, -162.9268341, 34.2073174, -0.0377661
0.7192383, -0.2670898, -1.0922852, -48.1097565, -162.6219482, 34.8780479, -0.0261845
0.7387695, -0.2900391, -1.0991211, -51.8292694, -162.7439117, 36.0365868, -0.0135958
0.7416992, -0.3046875, -1.1020508, -53.5365868, -163.2926941, 36.5243912, -0.0062104
0.7426758, -0.3217773, -1.1220703, -56.8902435, -164.0853729, 36.8902435, -0.0015106
0.7392578, -0.3256836, -1.1420898, -57.5609779, -163.8414612, 37.0731697, 0.002182
0.7285156, -0.3217773, -1.1630859, -59.8780518, -163.2317047, 37.0731697, -0.0001678
0.715332, -0.3027344, -1.1606445, -61.6463432, -162.4390259, 37.7439041, -0.0035248
0.7104492, -0.293457, -1.1430664, -62.1951218, -162.3780518, 38.1097565, -0.0031891
0.7124023, -0.2783203, -1.1108398, -63.0487823, -161.9512177, 38.6585388, -0.0062104
0.7094727, -0.2705078, -1.1015625, -62.9878082, -161.5853729, 38.841465, -0.0068818
0.7060547, -0.2724609, -1.1015625, -64.3292694, -161.5243988, 39.0853653, -0.0119173
0.699707, -0.2856445, -1.1103516, -65.3048782, -161.8902435, 39.1463432, -0.0203098
0.6835938, -0.3339844, -1.1015625, -67.5609741, -164.3292694, 39.3292694, -0.0273594
0.6801758, -0.362793, -1.0791016, -68.2926865, -165.8536682, 39.6951218, -0.0332341
0.6821289, -0.4077148, -1.0415039, -68.5975647, -168.6585388, 39.0243912, -0.0357519
0.6748047, -0.4238281, -1.0439453, -67.7439041, -169.4512177, 38.4756088, -0.0406195
0.6499023, -0.4448242, -1.0825195, -65.0609741, -170.5487823, 37.1341476, -0.0379339
0.6201172, -0.4545898, -1.121582, -61.8292694, -172.0731812, 37.2560997, -0.0347448
0.6162109, -0.4594727, -1.1357422, -59.3902435, -173.5975647, 37.4390259, -0.0307164
0.6318359, -0.4541016, -1.1142578, -54.3292694, -175.3048859, 38.1097565, -0.0256809
0.6508789, -0.4453125, -1.0947266, -51.7073174, -175.0609741, 38.0487823, -0.0253452
0.6674805, -0.4145508, -1.0546875, -46.0365868, -172.5, 36.0975609, -0.0250095
0.6669922, -0.3901367, -1.0483398, -43.841465, -171.2804871, 34.6341476, -0.0246738
0.6416016, -0.3549805, -1.0649414, -41.5853653, -170.0609741, 31.6463413, -0.0223239
0.6196289, -0.340332, -1.0766602, -41.5243912, -170.9146423, 30.4878063, -0.0172885
0.5795898, -0.3217773, -1.1103516, -43.4146347, -174.6341553, 29.9390259, -0.0186313
0.5683594, -0.3183594, -1.121582, -44.8170738, -176.8292694, 29.8780499, -0.0176242
0.5532227, -0.3178711, -1.1342773, -48.5975609, -179.7561035, 30.4268303, -0.0229953
0.5546875, -0.324707, -1.1152344, -51.5243912, -181.5853729, 31.2195129, -0.0236667
0.5546875, -0.331543, -1.1000977, -52.1341476, -182.1951294, 31.341465, -0.0270237
0.5625, -0.3535156, -1.0629883, -51.341465, -182.86586, 31.5853672, -0.0327306
0.5551758, -0.3549805, -1.0625, -50.7926826, -182.9268341, 31.4024391, -0.0370947
0.5366211, -0.34375, -1.1079102, -48.7804871, -182.3170776, 30.4878063, -0.0327306
0.5219727, -0.3359375, -1.1450195, -47.8048782, -181.7073212, 30.3658543, -0.0283665
0.4995117, -0.3120117, -1.199707, -46.0365868, -181.9512177, 30.9756107, -0.0381018
0.5009766, -0.3007812, -1.2011719, -45.8536606, -182.5609741, 31.6463413, -0.0609293
0.527832, -0.2949219, -1.1538086, -47.7439041, -184.146347, 32.5, -0.0679789
0.5366211, -0.3017578, -1.1220703, -48.9634171, -184.2682953, 33.0487823, -0.0716716
0.5410156, -0.3007812, -1.0908203, -50.5487823, -182.3170776, 33.2926826, -0.0632792
0.512207, -0.2895508, -1.1176758, -50.8536606, -179.5121918, 32.5609779, -0.0464942
0.4858398, -0.2802734, -1.137207, -50.4878044, -178.7195129, 32.8048782, -0.0256809
0.449707, -0.2543945, -1.1606445, -48.841465, -178.6585388, 32.6829262, -0.0031891
0.4360352, -0.2480469, -1.1591797, -47.9268303, -179.2682953, 32.9268303, 0.0085603
0.4257812, -0.2617188, -1.1445312, -46.8902435, -180.7317047, 34.2073174, 0.0146029
0.4296875, -0.2734375, -1.1225586, -46.9512215, -181.4634247, 34.9390259, 0.0166171
0.440918, -0.3149414, -1.0649414, -48.4146347, -182.0121918, 36.8292694, 0.0172885
0.4487305, -0.3232422, -1.0336914, -48.7195129, -181.8902435, 37.2560997, 0.0139315
0.4355469, -0.3227539, -1.0131836, -48.5365868, -180.5487823, 36.0975609, 0.0078889
0.4174805, -0.3149414, -1.0366211, -48.3536606, -180, 34.8170738, 0.0038605
0.3598633, -0.2895508, -1.1225586, -48.2317085, -179.2682953, 32.8658562, 0.0038605
0.3125, -0.2583008, -1.1821289, -47.6219521, -180.7926941, 33.6585388, -0.0001678
0.3105469, -0.25, -1.1850586, -47.1951218, -182.4390259, 35.3658562, -0.0068818
0.3491211, -0.2324219, -1.137207, -45.9146347, -184.146347, 37.6829262, -0.0082246
0.3740234, -0.2231445, -1.1040039, -44.8780479, -183.5365906, 38.1097565, -0.0209812
0.3964844, -0.2080078, -1.0556641, -44.8170738, -180, 36.8902435, -0.0421302
0.3950195, -0.2099609, -1.0405273, -45.4268303, -178.0487823, 35.6707344, -0.0471656
0.3623047, -0.2358398, -1.0380859, -48.3536606, -176.9512177, 33.2926826, -0.0451514
0.3442383, -0.2592773, -1.0454102, -50.3658562, -178.2926941, 32.9268303, -0.0491798
0.309082, -0.3139648, -1.0805664, -53.9634171, -182.3780518, 33.0487823, -0.0468299
0.2919922, -0.3325195, -1.1000977, -55.1219521, -183.9634247, 33.2317085, -0.0491798
0.2851562, -0.3701172, -1.0991211, -54.5731735, -185.6097565, 33.6585388, -0.047837
0.2949219, -0.3798828, -1.0405273, -49.8780518, -184.6951294, 33.7804871, -0.0522011
0.2944336, -0.3740234, -0.9951172, -46.1585388, -183.9024506, 33.1097565, -0.0558938
0.2958984, -0.3554688, -0.934082, -37.5, -182.1341553, 30.5487804, -0.051194
0.2832031, -0.3452148, -0.9365234, -33.841465, -181.5853729, 29.0853672, -0.0431373
0.2407227, -0.3037109, -1.0400391, -30.3658543, -181.2195129, 27.1341476, -0.0323949
0.2172852, -0.2792969, -1.1157227, -31.4024391, -181.2195129, 26.9512196, -0.0193027
0.1958008, -0.2250977, -1.2426758, -35.1219521, -183.2926941, 28.2317085, -0.0102388
0.2070312, -0.2001953, -1.2744141, -37.5, -184.2682953, 29.5121956, -0.0137636
0.2514648, -0.1738281, -1.2426758, -40.7926826, -185.7317047, 31.6463413, -0.0313878
0.2880859, -0.1669922, -1.2080078, -41.6463432, -185.3048859, 32.1951218, -0.0458228
0.3398438, -0.1625977, -1.1547852, -43.2317085, -181.0365906, 32.6829262, -0.04448
0.3583984, -0.1425781, -1.1552734, -45.9146347, -174.6341553, 31.5853672, -0.0256809
0.3486328, -0.1303711, -1.1645508, -48.2926826, -172.0121918, 30.6097565, 0.0152743
0.3110352, -0.1088867, -1.1523438, -54.0243912, -169.6951294, 29.1463413, 0.0585794
0.2949219, -0.1132812, -1.1225586, -56.341465, -169.9390259, 28.6585369, 0.0757
0.2573242, -0.1455078, -1.0380859, -60.7926826, -171.9512177, 28.4146347, 0.0743572
0.2402344, -0.1811523, -1.0068359, -62.8658562, -172.9878082, 28.7195129, 0.0619364
0.199707, -0.2480469, -0.9912109, -65.9756088, -174.5121918, 29.3902454, 0.0354162
0.1767578, -0.277832, -1.0014648, -67.0731735, -175, 29.8170738, 0.0092317
0.1401367, -0.3164062, -1.0371094, -67.1341476, -175.4878082, 30.1219521, -0.0041962
0.1303711, -0.3256836, -1.0478516, -65.6707306, -175.6707306, 30, -0.0142672
0.1347656, -0.315918, -1.0317383, -59.9390259, -177.1341553, 28.5365868, -0.0196384
0.1572266, -0.2807617, -0.9868164, -51.7073174, -177.6219482, 25.1829281, -0.0223239
0.1669922, -0.2646484, -0.9619141, -47.7439041, -177.7439117, 23.3536587, -0.0297093
0.1728516, -0.2416992, -0.9467773, -42.6829262, -177.3170776, 20.4878044, -0.0357519
0.1689453, -0.2358398, -0.9633789, -42.0731735, -177.1341553, 19.4512196, -0.0458228
0.1474609, -0.234375, -1.0239258, -44.2073174, -176.9512177, 19.2682934, -0.0424659
0.1342773, -0.2348633, -1.0620117, -46.5243912, -177.3170776, 19.4512196, -0.0433051
0.1259766, -0.2299805, -1.1166992, -49.9390259, -178.2926941, 20.6097565, -0.0377661
0.1245117, -0.2202148, -1.1313477, -49.7560997, -178.9024506, 21.5853672, -0.0345769
0.1420898, -0.1826172, -1.1186523, -46.1585388, -178.5975647, 22.5, -0.0411231
0.1694336, -0.1318359, -1.0649414, -42.9878044, -177.4390259, 22.3170738, -0.0560616
0.1757812, -0.1103516, -1.0332031, -37.8048782, -173.3536682, 21.2195129, -0.0666361
0.1645508, -0.0878906, -0.9873047, -36.9512215, -168.4756165, 19.8170738, -0.0706645
0.1489258, -0.0908203, -0.9921875, -38.4146347, -166.9512177, 19.4512196, -0.0760357
0.0957031, -0.1230469, -1.0297852, -44.6341476, -166.4024353, 20.7926826, -0.0773785
0.0693359, -0.1352539, -1.0566406, -48.0487823, -166.9512177, 22.439024, -0.064622
0.0322266, -0.1484375, -1.1074219, -53.1707344, -169.146347, 25.9146347, -0.0461585
0.0292969, -0.1455078, -1.1142578, -53.4756126, -170.1829376, 27.2560978, -0.0350805
0.0400391, -0.1274414, -1.0839844, -51.5853653, -170.36586, 29.3292694, -0.0240024
0.0527344, -0.1103516, -1.0546875, -49.3902435, -169.3902435, 29.5121956, -0.0142672
0.0712891, -0.0825195, -1.0004883, -46.0365868, -165.6097565, 28.5365868, -0.0048676
0.065918, -0.0605469, -0.9980469, -45.8536606, -163.0487823, 27.8048782, 0.0057069
0.0571289, -0.0566406, -1.0063477, -48.7804871, -159.5731812, 26.8292694, 0.0092317
0.0317383, -0.0698242, -0.9985352, -55.3658562, -159.4512177, 27.5, 0.0082246
0.0205078, -0.081543, -0.9716797, -58.4146347, -160.3048859, 28.1707325, 0.011078
-0.0014648, -0.1171875, -0.9199219, -62.4390259, -162.1341553, 28.1707325, 0.0085603
-0.0087891, -0.1303711, -0.9179688, -63.4146347, -162.6219482, 28.5975609, 0.0045319
-0.0400391, -0.1318359, -0.9609375, -63.9024391, -162.1341553, 29.0243912, 0.0010071
-0.0556641, -0.1225586, -0.9868164, -63.9634171, -161.2195129, 29.2073174, -0.0048676
-0.0673828, -0.1054688, -0.9975586, -63.2317085, -159.2682953, 28.780489, -0.0151064
-0.0683594, -0.0986328, -0.965332, -62.8048782, -159.0853729, 28.4146347, -0.017792
-0.0532227, -0.1035156, -0.8847656, -61.9512215, -160.0609741, 27.0731716, -0.021149
-0.0532227, -0.1235352, -0.8637695, -62.5609779, -161.0975647, 25.8536587, -0.0243381
-0.0605469, -0.1357422, -0.894043, -63.3536606, -161.2804871, 25.4878063, -0.0273594
-0.0776367, -0.1518555, -0.9921875, -65.1219559, -161.1585388, 26.280489, -0.0290379
-0.0854492, -0.1591797, -1.0356445, -65.0609741, -161.0365906, 27.3170738, -0.0209812
-0.0727539, -0.1645508, -1.0332031, -62.9878082, -160.3048859, 28.3536587, -0.0169528
-0.0532227, -0.1728516, -0.9848633, -60.6707344, -159.2073212, 28.4756107, -0.0068818
-0.0117188, -0.1738281, -0.8374023, -55.2439041, -155.5487823, 26.3414631, 0.0003357
-0.0058594, -0.175293, -0.777832, -52.9878044, -152.9268341, 24.5731716, -0.008896
-0.0419922, -0.1772461, -0.7441406, -50.4878044, -147.5, 20.6707325, -0.0129244
-0.0766602, -0.1723633, -0.7827148, -51.0975609, -145.4878082, 19.5121956, -0.0176242
-0.1708984, -0.1494141, -0.9165039, -52.6829262, -146.0975647, 19.3292694, -0.0223239
-0.2246094, -0.1279297, -1.0068359, -53.2926826, -150.5487823, 21.8902435, -0.0253452
-0.2231445, -0.1206055, -1.0087891, -52.1341476, -152.8048859, 23.2926826, -0.0223239
-0.1660156, -0.1132812, -0.9414062, -49.2682953, -154.4512177, 24.6951218, -0.0191348
-0.144043, -0.1103516, -0.8920898, -47.6219521, -152.9878082, 24.2073174, -0.0176242
-0.1113281, -0.0986328, -0.8369141, -45.9146347, -148.1707306, 22.3780499, -0.0137636
-0.1098633, -0.0961914, -0.847168, -46.2195129, -145.3048859, 22.1341476, -0.0112459
-0.1411133, -0.081543, -0.9174805, -49.0853653, -141.5243988, 21.7682934, -0.0062104
-0.1630859, -0.0795898, -0.953125, -51.5853653, -140.4268341, 22.5, -0.0082246
-0.1689453, -0.0683594, -0.9589844, -55.2439041, -139.9390259, 25.060976, -0.0226596
-0.1650391, -0.0629883, -0.9370117, -55.9146347, -139.7561035, 26.2195129, -0.0399481
-0.1376953, -0.0488281, -0.8862305, -56.0365868, -137.5609741, 27.6219521, -0.0552224
-0.1342773, -0.0444336, -0.8510742, -55.2439041, -132.7439117, 26.7073174, -0.0621042
-0.1386719, -0.0488281, -0.8334961, -55.6097565, -130.1829224, 26.2195129, -0.0592508
-0.1660156, -0.0771484, -0.7988281, -57.1951218, -125.3048782, 26.280489, -0.0471656
-0.1860352, -0.1083984, -0.7705078, -58.2317085, -123.6585388, 26.8902454, -0.030045
-0.2202148, -0.1489258, -0.7250977, -58.9024391, -123.0487823, 28.2317085, -0.0109102
-0.2338867, -0.1611328, -0.7163086, -57.9878044, -123.2926865, 29.2682934, 0.0048676
-0.2724609, -0.1577148, -0.7348633, -54.8170738, -123.4756088, 30.3048782, 0.0223239
-0.2792969, -0.1376953, -0.7568359, -52.9268303, -123.1097565, 30.1829281, 0.0347448
-0.2949219, -0.0991211, -0.7963867, -48.7804871, -121.0975647, 30.3658543, 0.033402
-0.2919922, -0.0795898, -0.7988281, -47.9268303, -120.36586, 29.8780499, 0.0330663
-0.2783203, -0.0708008, -0.7573242, -46.6463432, -118.5365906, 28.5365868, 0.0256809
-0.2675781, -0.0908203, -0.7006836, -48.4146347, -117.5609818, 27.2560978, 0.0199741
-0.269043, -0.112793, -0.6806641, -49.5121956, -117.0121994, 27.0121956, 0.0166171
-0.2797852, -0.1469727, -0.6850586, -51.7073174, -114.6341476, 27.6219521, 0.0105745
-0.2866211, -0.1474609, -0.7119141, -51.8292694, -113.7195129, 28.5365868, -0.0082246
-0.3027344, -0.0932617, -0.762207, -49.0853653, -111.7073212, 28.780489, -0.0146029
-0.3100586, -0.0498047, -0.7724609, -46.7682953, -110.4878082, 27.7439022, -0.0149386
-0.3193359, 0.0058594, -0.7226562, -41.9512215, -107.9878082, 24.9390259, -0.0196384
-0.3154297, 0.0092773, -0.6694336, -40.7926826, -106.7682953, 23.8414631, -0.0186313
-0.3208008, -0.0283203, -0.5732422, -42.1341476, -103.8414688, 23.8414631, -0.018967
-0.3334961, -0.0585938, -0.5488281, -44.6341476, -102.68293, 24.0853672, -0.0157778
-0.3701172, -0.1176758, -0.5410156, -50.1829262, -102.2561035, 24.9390259, -0.0176242
-0.4130859, -0.1523438, -0.5849609, -52.0731735, -105.6097565, 25.7317085, -0.0179599
-0.4194336, -0.1494141, -0.6259766, -51.2804909, -108.0487823, 25.7317085, -0.023331
-0.4155273, -0.1079102, -0.7021484, -47.1951218, -110.7926865, 24.4512196, -0.0313878
-0.4091797, -0.0825195, -0.7119141, -45.0609779, -110.7317123, 23.4146347, -0.03122
-0.3818359, -0.0600586, -0.652832, -42.0121956, -108.2926865, 22.0121956, -0.0347448
-0.3618164, -0.0625, -0.59375, -40.9756088, -106.646347, 21.4024391, -0.0394446
-0.3500977, -0.0888672, -0.4912109, -40.6707344, -102.3780518, 20, -0.0458228
-0.3666992, -0.1069336, -0.4638672, -41.2195129, -100.8536606, 19.0853672, -0.0558938
-0.4208984, -0.1269531, -0.4609375, -41.4634171, -100.3048782, 18.2317085, -0.0609293
-0.4501953, -0.1176758, -0.4853516, -40.3048782, -101.3414688, 18.6585369, -0.0565652
-0.4897461, -0.0678711, -0.5639648, -38.841465, -104.4512253, 18.5975609, -0.0471656
-0.5014648, -0.0141602, -0.6357422, -38.2926826, -106.0365906, 17.6219521, -0.0357519
-0.4995117, -0.0058594, -0.6401367, -38.9634171, -106.4024429, 17.3780499, -0.0310521
-0.4731445, -0.0385742, -0.5717773, -40, -107.3780518, 17.9268303, -0.01561
-0.4501953, -0.0615234, -0.5239258, -40.3048782, -107.1951218, 18.2926826, -0.0025177
-0.4257812, -0.1103516, -0.4580078, -39.5121956, -105.7317123, 17.8048782, 0.0005035
-0.4375, -0.1274414, -0.4545898, -38.5975609, -104.3292694, 17.1951218, 0.0008392
-0.4643555, -0.1289062, -0.4775391, -35.4268303, -102.7439041, 16.9512196, -0.0124208
-0.4785156, -0.1166992, -0.4921875, -33.3536606, -102.4390259, 17.0731716, -0.0320592
-0.4936523, -0.0766602, -0.5400391, -30.3048782, -101.8292694, 16.7073174, -0.0417945
-0.4970703, -0.0527344, -0.5678711, -29.6341476, -100.9146347, 16.0365849, -0.057908
-0.503418, -0.0263672, -0.5708008, -30.9146347, -98.7195129, 14.3292685, -0.0713359
-0.5068359, -0.0585938, -0.512207, -32.6829262, -97.68293, 13.780488, -0.0760357
-0.5063477, -0.0839844, -0.4799805, -32.3170738, -97.3170776, 13.780488, -0.0894636
-0.5024414, -0.1293945, -0.4487305, -30.5487804, -96.8902435, 13.9634151, -0.0971847
-0.5068359, -0.1381836, -0.440918, -29.0853672, -96.2195129, 14.0853662, -0.0861067
-0.5219727, -0.1259766, -0.4404297, -25.5487804, -93.8414688, 13.1097565, -0.0525368
-0.5292969, -0.1069336, -0.4423828, -23.780489, -91.9512253, 12.560976, -0.0041962
-0.5610352, -0.0717773, -0.4501953, -21.1585369, -90.3658524, 11.4634151, 0.0287022
-0.5708008, -0.0673828, -0.4560547, -20.6097565, -89.9390259, 11.5853662, 0.0394446
-0.5795898, -0.0854492, -0.4541016, -19.4512196, -90, 12.8048782, 0.033402
-0.5727539, -0.0913086, -0.4404297, -18.6585369, -90, 13.1097565, 0.0132601
-0.5551758, -0.0849609, -0.4243164, -16.5243912, -87.3780518, 12.9268293, 0.0008392
-0.5595703, -0.0327148, -0.4399414, -16.1585369, -81.4634171, 10.6707315, -0.0186313
-0.5664062, -0.0053711, -0.4594727, -16.5853653, -78.4756088, 9.7560978, -0.0340734
-0.605957, 0.0200195, -0.487793, -18.2926826, -75.4268341, 8.4146347, -0.0464942
-0.6118164, 0.0102539, -0.4907227, -19.4512196, -75.2439041, 9.0243902, -0.0542153
-0.590332, -0.019043, -0.4799805, -20.3658543, -75.5487823, 10.6097565, -0.0552224
-0.5756836, -0.027832, -0.4746094, -20.5487804, -73.9634171, 11.1585369, -0.0552224
-0.559082, -0.0361328, -0.4570312, -20, -68.0487823, 10.6707315, -0.0488441
-0.5493164, -0.034668, -0.4516602, -19.8170738, -64.6341476, 10.1829271, -0.0387732
-0.5639648, -0.0473633, -0.4331055, -19.3292694, -58.4756126, 8.9024391, -0.0297093
-0.5712891, -0.0581055, -0.4135742, -18.8414631, -56.5243912, 8.1707315, -0.0256809
-0.5834961, -0.0854492, -0.3647461, -17.0731716, -53.1707344, 8.1097565, -0.030045
-0.5961914, -0.0917969, -0.3212891, -13.841464, -49.1463432, 8.2317076, -0.0297093
-0.6064453, -0.0854492, -0.3105469, -12.3170738, -46.1585388, 7.9878049, -0.0305486
-0.6318359, -0.0620117, -0.3007812, -9.5731707, -40.9756088, 6.5853658, -0.0318914
-0.6518555, -0.0522461, -0.3037109, -8.4756098, -39.2682953, 6.2195125, -0.023331
-0.6811523, -0.0361328, -0.3242188, -6.5243902, -38.7804871, 5.609756, -0.0203098
-0.6845703, -0.0332031, -0.3349609, -6.1585369, -39.2682953, 5.7317076, -0.0095674
-0.6704102, -0.0292969, -0.3344727, -5.8536587, -40.0609779, 5.7926831, -0.0058747
-0.6606445, -0.0297852, -0.3198242, -5.5487804, -39.6951218, 5.7926831, 0.0018463
-0.6396484, -0.0351562, -0.2817383, -5.1829271, -36.9512215, 4.390244, 0.0048676
-0.6293945, -0.0375977, -0.2758789, -4.7560978, -34.9390259, 3.9634147, 0.0070497
-0.6274414, -0.027832, -0.296875, -4.6951222, -29.4512196, 4.2073174, 0.0005035
-0.6279297, -0.0170898, -0.3349609, -4.7560978, -25.3658543, 5, -0.0078889
-0.6298828, -0.012207, -0.347168, -4.1463413, -24.6341476, 4.9390244, -0.0132601
-0.6206055, -0.0126953, -0.3642578, -1.4634147, -24.8780499, 4.6341462, -0.0229953
-0.6103516, -0.0126953, -0.3745117, -0.1829268, -24.6341476, 4.8170733, -0.0270237
-0.5874023, -0.0180664, -0.3681641, 1.6463414, -22.0731716, 4.9390244, -0.0283665
-0.5756836, -0.0170898, -0.3520508, 2.6219513, -19.6951218, 5.0609756, -0.0290379
-0.5654297, -0.0112305, -0.2993164, 5.670732, -13.0487804, 4.2073174, -0.0263523
-0.5708008, -0.0058594, -0.2871094, 7.2560978, -9.5121956, 3.6585367, -0.0229953
-0.605957, -0.0083008, -0.2880859, 10, -3.9634147, 2.8658538, -0.0179599
-0.6230469, -0.012207, -0.2978516, 11.0365858, -2.5609756, 2.9878049, -0.0149386
-0.6542969, -0.0175781, -0.3261719, 12.2560978, -1.5243902, 4.390244, -0.0065461
-0.6435547, -0.019043, -0.3496094, 14.0853662, -1.8292683, 5.5487804, -0.0068818
-0.6303711, -0.0180664, -0.3637695, 14.3902445, -1.097561, 5.1219511, -0.0102388
-0.5981445, -0.0161133, -0.3813477, 14.3292685, 2.3170731, 4.0853658, -0.0115816
-0.5859375, -0.0209961, -0.3740234, 14.3292685, 4.4512196, 3.4146342, -0.0162814
-0.5742188, -0.0268555, -0.3310547, 14.7560978, 9.0853662, 1.2804878, -0.0193027
-0.5722656, -0.0209961, -0.3144531, 15.3048782, 11.219512, 0.5487805, -0.018967
-0.590332, -0.0117188, -0.3046875, 16.5243912, 15.7317076, -0.6707317, -0.0186313
-0.6040039, -0.0078125, -0.3066406, 17.439024, 17.3780499, -1.2804878, -0.0203098
-0.6245117, -0.0019531, -0.3232422, 18.2317085, 19.1463413, -0.6097561, -0.0206455
-0.6293945, 0, -0.331543, 18.7195129, 19.5121956, 0, -0.0198062
-0.6152344, 0.0175781, -0.3417969, 18.9634151, 21.280489, 0.2439024, -0.0182956
-0.5966797, 0.0356445, -0.3408203, 18.0487804, 23.8414631, -0.8536586, -0.0169528
-0.597168, 0.0371094, -0.3330078, 17.1951218, 25.4878063, -1.7073171, -0.0181277
-0.6030273, 0.0297852, -0.2924805, 15.7926836, 28.2317085, -3.2317073, -0.0224918
-0.6030273, 0.0209961, -0.2675781, 15.4268293, 29.0853672, -3.7195122, -0.0224918
-0.6044922, 0.0185547, -0.2714844, 15.1219511, 30.1829281, -4.8170733, -0.0276951
-0.6064453, 0.0292969, -0.2924805, 14.4512196, 30.9756107, -5.8536587, -0.0260166
-0.6137695, 0.0620117, -0.3427734, 12.0731707, 31.6463413, -6.9512196, -0.0280308
-0.6157227, 0.0712891, -0.3637695, 10.5487804, 31.4634151, -7.5609756, -0.0298772
-0.5961914, 0.0615234, -0.3881836, 7.7439027, 30.6707325, -7.6829271, -0.03122
-0.5810547, 0.0424805, -0.3950195, 7.0731707, 29.8780499, -7.5, -0.0310521
-0.5380859, 0, -0.4160156, 6.890244, 30.7317085, -6.7682929, -0.0270237
-0.4907227, -0.0288086, -0.4296875, 8.5365858, 34.5121956, -6.5853658, -0.0290379
-0.4765625, -0.0356445, -0.434082, 9.8780489, 37.5609779, -7.1341467, -0.0250095
-0.4672852, -0.0327148, -0.4326172, 12.5, 44.9390259, -8.5365858, -0.0199741
-0.4707031, -0.0283203, -0.4326172, 13.9024391, 48.5365868, -9.3902445, -0.0209812
-0.4946289, -0.0327148, -0.4492188, 15.7926836, 54.3902435, -10, -0.0219883
-0.503418, -0.034668, -0.4707031, 16.4024391, 56.0975609, -10.060976, -0.0229953
-0.5053711, -0.0385742, -0.5087891, 16.7073174, 57.8048782, -9.8780489, -0.0206455
-0.496582, -0.0341797, -0.5219727, 16.4634151, 58.7195129, -10.060976, -0.0203098
-0.472168, -0.0224609, -0.5449219, 15.3048782, 61.2804909, -10.7926836, -0.0191348
-0.4541016, -0.0078125, -0.5581055, 14.7560978, 63.2317085, -11.5243902, -0.0159457
-0.4433594, -0.0019531, -0.5620117, 13.5365858, 67.8658524, -11.7073174, -0.0216526
-0.4228516, 0.0019531, -0.5458984, 13.4146347, 72.4390259, -12.0731707, -0.0310521
-0.4169922, 0.0058594, -0.5336914, 13.841464, 74.7560959, -11.8902445, -0.0303807
-0.4165039, 0.0063477, -0.5087891, 14.6951227, 80.4268341, -12.3170738, -0.0283665
-0.418457, 0.0019531, -0.5, 14.4512196, 83.3536606, -12.560976, -0.0297093
-0.4375, -0.0180664, -0.5053711, 13.4146347, 87.5609741, -13.1097565, -0.0246738
-0.4477539, -0.027832, -0.5166016, 12.3780489, 88.7804871, -13.5975609, -0.0271916
-0.4570312, -0.0546875, -0.5083008, 10.6707315, 89.146347, -14.6951227, -0.0381018
-0.4624023, -0.0605469, -0.4956055, 10.7926836, 88.9634171, -15.1219511, -0.0404517
-0.4584961, -0.0605469, -0.4750977, 11.7682934, 89.146347, -16.3414631, -0.0330663
-0.4506836, -0.0449219, -0.5048828, 12.6219511, 89.8780518, -17.439024, -0.0223239
-0.449707, -0.0405273, -0.5380859, 12.6219511, 91.3414688, -19.3292694, -0.0142672
-0.4482422, -0.0351562, -0.6025391, 9.8780489, 92.9268341, -20.8536587, -0.0109102
-0.4414062, -0.0332031, -0.6132812, 8.1707315, 93.7195129, -21.0365868, -0.005539
-0.4194336, -0.0302734, -0.581543, 5.7926831, 95.9146347, -21.7682934, -0.0135958
-0.4111328, -0.0317383, -0.5522461, 5.9146342, 97.8048782, -22.1341476, -0.0184634
-0.3920898, -0.0351562, -0.5151367, 7.9878049, 101.8292694, -23.0487804, -0.0135958
-0.3969727, -0.0400391, -0.5307617, 8.9024391, 103.9634171, -23.5975609, -0.0048676
-0.4057617, -0.046875, -0.6064453, 9.0853662, 106.9512253, -23.7195129, 0.0045319
-0.4077148, -0.0478516, -0.6518555, 8.2317076, 108.0487823, -23.4146347, 0.0099031
-0.3789062, -0.0322266, -0.7290039, 3.5975611, 112.6219559, -22.1341476, 0.0135958
-0.3354492, 0.0009766, -0.7866211, -1.097561, 117.3780518, -21.3414631, 0.0157778
-0.3291016, 0.0107422, -0.7841797, -13.1707315, 128.4146423, -20.5487804, 0.0146029
-0.3515625, -0.0073242, -0.7197266, -20.6097565, 130.1829224, -22.560976, 0.0172885
-0.3701172, -0.0366211, -0.6669922, -18.1097565, 127.1951218, -24.2682934, 0.0125887
-0.4008789, -0.1035156, -0.6391602, -4.2073174, 116.9512253, -26.280489, 0.0109102
-0.3994141, -0.1225586, -0.6552734, 1.7682927, 114.146347, -25, 0.0087282
-0.3549805, -0.1230469, -0.7021484, 5.3048782, 116.8292694, -21.5243912, 0.0072175
-0.3325195, -0.1108398, -0.7094727, 4.3292685, 120.2439041, -21.280489, -0.0015106
-0.3198242, -0.1005859, -0.706543, 1.8902439, 125.4878082, -24.2682934, -0.012253
-0.3349609, -0.0986328, -0.6953125, 1.6463414, 126.1585388, -26.280489, -0.0310521
-0.3647461, -0.1113281, -0.6743164, 2.9268293, 125.6707382, -28.3536587, -0.0528725
-0.3837891, -0.1171875, -0.703125, 4.0853658, 125.4878082, -28.2317085, -0.0783856
-0.3842773, -0.1113281, -0.7353516, 5.3658538, 127.2561035, -27.5, -0.0924849
-0.3779297, -0.1020508, -0.7871094, 4.5121951, 128.1097565, -28.0487804, -0.0931563
-0.371582, -0.1069336, -0.793457, 3.4146342, 128.1707306, -28.841465, -0.0827497
-0.340332, -0.1201172, -0.7724609, 1.6463414, 127.9268341, -30.5487804, -0.0605936
-0.3330078, -0.1323242, -0.75, 1.5243902, 128.5365906, -31.7073174, -0.0354162
-0.3261719, -0.1552734, -0.7270508, 1.8292683, 128.9024353, -33.4756088, -0.0112459
-0.3291016, -0.1616211, -0.7246094, 2.804878, 129.2073212, -34.2073174, 0.0068818
-0.3422852, -0.1728516, -0.7177734, 6.1585369, 128.2926788, -35.1219521, 0.0213169
-0.355957, -0.1787109, -0.7084961, 8.1707315, 127.7439041, -34.9390259, 0.0307164
-0.3652344, -0.1826172, -0.7094727, 13.4756098, 125.3048782, -34.5121956, 0.0250095
-0.3637695, -0.1640625, -0.7480469, 17.3780499, 124.2073212, -33.4146347, 0.0124208
-0.3598633, -0.1445312, -0.7797852, 18.2317085, 123.9024429, -33.5975609, 0.0018463
-0.3417969, -0.0961914, -0.8325195, 17.3170738, 124.0243912, -34.8170738, -0.0095674
-0.3305664, -0.078125, -0.8388672, 15.8536587, 123.9634171, -36.0975609, -0.0162814
-0.3193359, -0.0405273, -0.8393555, 12.0731707, 122.7439041, -38.3536606, -0.018967
-0.3139648, -0.0390625, -0.8378906, 9.8170738, 121.7682953, -38.841465, -0.0152743
-0.2949219, -0.0561523, -0.8476562, 6.5853658, 118.4146347, -38.2317085, -0.0109102
-0.2836914, -0.0678711, -0.8666992, 4.8780489, 117.1951218, -37.1341476, -0.0099031
-0.2631836, -0.0888672, -0.9272461, 2.9878049, 116.7073212, -34.6951218, -0.0112459
-0.2539062, -0.0991211, -0.9462891, 2.804878, 117.3780518, -33.2926826, -0.0132601
-0.2260742, -0.1113281, -0.9770508, 3.2926829, 120, -30.1829281, -0.0256809
-0.1850586, -0.1108398, -0.9956055, 5.3048782, 124.2073212, -28.0487804, -0.0475013
-0.1723633, -0.1088867, -1, 6.280488, 126.7073212, -27.8048782, -0.0632792
-0.1713867, -0.1157227, -0.9702148, 6.890244, 131.1585388, -27.9878063, -0.064622
-0.1791992, -0.1328125, -0.9306641, 7.0121951, 132.9268341, -28.2926826, -0.0471656
-0.2084961, -0.1694336, -0.8725586, 7.0121951, 134.3902435, -29.6341476, -0.010071
-0.2324219, -0.1821289, -0.8696289, 6.4024391, 134.2073212, -30.4268303, 0.0260166
-0.2924805, -0.1850586, -0.9355469, 3.6585367, 131.7682953, -32.3780479, 0.0448157
-0.3173828, -0.1816406, -0.9731445, 1.4634147, 129.5121918, -33.1707306, 0.0417945
-0.34375, -0.1708984, -1, -1.8902439, 122.86586, -33.7195129, 0.033402
-0.3344727, -0.171875, -0.9887695, -1.8902439, 119.146347, -33.5365868, 0.0199741
-0.2905273, -0.1791992, -0.9492188, 0.9756098, 114.6341476, -32.9268303, 0.0119173
-0.2480469, -0.1791992, -0.9487305, 5.3048782, 114.6341476, -32.9268303, 0.0045319
-0.2294922, -0.1801758, -0.9711914, 7.0121951, 116.2195129, -33.2926826, -0.0025177
-0.2231445, -0.1757812, -1.0200195, 8.3536587, 118.5365906, -34.1463432, -0.0095674
-0.2236328, -0.1816406, -1.0473633, 7.6829271, 118.5365906, -34.1463432, -0.018967
-0.2109375, -0.1953125, -1.0722656, 5.7926831, 117.3780518, -34.0243912, -0.026688
-0.2011719, -0.2089844, -1.0654297, 5.4268293, 116.4024429, -33.4756088, -0.0283665
-0.1801758, -0.2250977, -1.0341797, 7.3780489, 115.4268341, -32.1951218, -0.0323949
-0.1694336, -0.2285156, -1.0229492, 9.5121956, 115.8536606, -31.8902454, -0.0337377
-0.1733398, -0.2089844, -1.0249023, 14.4512196, 119.8170776, -32.0121956, -0.0320592
-0.1865234, -0.1967773, -1.0366211, 16.3414631, 121.646347, -32.0731697, -0.03122
-0.2192383, -0.1875, -1.0512695, 19.1463413, 123.5975647, -32.0731697, -0.0310521
-0.2363281, -0.2094727, -1.0068359, 21.0365868, 121.4634171, -31.4634151, -0.0303807
-0.237793, -0.2348633, -0.9707031, 22.439024, 119.3292694, -31.280489, -0.0310521
-0.2197266, -0.2841797, -0.9179688, 26.0975609, 115.5487823, -31.4634151, -0.0283665
-0.2182617, -0.2983398, -0.9238281, 27.6829281, 114.3902435, -31.7682934, -0.0236667
-0.2285156, -0.3012695, -0.9868164, 29.2073174, 112.5609818, -32.8048782, -0.0223239
-0.2319336, -0.2895508, -1.0283203, 29.4512196, 112.1951218, -32.7439041, -0.0229953
-0.2294922, -0.2368164, -1.0805664, 30.3048782, 111.1585388, -32.1951218, -0.0213169
-0.2177734, -0.206543, -1.0805664, 31.2195129, 110.5487823, -31.6463413, -0.0229953
-0.1723633, -0.1352539, -1.034668, 34.3902435, 111.5243912, -31.5243912, -0.023331
-0.152832, -0.109375, -1.0102539, 35.6707344, 113.1707306, -31.7073174, -0.0263523
-0.1445312, -0.0874023, -0.9858398, 35.8536606, 115.6097565, -32.2560997, -0.0283665
-0.1586914, -0.0961914, -0.9560547, 32.9878044, 114.5731735, -32.8048782, -0.0297093
-0.1674805, -0.1186523, -0.9360352, 30.4878063, 112.86586, -32.3780479, -0.0364233
-0.1791992, -0.1835938, -0.894043, 26.0365868, 107.0121994, -31.4634151, -0.057908
-0.1821289, -0.2138672, -0.875, 24.9390259, 103.7804871, -31.0365868, -0.0699931
-0.1879883, -0.2661133, -0.8925781, 24.5731716, 97.4390259, -32.1341476, -0.0753643
-0.1918945, -0.2773438, -0.9306641, 24.3902435, 94.6341476, -32.5, -0.0683146
-0.1918945, -0.2915039, -1.0336914, 23.2317085, 90.6707306, -32.9878044, -0.0609293
-0.1835938, -0.2832031, -1.0844727, 22.1951218, 89.3902435, -31.9512196, -0.0441444
-0.1381836, -0.2431641, -1.1728516, 20.9756107, 88.0487823, -28.4756107, -0.0260166
-0.1015625, -0.2104492, -1.203125, 20.8536587, 88.5975647, -26.5243912, -0.0179599
-0.027832, -0.128418, -1.2250977, 20.9146347, 93.8414688, -23.5365868, -0.018967
0.0317383, -0.0732422, -1.1650391, 22.7439022, 102.3170776, -21.7682934, -0.018967
0.0532227, -0.0556641, -1.1264648, 22.9878063, 106.0365906, -20.9146347, -0.0182956
0.0644531, -0.0732422, -1.0732422, 21.7682934, 112.0121994, -19.6341476, -0.0166171
0.0512695, -0.0976562, -1.0649414, 19.8170738, 113.5365906, -18.9634151, -0.0146029
0.0117188, -0.1787109, -1.0683594, 13.0487804, 112.7439041, -17.3170738, -0.0149386
-0.0068359, -0.2299805, -1.0727539, 9.5121956, 110.7317123, -16.4024391, -0.0186313
-0.0292969, -0.3291016, -1.0581055, 6.4024391, 105.2439041, -14.8170738, -0.0256809
-0.0263672, -0.3740234, -1.0332031, 7.4390244, 102.1951218, -14.8170738, -0.0394446
-0.0141602, -0.4404297, -0.9716797, 14.3292685, 98.7195129, -15, -0.0370947
-0.0068359, -0.4599609, -0.9414062, 19.6951218, 98.4146347, -15.6097565, -0.0350805
0.0024414, -0.4594727, -0.9155273, 29.9390259, 100.1219559, -17.3780499, -0.03122
-0.0136719, -0.434082, -0.9379883, 38.1707344, 102.0121994, -19.6341476, -0.0193027
-0.0214844, -0.4116211, -0.9570312, 41.2804871, 101.8292694, -20.9756107, -0.0083925
-0.0351562, -0.3671875, -0.984375, 44.9390259, 99.8170776, -22.8048782, -0.0025177
-0.0327148, -0.3476562, -1.0039062, 45.9756126, 97.9878082, -23.5975609, 0.0005035
-0.0083008, -0.3115234, -1.0605469, 46.9512215, 93.5975647, -25.3658543, -0.0072175
0.0058594, -0.3046875, -1.0898438, 47.1951218, 92.1951218, -26.280489, -0.0082246
0.0405273, -0.2963867, -1.1064453, 46.8292694, 90.4268341, -27.3170738, -0.0097353
0.0625, -0.2988281, -1.0854492, 47.3780518, 90.5487823, -27.6219521, -0.0058747
0.1044922, -0.3007812, -1.0249023, 48.6585388, 91.3414688, -27.1951218, -0.008896
0.1220703, -0.2949219, -1.0112305, 49.7560997, 92.8048782, -26.7073174, -0.0162814
0.1230469, -0.2661133, -1.0541992, 50.3658562, 96.0975647, -25.2439022, -0.0216526
0.0834961, -0.2089844, -1.1689453, 45.3658562, 100.1219559, -22.2560978, -0.0260166
0.0576172, -0.1826172, -1.21875, 41.1585388, 101.2195129, -20, -0.0283665
0.0458984, -0.1508789, -1.2314453, 32.9878044, 101.5243912, -13.6585369, -0.0223239
0.0585938, -0.1352539, -1.1928711, 30.6707325, 101.2804871, -10.6097565, -0.0243381
0.1157227, -0.1381836, -1.0883789, 29.0853672, 102.8658524, -6.6463418, -0.0243381
0.1469727, -0.140625, -1.0678711, 28.780489, 104.7561035, -6.4634147, -0.0297093
0.152832, -0.1738281, -1.1313477, 25.7317085, 109.0853653, -8.0487804, -0.0315557
0.1494141, -0.1953125, -1.1870117, 22.1951218, 110, -8.719512, -0.0357519
0.1523438, -0.265625, -1.2495117, 12.1341467, 108.1707306, -8.4146347, -0.0377661
0.1699219, -0.3046875, -1.2338867, 7.6219516, 105.6707306, -7.9268293, -0.0391089
0.2304688, -0.3803711, -1.144043, 3.6585367, 101.1585388, -6.9512196, -0.0411231
0.2817383, -0.4335938, -1.0512695, 5.9756098, 101.5853653, -8.2317076, -0.0330663
0.2949219, -0.4423828, -1.0292969, 8.780488, 103.9634171, -9.8170738, -0.0330663
0.2773438, -0.440918, -1.0410156, 14.6341467, 110.2439041, -13.3536587, -0.036759
0.2563477, -0.4287109, -1.0610352, 17.0121956, 112.5609818, -15.1219511, -0.0431373
0.2172852, -0.4091797, -1.1069336, 18.9024391, 114.0853653, -17.1951218, -0.0344091
0.1992188, -0.3969727, -1.125, 18.7195129, 113.5365906, -17.7439022, -0.0313878
0.2011719, -0.3876953, -1.1274414, 18.5365849, 110.3048782, -19.2682934, -0.0276951
0.2128906, -0.3837891, -1.1235352, 18.5365849, 108.5975647, -20.4878044, -0.0276951
0.2504883, -0.3984375, -1.0947266, 19.7560978, 106.7682953, -23.1097565, -0.0236667
0.2739258, -0.4111328, -1.0732422, 21.0975609, 106.3414688, -24.6951218, -0.0193027
0.3095703, -0.440918, -1.0239258, 24.4512196, 106.8292694, -28.3536587, -0.0223239
0.3227539, -0.4589844, -0.9760742, 29.1463413, 107.9268341, -32.1951218, -0.0250095
0.3154297, -0.4667969, -0.9570312, 32.1341476, 108.8414688, -33.5975609, -0.0243381
0.284668, -0.4604492, -0.9536133, 38.7195129, 110, -36.0975609, -0.0191348
0.262207, -0.4506836, -0.9765625, 41.9512215, 110.36586, -36.4634171, -0.0182956
0.2260742, -0.4208984, -1.0742188, 46.9512215, 110.36586, -35.2439041, -0.0203098
0.2207031, -0.4106445, -1.1333008, 48.6585388, 110.1219559, -33.9024391, -0.0276951
0.2382812, -0.3920898, -1.2026367, 50.4878044, 109.2682953, -30.4878063, -0.0283665
0.2592773, -0.3837891, -1.2148438, 51.8292694, 109.6341476, -28.780489, -0.0340734
0.3071289, -0.355957, -1.1948242, 55.6707344, 113.0487823, -24.5731716, -0.0558938
0.3510742, -0.3427734, -1.1982422, 58.0487823, 116.3414688, -22.0731716, -0.0753643
0.4394531, -0.3041992, -1.2441406, 60.5487823, 123.8414688, -21.2195129, -0.0800641
0.4814453, -0.2695312, -1.3041992, 57.9268303, 131.9512177, -22.9268303, -0.0720073
0.4916992, -0.2617188, -1.3154297, 54.2682953, 135.2439117, -23.9634151, -0.0619364
0.5048828, -0.2675781, -1.265625, 45.3048782, 140.1219482, -24.5121956, -0.061265
0.5058594, -0.2758789, -1.2026367, 41.0365868, 141.5853729, -24.0853672, -0.057908
0.4980469, -0.2880859, -1.0517578, 35.4268303, 145.3048859, -23.1097565, -0.0525368
0.4814453, -0.2832031, -0.9897461, 34.2073174, 147.7439117, -22.8048782, -0.0350805
0.4111328, -0.2592773, -0.9570312, 32.6219521, 152.3170776, -23.9024391, -0.0149386
0.3603516, -0.2470703, -0.9775391, 31.6463413, 153.0487823, -24.4512196, 0.0035248
0.253418, -0.2441406, -1.0234375, 27.560976, 150.0609741, -24.7560978, 0.0186313
0.2138672, -0.2568359, -1.0268555, 24.1463413, 146.1585388, -24.0853672, 0.0313878
0.1943359, -0.3037109, -0.949707, 17.9268303, 136.2804871, -21.1585369, 0.0360876
0.230957, -0.355957, -0.8164062, 15.7317076, 127.6219559, -19.2682934, 0.0414588
0.2607422, -0.378418, -0.7563477, 16.280489, 125.18293, -19.2073174, 0.0407874
0.2978516, -0.40625, -0.6791992, 19.7560978, 123.1707382, -21.5853672, 0.030045
0.2944336, -0.4106445, -0.6767578, 21.7073174, 122.6219559, -23.3536587, 0.0223239
0.2851562, -0.4008789, -0.7363281, 24.2682934, 118.9634171, -27.560976, 0.0152743
0.2822266, -0.3891602, -0.7875977, 24.6341476, 116.1585388, -29.1463413, 0.0085603
0.2875977, -0.3686523, -0.8925781, 22.2560978, 108.3536606, -31.4634151, 0.0045319
0.3061523, -0.3632812, -0.9243164, 20.060976, 104.4512253, -32.4390259, -0.002182
0.3725586, -0.378418, -0.9296875, 16.3414631, 97.9878082, -33.841465, -0.0062104
0.4077148, -0.3950195, -0.9047852, 15.3048782, 96.0975647, -34.5731697, -0.0105745
0.4790039, -0.4204102, -0.8681641, 17.0731716, 95.4878082, -36.2804871, -0.0162814
0.5209961, -0.4296875, -0.8828125, 21.5243912, 98.4756088, -37.8048782, -0.018967
0.5297852, -0.4257812, -0.9057617, 24.6341476, 100.8536606, -38.841465, -0.0199741
0.5219727, -0.402832, -0.953125, 29.9390259, 104.3292694, -39.8170738, -0.0159457
0.5166016, -0.3857422, -0.9677734, 31.8902454, 105.18293, -39.8170738, -0.0142672
0.512207, -0.3632812, -0.9770508, 34.8780479, 104.9390259, -39.5121956, -0.0204776
0.5078125, -0.3486328, -0.972168, 35.9756088, 104.2682953, -39.2682953, -0.0322271
0.4980469, -0.3276367, -0.9594727, 38.0487823, 103.5975647, -38.5975609, -0.0424659
0.4946289, -0.3193359, -0.9609375, 39.4512215, 104.2682953, -38.0487823, -0.043473
0.4750977, -0.293457, -0.9873047, 41.6463432, 106.2804871, -36.8902435, -0.0414588
0.4614258, -0.2626953, -1.0195312, 41.8902435, 107.4390259, -36.4024391, -0.0350805
0.4594727, -0.2539062, -1.0268555, 40.3658562, 108.5975647, -34.5121956, -0.0320592
0.4731445, -0.2431641, -1.0092773, 36.4024391, 107.9878082, -32.8658562, -0.0243381
0.4799805, -0.2446289, -0.9814453, 34.1463432, 107.3170776, -32.1951218, -0.0196384
0.5058594, -0.2636719, -0.9121094, 31.0365868, 105.5487823, -30.7926846, -0.0142672
0.5166016, -0.277832, -0.8808594, 29.6341476, 104.8780518, -30.3048782, -0.0176242
0.5263672, -0.3125, -0.8408203, 28.0487804, 103.4146347, -28.9024391, -0.0216526
0.5239258, -0.3295898, -0.8344727, 27.1341476, 102.2561035, -28.5365868, -0.0223239
0.5151367, -0.3603516, -0.8369141, 25.8536587, 99.8780518, -27.9268303, -0.0292058
0.5063477, -0.3730469, -0.8432617, 25.6707325, 98.7195129, -27.9268303, -0.0696574
0.4941406, -0.3930664, -0.871582, 24.3902435, 95.9146347, -27.7439022, -0.1132982
0.4951172, -0.4033203, -0.9101562, 23.9634151, 94.6951218, -28.0487804, -0.1287404
0.4995117, -0.4091797, -0.9243164, 22.6829281, 92.5, -28.5365868, -0.1257191
0.5249023, -0.4150391, -0.9414062, 22.0121956, 91.4634171, -28.9634151, -0.0854353
0.543457, -0.4155273, -0.9418945, 21.5243912, 91.2804871, -29.2073174, -0.0310521
0.5825195, -0.4169922, -0.9155273, 22.0121956, 91.1585388, -30.3658543, 0.0169528
0.6015625, -0.4145508, -0.8925781, 22.6829281, 91.4024429, -31.1585369, 0.0426337
0.6235352, -0.4038086, -0.8398438, 24.3902435, 93.0487823, -33.3536606, 0.0528725
0.6186523, -0.3955078, -0.8208008, 25.6097565, 93.7195129, -34.7560997, 0.0532082
0.6010742, -0.3847656, -0.8203125, 27.4390259, 94.5731735, -37.6219521, 0.04448
0.5776367, -0.3701172, -0.8442383, 28.1097565, 94.6951218, -38.7804871, 0.036759
0.5390625, -0.355957, -0.9399414, 26.280489, 94.146347, -39.7560997, 0.0236667
0.5146484, -0.3579102, -1.0219727, 24.3902435, 93.1707306, -39.7560997, 0.0139315
0.5205078, -0.3652344, -1.0410156, 20.060976, 91.5243912, -38.5975609, 0.0058747
0.5561523, -0.3798828, -1.0097656, 16.280489, 91.0975647, -36.6463432, -0.0031891
0.5888672, -0.3974609, -0.9755859, 15.4268293, 91.5853653, -36.2195129, -0.005539
0.6513672, -0.4086914, -0.9086914, 15.4878054, 94.3292694, -36.0365868, -0.0085603
0.6723633, -0.4047852, -0.8964844, 16.6463413, 96.4024429, -36.7073174, -0.0095674
0.6855469, -0.4052734, -0.9057617, 18.4756107, 100.9146347, -38.841465, -0.0095674
0.6821289, -0.3974609, -0.9267578, 18.5975609, 102.5, -40.3048782, -0.0149386
0.6542969, -0.3955078, -0.9663086, 18.1097565, 103.9024429, -41.341465, -0.0196384
0.6489258, -0.3974609, -0.980957, 17.5, 103.9634171, -40.9756088, -0.0199741
0.6464844, -0.3916016, -0.9829102, 16.2195129, 103.4146347, -39.4512215, -0.0236667
0.6660156, -0.3881836, -0.9584961, 15.6707325, 104.2682953, -37.9878044, -0.0327306
0.6787109, -0.3876953, -0.9345703, 15.9146347, 105.18293, -37.1951218, -0.036759
0.6987305, -0.3754883, -0.8769531, 17.3170738, 107.6219559, -36.6463432, -0.0424659
0.7070312, -0.3735352, -0.8427734, 18.1097565, 108.5365906, -37.1341476, -0.0431373
0.7070312, -0.3686523, -0.7885742, 19.3292694, 109.6951218, -38.3536606, -0.0397803
0.6962891, -0.3696289, -0.7724609, 19.4512196, 109.2682953, -39.3902435, -0.0350805
0.6650391, -0.3691406, -0.7734375, 19.3902435, 106.7073212, -41.0975609, -0.0303807
0.6445312, -0.3720703, -0.7880859, 18.780489, 104.6951218, -41.7073174, -0.026688
0.6079102, -0.390625, -0.8344727, 17.560976, 99.7561035, -41.6463432, -0.0213169
0.6025391, -0.4018555, -0.8632812, 17.0731716, 97.0731735, -41.5853653, -0.0196384
0.6118164, -0.4165039, -0.8930664, 16.5243912, 92.3780518, -39.8170738, -0.0369268
0.652832, -0.4287109, -0.8598633, 16.6463413, 90.3658524, -38.4756088, -0.0459907
0.6831055, -0.4316406, -0.8212891, 17.5, 90.6707306, -37.6829262, -0.0464942
0.7333984, -0.4248047, -0.7412109, 21.280489, 93.6585388, -38.1097565, -0.0438087
0.75, -0.4223633, -0.7255859, 23.1707325, 95.2439041, -38.6585388, -0.0357519
0.7495117, -0.3945312, -0.7436523, 26.3414631, 98.1097565, -40.5487823, -0.0243381
0.7397461, -0.3808594, -0.784668, 26.6463413, 98.0487823, -41.7073174, -0.0135958
0.7089844, -0.3671875, -0.8720703, 24.8170738, 96.4634171, -43.2317085, -0.0041962
0.6962891, -0.3701172, -0.9101562, 22.5, 95.18293, -43.1707344, -0.002182
0.7006836, -0.3823242, -0.9462891, 18.5975609, 92.0121994, -42.0731735, 0.0028534
0.7172852, -0.3901367, -0.9443359, 16.6463413, 91.1585388, -41.0365868, 0.0048676
0.7626953, -0.4204102, -0.9003906, 15.8536587, 91.7682953, -39.2073174, -0.0018463
0.8100586, -0.4487305, -0.8530273, 18.1097565, 96.3414688, -38.1707344, -0.005539
0.8237305, -0.4516602, -0.8393555, 19.7560978, 98.5975647, -38.0487823, -0.0015106
0.8364258, -0.4663086, -0.8647461, 24.6341476, 103.7804871, -39.5121956, -0.0045319
0.8276367, -0.4609375, -0.9052734, 25.9756107, 105.7926865, -40.1219521, -0.0005035
0.7998047, -0.4448242, -1.0297852, 26.4024391, 109.0853653, -40.8536606, -0.0125887
0.7939453, -0.4365234, -1.09375, 25.1829281, 110, -40.1829262, -0.01561
0.8051758, -0.4233398, -1.1552734, 21.7682934, 111.9512253, -37.6829262, -0.0139315
0.8320312, -0.4160156, -1.1455078, 20.2439022, 113.2317123, -36.0975609, -0.0151064
0.9003906, -0.3974609, -1.0615234, 19.0243912, 117.8048782, -32.7439041, -0.0219883
0.9414062, -0.3789062, -1.0009766, 19.2073174, 121.0975647, -31.7073174, -0.0240024
0.9892578, -0.3256836, -0.8969727, 21.6463413, 128.2926788, -31.6463413, -0.0213169
0.9868164, -0.2709961, -0.8515625, 23.2317085, 133.9024353, -33.2317085, -0.0166171
0.9589844, -0.2475586, -0.8525391, 22.8048782, 135.36586, -34.4512215, -0.0260166
0.8862305, -0.2133789, -0.8579102, 19.2682934, 134.3902435, -35.0609779, -0.04448
0.8457031, -0.2094727, -0.8569336, 15.7317076, 132.1341553, -34.6341476, -0.051194
0.7875977, -0.2236328, -0.8325195, 7.5609756, 126.2804871, -31.5853672, -0.0535439
0.769043, -0.2373047, -0.8007812, 4.2073174, 122.9878082, -29.5121956, -0.0594186
0.753418, -0.2841797, -0.7333984, -1.7073171, 117.5609818, -25.2439022, -0.0552224
0.7539062, -0.3139648, -0.7011719, -3.4146342, 115.3048782, -23.3536587, -0.0525368
0.7651367, -0.3691406, -0.6396484, -4.7560978, 111.2804871, -21.2195129, -0.0471656
0.7680664, -0.3964844, -0.6279297, -4.8170733, 109.3902435, -20.9146347, -0.0370947
0.7763672, -0.4389648, -0.6333008, -3.3536587, 104.4512253, -21.280489, -0.0283665
0.7773438, -0.4731445, -0.6621094, -2.195122, 98.4756088, -21.6463413, -0.0139315
0.7817383, -0.4882812, -0.6738281, -1.2804878, 95.4268341, -21.8292694, -0.0035248
0.8110352, -0.5083008, -0.6948242, 1.3414634, 90, -22.1341476, 0.0129244
0.8237305, -0.5117188, -0.6962891, 2.9878049, 87.8048782, -21.8902435, 0.012253
0.8671875, -0.5048828, -0.6914062, 7.8048782, 85.4268341, -21.8902435, -0.0025177
0.8852539, -0.4990234, -0.6879883, 10.4268293, 85.3048782, -22.3170738, -0.0041962
0.9091797, -0.4731445, -0.690918, 15.3658543, 86.7073212, -24.8170738, -0.0062104
0.9038086, -0.4628906, -0.7016602, 17.1951218, 87.4390259, -26.0975609, -0.005539
0.8813477, -0.4433594, -0.7265625, 19.7560978, 88.0487823, -28.7195129, -0.0035248
0.8632812, -0.4394531, -0.7368164, 20.2439022, 87.68293, -29.9390259, -0.0010071
0.8349609, -0.4355469, -0.7338867, 20.060976, 86.4634171, -31.4024391, -0.002182
0.8056641, -0.4311523, -0.71875, 19.6341476, 85.4878082, -32.3170738, -0.005539
0.7929688, -0.4370117, -0.7163086, 19.6951218, 84.8780518, -32.7439041, -0.0041962
0.7768555, -0.4370117, -0.7397461, 19.5121956, 85.0609741, -33.1097565, -0.0048676
0.7675781, -0.4365234, -0.777832, 18.9024391, 85.2439041, -33.1097565, -0.0020142
0.7568359, -0.4277344, -0.859375, 17.2560978, 86.0975647, -32.9878044, -0.0048676
0.7587891, -0.4135742, -0.8842773, 15.8536587, 86.9512253, -32.1951218, -0.0162814
0.7929688, -0.3725586, -0.8740234, 13.780488, 88.7195129, -30.1219521, -0.0287022
0.8203125, -0.3422852, -0.8364258, 12.9878054, 89.4512253, -29.5121956, -0.0350805
0.8676758, -0.2851562, -0.7578125, 12.9268293, 91.1585388, -29.4512196, -0.0347448
0.8862305, -0.2602539, -0.7177734, 12.4390249, 91.8902435, -30, -0.0357519
0.8798828, -0.2397461, -0.6689453, 10.3048782, 93.1097565, -31.8902454, -0.0297093
0.8271484, -0.2519531, -0.6567383, 4.5121951, 92.9268341, -33.1097565, -0.0250095
0.793457, -0.269043, -0.6577148, 0.6707317, 91.4634171, -32.9268303, -0.0196384
0.7207031, -0.2919922, -0.6547852, -6.8292685, 87.8048782, -30.7317085, -0.0135958
0.6967773, -0.3007812, -0.6616211, -9.9390249, 85.6097565, -29.6951218, -0.0078889
0.6767578, -0.3095703, -0.6870117, -13.2317076, 81.1585388, -26.5243912, -0.0035248
0.6777344, -0.3164062, -0.7099609, -13.5975609, 79.0243912, -24.8780499, 0.0011749
0.7148438, -0.3286133, -0.7470703, -14.2073174, 74.8780518, -22.439024, 0.0025177
0.7436523, -0.3383789, -0.7573242, -14.2073174, 73.1097565, -20.9756107, 0.0005035
0.8237305, -0.3608398, -0.7392578, -14.9390249, 70.5487823, -19.2073174, -0.002182
0.8637695, -0.3740234, -0.7241211, -15.4878054, 70.0609741, -18.9024391, -0.0016785
0.9208984, -0.402832, -0.6777344, -17.0731716, 71.5243912, -19.3902435, -0.0104067
0.9272461, -0.4306641, -0.6435547, -17.6829281, 73.5365906, -20.4878044, -0.0243381
0.9067383, -0.4345703, -0.6289062, -17.6219521, 74.5731735, -21.2195129, -0.0399481
0.8535156, -0.4306641, -0.6186523, -15.6707325, 74.9390259, -22.439024, -0.0451514
0.8256836, -0.421875, -0.6176758, -14.3292685, 74.1463394, -22.7439022, -0.04448
0.7797852, -0.4116211, -0.6303711, -11.280488, 70.6097565, -22.1341476, -0.0337377
0.7670898, -0.4077148, -0.6420898, -10.1219511, 68.4756088, -21.7073174, -0.0293736
0.7641602, -0.3989258, -0.6572266, -9.4512196, 64.2073212, -20.060976, -0.0219883
0.7773438, -0.4008789, -0.6586914, -9.4512196, 62.2560997, -19.4512196, -0.0169528
0.809082, -0.4038086, -0.6411133, -10, 60.3048782, -18.5365849, -0.018967
0.8256836, -0.4086914, -0.6347656, -10.3048782, 59.6341476, -18.2317085, -0.0162814
0.8608398, -0.4101562, -0.6323242, -9.8170738, 58.2317085, -18.5975609, -0.0179599
0.8852539, -0.4165039, -0.6323242, -9.2682924, 56.6463432, -19.6341476, -0.018967
0.8896484, -0.4238281, -0.637207, -8.6585369, 55.6097565, -20.4268303, -0.0213169
0.8842773, -0.4316406, -0.6425781, -7.6219516, 54.5731735, -21.5243912, -0.0256809
0.8837891, -0.4316406, -0.6430664, -7.1951222, 54.1463432, -21.8902435, -0.0263523
0.8676758, -0.4375, -0.6323242, -6.2195125, 54.1463432, -22.2560978, -0.0290379
0.8623047, -0.4350586, -0.6289062, -5.3658538, 54.1463432, -22.0121956, -0.0307164
0.8461914, -0.4213867, -0.6206055, -3.5975611, 54.2682953, -22.3170738, -0.0303807
0.8393555, -0.4130859, -0.6186523, -2.6829269, 54.3292694, -22.6219521, -0.0394446
0.8286133, -0.3837891, -0.6157227, -1.3414634, 53.5975609, -22.6219521, -0.0468299
0.8251953, -0.3676758, -0.6108398, -1.097561, 52.9268303, -22.5, -0.0485084
0.8164062, -0.3388672, -0.6118164, -1.6463414, 52.1951218, -22.5, -0.0486763
0.8232422, -0.3154297, -0.6157227, -3.3536587, 50.3658562, -22.0731716, -0.0464942
0.8271484, -0.3139648, -0.6123047, -4.7560978, 49.6341476, -22.0121956, -0.0518654
0.8432617, -0.3222656, -0.5996094, -7.2560978, 47.9878044, -21.8292694, -0.0525368
0.8476562, -0.3310547, -0.590332, -8.3536587, 47.4390259, -22.0121956, -0.0431373
0.8510742, -0.3569336, -0.5668945, -10.060976, 46.7073174, -23.1097565, -0.0374304
0.8510742, -0.3666992, -0.5517578, -10.4878054, 47.1951218, -23.1707325, -0.0397803
0.8374023, -0.375, -0.5380859, -10.2439022, 47.1341476, -23.2317085, -0.0458228
0.8271484, -0.3798828, -0.5390625, -9.6341467, 47.3170738, -23.2317085, -0.0552224
0.8120117, -0.3701172, -0.5493164, -7.6829271, 46.8902435, -23.0487804, -0.054551
0.8120117, -0.3652344, -0.5522461, -6.4634147, 46.341465, -22.9878063, -0.0458228
0.8154297, -0.3613281, -0.5610352, -5, 45.0609779, -23.3536587, -0.0325628
0.831543, -0.3623047, -0.5664062, -4.2682929, 43.6585388, -23.5975609, -0.0265202
0.8413086, -0.3686523, -0.5678711, -3.9634147, 43.5365868, -23.9024391, -0.0283665
0.8515625, -0.3813477, -0.5581055, -4.390244, 43.6585388, -24.4512196, -0.0216526
0.8574219, -0.3823242, -0.5561523, -4.390244, 44.0853653, -24.3902435, -0.0109102
0.8579102, -0.3691406, -0.5400391, -3.5365853, 45.1219521, -24.1463413, -0.0085603
0.8598633, -0.3579102, -0.5366211, -2.9878049, 45.4878044, -23.8414631, -0.0166171
0.8608398, -0.331543, -0.5351562, -1.2195122, 46.0365868, -23.8414631, -0.0162814
0.8608398, -0.3242188, -0.5375977, -0.6707317, 45.7926826, -24.0243912, -0.0236667
0.8671875, -0.3168945, -0.546875, 0.1829268, 44.6341476, -24.5121956, -0.0352483
0.8764648, -0.3212891, -0.5478516, 0, 43.6585388, -24.1463413, -0.0525368
0.8833008, -0.3374023, -0.5458984, -0.9756098, 42.0731735, -24.5121956, -0.0693217
0.8945312, -0.3540039, -0.5400391, -1.3414634, 41.5243912, -24.7560978, -0.0770428
0.9018555, -0.3618164, -0.5351562, -0.9756098, 41.341465, -24.8780499, -0.0720073
0.9052734, -0.3779297, -0.5239258, -0.0609756, 41.9512215, -24.6951218, -0.0424659
0.9067383, -0.3803711, -0.5131836, 0.6707317, 42.5, -24.4512196, -0.0129244
0.9042969, -0.3774414, -0.4970703, 2.9268293, 43.5975609, -24.3902435, 0.008896
0.90625, -0.3730469, -0.496582, 4.4512196, 43.6585388, -24.3902435, 0.0246738
0.9072266, -0.362793, -0.4960938, 6.8292685, 43.1707344, -24.6341476, 0.0240024
0.9067383, -0.3574219, -0.4995117, 8.0487804, 42.5609779, -24.5121956, 0.0115816
0.9145508, -0.3461914, -0.5092773, 9.7560978, 41.2195129, -24.4512196, -0.0041962
0.9238281, -0.3466797, -0.519043, 10.3048782, 41.0365868, -24.1463413, -0.0115816
0.9443359, -0.3540039, -0.5292969, 10.7926836, 39.9390259, -23.780489, -0.0072175
0.9643555, -0.3637695, -0.5390625, 10.4878054, 39.8170738, -24.1463413, -0.0048676
0.9755859, -0.3701172, -0.5444336, 10.4268293, 40.1219521, -24.3292694, -0.0075532
0.984375, -0.3745117, -0.5561523, 10.1219511, 40.8536606, -24.4512196, -0.0115816
0.9824219, -0.3798828, -0.5600586, 9.7560978, 41.4634171, -24.5121956, -0.0193027
0.9775391, -0.3803711, -0.5629883, 8.5365858, 42.8658562, -24.2682934, -0.0283665
0.980957, -0.3730469, -0.5527344, 8.4146347, 43.841465, -23.8414631, -0.0318914
0.9726562, -0.3510742, -0.5214844, 8.6585369, 46.0975609, -22.8658543, -0.0290379
0.9677734, -0.3310547, -0.5019531, 9.3292685, 46.9512215, -22.0731716, -0.0297093
0.9609375, -0.2744141, -0.4848633, 10.9146347, 48.1707344, -21.4024391, -0.0256809
0.9575195, -0.2304688, -0.4990234, 11.219512, 48.0487823, -21.0975609, -0.0223239
0.9584961, -0.2177734, -0.5083008, 9.8170738, 46.4634171, -21.3414631, -0.0129244
0.9536133, -0.215332, -0.5327148, 4.7560978, 44.4512215, -21.6463413, -0.0065461
0.953125, -0.2285156, -0.5405273, 1.5853659, 43.3536606, -21.3414631, -0.0129244
0.9555664, -0.2734375, -0.5380859, -4.5121951, 41.8902435, -20.6097565, -0.0203098
0.9594727, -0.293457, -0.5253906, -6.8292685, 41.341465, -20, -0.0297093
0.9677734, -0.3291016, -0.484375, -9.3292685, 41.7682953, -18.9024391, -0.0391089
0.9692383, -0.3413086, -0.4682617, -9.1463413, 42.1341476, -18.4146347, -0.0486763
0.9643555, -0.3525391, -0.4428711, -6.7682929, 42.6219521, -17.9878044, -0.0464942
0.9604492, -0.3500977, -0.4379883, -5.3658538, 42.5, -17.9878044, -0.0424659
0.9541016, -0.3422852, -0.4379883, -3.2926829, 41.4634171, -17.560976, -0.0229953
0.9462891, -0.3310547, -0.4438477, -2.7439024, 41.0365868, -17.3170738, -0.0065461
0.9467773, -0.3168945, -0.4438477, -3.6585367, 39.2682953, -16.5243912, 0.0065461
0.9560547, -0.2963867, -0.4458008, -5.3658538, 38.6585388, -15.4878054, 0.0129244
0.9580078, -0.2861328, -0.4492188, -6.0975609, 38.4756088, -15.1829271, 0.0085603
0.9702148, -0.2714844, -0.4467773, -8.4756098, 37.5609779, -14.3292685, 0.0038605
0.9755859, -0.2705078, -0.4443359, -9.5121956, 37.0121956, -14.2682934, 0.0078889
0.9819336, -0.269043, -0.4536133, -10.9756098, 36.2804871, -14.0243902, 0.0092317
0.9824219, -0.2714844, -0.4633789, -11.8292685, 35.6707344, -13.841464, 0.0105745
0.9863281, -0.2836914, -0.4677734, -13.3536587, 34.7560997, -13.1097565, 0.0119173
0.9897461, -0.2944336, -0.4697266, -14.1463413, 34.2073174, -12.9268293, 0.0125887
0.996582, -0.3164062, -0.4575195, -14.3292685, 33.4756088, -12.1951218, 0.0176242
0.9912109, -0.3232422, -0.4511719, -14.5731707, 33.2317085, -12.3780489, 0.0159457
0.9853516, -0.3227539, -0.4443359, -14.6341467, 32.9268303, -12.0121956, 0.0135958
0.9746094, -0.3242188, -0.4360352, -14.6951227, 33.0487823, -11.8292685, 0.0119173
0.9658203, -0.3178711, -0.4291992, -14.6341467, 32.9268303, -11.6463413, 0.0124208
0.956543, -0.3168945, -0.4223633, -14.2682934, 32.2560997, -11.8292685, 0.0052033
0.9575195, -0.3188477, -0.4204102, -13.841464, 31.1585369, -11.9512196, -0.0028534
0.9580078, -0.340332, -0.4150391, -13.5975609, 28.7195129, -12.0121956, 0.0005035
0.9560547, -0.3505859, -0.4140625, -13.5365858, 27.8658543, -11.8902445, -0.0008392
0.9555664, -0.3569336, -0.4208984, -12.560976, 27.3170738, -11.341464, -0.0028534
0.9594727, -0.3642578, -0.4272461, -12.3170738, 27.3780499, -11.0975609, -0.0082246
0.9643555, -0.3681641, -0.434082, -10.7317076, 26.9512196, -10.7317076, -0.0186313
0.9638672, -0.3603516, -0.4360352, -8.841464, 26.3414631, -10.7926836, -0.0236667
0.9614258, -0.3500977, -0.4370117, -7.8658538, 26.2195129, -10.7926836, -0.0323949
0.9682617, -0.328125, -0.4355469, -6.0975609, 25.5487804, -10.3048782, -0.0364233
0.972168, -0.3139648, -0.4379883, -5.2439027, 25.2439022, -10.1829271, -0.0344091
0.9760742, -0.2939453, -0.4423828, -4.9390244, 24.3292694, -10, -0.0317235
0.9750977, -0.2841797, -0.4433594, -5.3048782, 23.9634151, -10.2439022, -0.0317235
0.972168, -0.2895508, -0.4399414, -6.8292685, 23.2317085, -10.2439022, -0.0283665
0.9716797, -0.2929688, -0.4384766, -7.6829271, 22.560976, -10.3658543, -0.0276951
0.9702148, -0.3115234, -0.4238281, -8.841464, 21.2195129, -9.9390249, -0.0288701
0.9638672, -0.3168945, -0.4145508, -8.9024391, 20.7317085, -9.6341467, -0.0219883
0.953125, -0.3286133, -0.3974609, -8.1707315, 20.2439022, -8.780488, -0.0256809
0.9492188, -0.3383789, -0.3969727, -6.3414636, 19.2682934, -8.2317076, -0.0276951
0.9433594, -0.3374023, -0.3999023, -4.7560978, 18.4146347, -8.3536587, -0.0229953
0.9458008, -0.3466797, -0.4077148, -3.0487804, 16.8902435, -8.1707315, -0.0270237
0.9477539, -0.3505859, -0.418457, -2.4390244, 15.9146347, -8.6585369, -0.0273594
0.9526367, -0.3613281, -0.4277344, -0.9756098, 14.3902445, -8.4756098, -0.0283665
0.9604492, -0.3666992, -0.4335938, -0.3048781, 14.0243902, -8.2926826, -0.0357519
0.9692383, -0.3725586, -0.4428711, 1.3414634, 13.9634151, -7.3780489, -0.0404517
0.9711914, -0.3725586, -0.4472656, 2.6829269, 14.3292685, -6.7073174, -0.0451514
0.9746094, -0.3618164, -0.449707, 5.2439027, 15, -6.3414636, -0.0441444
0.9804688, -0.355957, -0.4506836, 6.5853658, 15.4878054, -5.8536587, -0.0468299
0.980957, -0.3408203, -0.4594727, 8.780488, 15.4268293, -5.3658538, -0.0404517
0.9931641, -0.3276367, -0.4765625, 9.5731707, 14.6341467, -4.9390244, -0.0327306
0.9990234, -0.3305664, -0.4873047, 9.0243902, 14.0243902, -5.1219511, -0.0276951
1.0039062, -0.3481445, -0.5039062, 6.6463418, 13.2317076, -4.8780489, -0.0260166
1.0048828, -0.3530273, -0.5053711, 5, 13.4756098, -4.390244, -0.0256809
1.0087891, -0.3671875, -0.4956055, 2.0121951, 14.5731707, -3.3536587, -0.0337377
1.0029297, -0.3706055, -0.4833984, 1.097561, 15.2439032, -3.0487804, -0.0458228
1.0083008, -0.3735352, -0.4682617, 0.8536586, 14.5731707, -2.3170731, -0.0602579
1.0102539, -0.3759766, -0.4624023, 0.5487805, 13.9634151, -2.2560976, -0.0740215
1.0229492, -0.3754883, -0.4711914, 0.4878049, 12.2560978, -2.6829269, -0.0730144
1.0307617, -0.378418, -0.4785156, 0.2439024, 11.6463413, -2.9268293, -0.0666361
1.0424805, -0.3847656, -0.5009766, -1.5853659, 10.2439022, -2.9878049, -0.0565652
1.0615234, -0.3945312, -0.5200195, -3.0487804, 9.6341467, -2.4390244, -0.0500191
1.0649414, -0.3950195, -0.5239258, -3.6585367, 9.4512196, -2.2560976, -0.0431373
1.0825195, -0.3842773, -0.5307617, -3.8414636, 10.4878054, -1.097561, -0.0290379
1.0859375, -0.3740234, -0.5327148, -3.4756098, 10.9756098, -0.3658537, -0.021149
1.1030273, -0.3413086, -0.5512695, -2.7439024, 12.1341467, 0.6097561, -0.0139315
1.1079102, -0.3320312, -0.5668945, -2.9268293, 12.0731707, 0.8536586, -0.0206455
1.1171875, -0.3232422, -0.5991211, -4.8170733, 11.8292685, 0.1829268, -0.0276951
1.1152344, -0.3227539, -0.6137695, -6.8292685, 11.5853662, 0.1219512, -0.0340734
1.1142578, -0.3452148, -0.6313477, -10.9756098, 11.6463413, 0.5487805, -0.0404517
1.1118164, -0.3583984, -0.6337891, -12.9878054, 12.0121956, 0.9146342, -0.0428016
1.0981445, -0.394043, -0.6157227, -15.4878054, 13.3536587, 2.2560976, -0.0391089
1.0786133, -0.4121094, -0.6000977, -16.0975609, 15.3658543, 3.2317073, -0.0297093
1.0620117, -0.4111328, -0.59375, -15.7317076, 16.0975609, 3.5975611, -0.0176242
1.0332031, -0.4086914, -0.5932617, -15.060976, 17.3780499, 4.6951222, -0.005539
1.0219727, -0.3979492, -0.6000977, -15, 17.6219521, 5.670732, 0.0035248
1.0131836, -0.3710938, -0.6030273, -15.4268293, 17.1341476, 7.2560978, 0.0139315
1.0126953, -0.359375, -0.6035156, -16.2195129, 16.9512196, 7.9878049, 0.0159457
1.0141602, -0.3310547, -0.5810547, -18.2926826, 16.8902435, 9.8170738, 0.0149386
1.0092773, -0.3125, -0.5625, -19.5121956, 16.7682934, 11.280488, 0.0152743
1.0097656, -0.2871094, -0.5302734, -22.1341476, 16.2195129, 13.6585369, 0.0159457
1.0068359, -0.2783203, -0.5161133, -23.5975609, 15.060976, 14.2073174, 0.0125887
1.0004883, -0.2807617, -0.4951172, -27.4390259, 11.7682934, 14.7560978, 0.0097353
0.9785156, -0.3188477, -0.4921875, -31.7073174, 7.3780489, 15.060976, -0.002182
0.9628906, -0.3383789, -0.484375, -34.0243912, 4.8780489, 15.3048782, -0.0112459
0.9277344, -0.3979492, -0.465332, -37.8048782, 0.6097561, 16.9512196, -0.0176242
0.9106445, -0.4204102, -0.4511719, -38.3536606, -1.3414634, 18.1097565, -0.0209812
0.8847656, -0.4492188, -0.4194336, -36.8902435, -5.1829271, 20.1219521, -0.0193027
0.8754883, -0.4604492, -0.4091797, -35.2439041, -7.3780489, 20.7317085, -0.0135958
0.8603516, -0.4633789, -0.3950195, -31.4024391, -12.5, 21.1585369, -0.0162814
0.8530273, -0.456543, -0.3930664, -29.5731716, -15.060976, 20.9756107, -0.0171206
0.8442383, -0.4433594, -0.3916016, -27.0731716, -20.7317085, 20.8536587, -0.0115816
0.8383789, -0.4360352, -0.3974609, -26.5243912, -23.5365868, 20.9146347, -0.0162814
0.8344727, -0.4160156, -0.421875, -27.1341476, -29.2682934, 21.7073174, -0.0218204
0.8461914, -0.3945312, -0.4477539, -28.2926826, -35.0609779, 21.8292694, -0.0216526
0.8530273, -0.3901367, -0.4658203, -28.9024391, -38.1097565, 21.8902435, -0.0218204
0.8686523, -0.3891602, -0.5014648, -30.4268303, -43.0487823, 21.5243912, -0.018967
0.8681641, -0.3881836, -0.5146484, -31.4634151, -45.9756126, 21.4024391, -0.0162814
0.862793, -0.3950195, -0.5302734, -33.3536606, -49.7560997, 22.0121956, -0.0186313
0.859375, -0.4013672, -0.5234375, -34.1463432, -51.2804909, 22.5, -0.0193027
0.8457031, -0.4038086, -0.5019531, -35.6707344, -54.2073174, 23.1707325, -0.0218204
0.8369141, -0.4047852, -0.4936523, -36.2804871, -55.6707344, 23.5365868, -0.0229953
0.8110352, -0.3989258, -0.4960938, -37.6219521, -59.5121956, 24.1463413, -0.0182956
0.8061523, -0.3950195, -0.5024414, -38.4146347, -61.2195129, 24.3292694, -0.0181277
0.8007812, -0.3813477, -0.5356445, -40.8536606, -65.0609741, 25.4878063, -0.0139315
0.809082, -0.3803711, -0.574707, -43.4146347, -68.4756088, 26.7682934, -0.0152743
0.8227539, -0.3803711, -0.5947266, -44.2073174, -70.3658524, 27.560976, -0.0135958
0.8554688, -0.3842773, -0.6123047, -46.2804871, -72.9878082, 28.9024391, -0.0135958
0.8735352, -0.3847656, -0.6132812, -46.6463432, -73.4756088, 29.5121956, -0.0176242
0.8920898, -0.3847656, -0.597168, -47.3170738, -73.6585388, 30.3658543, -0.0191348
0.8974609, -0.3798828, -0.5839844, -47.6219521, -73.3536606, 30.4268303, -0.0206455
0.8891602, -0.3681641, -0.5654297, -48.4146347, -72.8658524, 30.8536587, -0.0176242
0.8813477, -0.3535156, -0.5654297, -48.9024391, -73.2317123, 31.4634151, -0.0186313
0.862793, -0.3359375, -0.581543, -50.3658562, -74.9390259, 32.8658562, -0.0193027
0.855957, -0.324707, -0.5878906, -51.5243912, -76.3414688, 33.4756088, -0.0162814
0.8574219, -0.328125, -0.6030273, -53.5365868, -80, 34.8780479, -0.0099031
0.8876953, -0.3554688, -0.5859375, -55.3658562, -82.5609741, 35.7926826, -0.0109102
0.9013672, -0.3759766, -0.5800781, -55.9756126, -83.7195129, 35.9146347, -0.0149386
0.9145508, -0.4179688, -0.5693359, -56.7682953, -84.7560959, 35.8536606, -0.0109102
0.9169922, -0.4345703, -0.5634766, -56.2804909, -84.6341476, 35.8536606, -0.012253
0.921875, -0.4584961, -0.5795898, -55.18293, -85.18293, 36.4634171, -0.018967
0.921875, -0.4594727, -0.5917969, -54.5121956, -85.7317123, 36.6463432, -0.0386053
0.9287109, -0.4492188, -0.6103516, -52.5609779, -87.68293, 37.8658562, -0.0632792
0.9389648, -0.4428711, -0.6220703, -52.1341476, -88.7195129, 38.2317085, -0.0797284
0.956543, -0.4228516, -0.6386719, -51.7073174, -89.9390259, 39.3902435, -0.0908064
0.9677734, -0.4101562, -0.6425781, -51.9512215, -90.3658524, 39.8780479, -0.0955062
0.9853516, -0.3925781, -0.6347656, -53.5975609, -91.5243912, 39.8780479, -0.0894636
1.0019531, -0.3852539, -0.6279297, -55.1219521, -93.3536606, 39.5121956, -0.0800641
1.0048828, -0.3911133, -0.6240234, -56.2804909, -94.4512253, 39.5731735, -0.0699931
1.0083008, -0.3969727, -0.6259766, -58.841465, -96.3414688, 39.4512215, -0.063447
1.0097656, -0.409668, -0.6298828, -59.6341476, -97.1951218, 40.3048782, -0.061265
1.0097656, -0.4248047, -0.6411133, -61.0975609, -98.7804871, 40.7926826, -0.0458228
1.0107422, -0.4331055, -0.6445312, -61.4634171, -100.1219559, 41.2804871, 0.002182
1.0102539, -0.4443359, -0.6420898, -61.4024391, -101.3414688, 42.3170738, 0.0555581
1.0126953, -0.4399414, -0.6435547, -61.0365868, -101.8292694, 42.6219521, 0.0850996
1.015625, -0.4345703, -0.6435547, -59.3292694, -103.1097565, 43.3536606, 0.1012131
1.019043, -0.4301758, -0.6445312, -58.9634171, -103.5365906, 43.9634171, 0.0948348
1.0258789, -0.4072266, -0.6469727, -58.4756126, -105.7317123, 44.2682953, 0.0793927
1.0302734, -0.3891602, -0.640625, -59.3292694, -107.6219559, 44.9390259, 0.0649577
1.0322266, -0.3837891, -0.6367188, -59.6341476, -109.0243912, 44.9390259, 0.0481727
1.0439453, -0.3813477, -0.6269531, -61.0365868, -111.7682953, 44.5731735, 0.0374304
1.0429688, -0.3852539, -0.6264648, -61.8902435, -113.1097565, 44.2682953, 0.0149386
1.0410156, -0.4042969, -0.6337891, -62.9268303, -116.2804871, 44.0243912, -0.0095674
1.0439453, -0.4125977, -0.644043, -63.6585388, -117.8048782, 44.0243912, -0.0209812
1.0419922, -0.4287109, -0.6855469, -64.2682953, -119.9390259, 44.0853653, -0.0330663
1.0444336, -0.4326172, -0.706543, -64.2073212, -121.0365906, 44.2682953, -0.0485084
1.0493164, -0.4477539, -0.7250977, -64.5731735, -121.7682953, 44.6951218, -0.0575723
1.0527344, -0.4511719, -0.7231445, -64.1463394, -122.1341476, 44.8170738, -0.0595865
1.0581055, -0.4458008, -0.7016602, -63.3536606, -121.646347, 44.5121956, -0.0558938
1.0517578, -0.4145508, -0.6870117, -62.0121956, -122.0121994, 44.0853653, -0.0438087
1.0419922, -0.3964844, -0.690918, -61.4024391, -122.2561035, 43.6585388, -0.0320592
1.0268555, -0.3671875, -0.7348633, -62.1341476, -123.9634171, 43.7195129, -0.0213169
1.0205078, -0.3608398, -0.7631836, -62.9878082, -124.6951218, 43.7804871, -0.0149386
1.0175781, -0.3696289, -0.7949219, -66.7073212, -127.7439041, 44.9390259, -0.01561
1.0195312, -0.3789062, -0.796875, -68.0487823, -128.9634247, 45.2439041, -0.0171206
1.0361328, -0.3969727, -0.7792969, -70.6097565, -130.8536682, 46.0365868, -0.0223239
1.0439453, -0.4082031, -0.7597656, -71.0975647, -131.3414612, 46.4024391, -0.0310521
1.0405273, -0.4267578, -0.722168, -70.18293, -131.1585388, 46.4634171, -0.0428016
1.034668, -0.4375, -0.7104492, -69.6951218, -131.3414612, 46.2804871, -0.0505226
1.0136719, -0.440918, -0.6943359, -68.1097565, -132.5, 46.0365868, -0.057908
0.9887695, -0.4272461, -0.6972656, -66.5853653, -135.4268341, 46.2804871, -0.0552224
0.9741211, -0.4169922, -0.7026367, -65.9756088, -137.4390259, 46.4024391, -0.0458228
0.9682617, -0.3930664, -0.7202148, -65.2439041, -142.1341553, 46.7073174, -0.0354162
0.9667969, -0.390625, -0.7392578, -65.4878082, -144.5731812, 46.7073174, -0.0260166
0.972168, -0.3945312, -0.7646484, -66.5853653, -148.5365906, 47.0731735, -0.0256809
0.9716797, -0.3979492, -0.7753906, -67.4390259, -150.6097565, 47.3170738, -0.0350805
0.9780273, -0.4165039, -0.7763672, -69.2682953, -154.3292694, 47.9268303, -0.0364233
0.9868164, -0.4248047, -0.765625, -69.8170776, -156.0975647, 47.9878044, -0.0339055
0.9882812, -0.4379883, -0.7319336, -69.2073212, -159.0243988, 47.5, -0.0303807
0.9775391, -0.4345703, -0.71875, -68.9024429, -160.5487823, 46.8292694, -0.0253452
0.9648438, -0.425293, -0.7192383, -67.2560959, -163.8414612, 45.1829262, -0.0164492
0.934082, -0.409668, -0.7451172, -65.9756088, -167.86586, 44.3902435, -0.0135958
0.9160156, -0.40625, -0.7631836, -65.6097565, -170.2439117, 43.7804871, -0.0068818
0.9018555, -0.3950195, -0.8149414, -65.9146347, -175.4268341, 44.2073174, -0.0041962
0.9038086, -0.3969727, -0.8510742, -66.5243912, -177.5609741, 44.5731735, -0.0028534
0.9223633, -0.4121094, -0.9091797, -67.8048782, -181.0975647, 45.9146347, -0.0025177
0.9345703, -0.421875, -0.9257812, -68.3536606, -182.2561035, 46.7073174, -0.0052033
0.9736328, -0.4370117, -0.921875, -69.2073212, -183.3536682, 47.1951218, -0.0045319
0.9882812, -0.440918, -0.9160156, -69.0243912, -183.2926941, 47.3170738, -0.0109102
1.0068359, -0.4360352, -0.9204102, -67.8658524, -182.0121918, 46.5243912, -0.0152743
0.9951172, -0.4189453, -0.9584961, -66.8292694, -181.3414612, 46.0365868, -0.0216526
0.9838867, -0.4101562, -0.980957, -66.0365906, -180.4268341, 45.4268303, -0.0204776
0.9760742, -0.3847656, -1.0161133, -66.6463394, -181.0975647, 46.5853653, -0.0204776
0.9780273, -0.3774414, -1.012207, -67.1951218, -182.0731812, 47.0121956, -0.0199741
0.9926758, -0.3681641, -0.9853516, -69.0243912, -182.6829376, 48.2317085, -0.0224918
1.0024414, -0.3691406, -0.9692383, -69.5731735, -182.1951294, 48.5975609, -0.0250095
1.0068359, -0.3813477, -0.9682617, -70.8536606, -181.7073212, 49.0243912, -0.0273594
0.9995117, -0.3891602, -0.9863281, -71.5243912, -181.9512177, 48.9024391, -0.0290379
0.9887695, -0.4179688, -1.0166016, -73.1097565, -183.9634247, 49.9390259, -0.0256809
0.9882812, -0.4321289, -1.0170898, -73.6585388, -185.4268341, 50.4878044, -0.0243381
1.003418, -0.4516602, -0.9746094, -73.4146347, -187.9878082, 51.341465, -0.0223239
1.0161133, -0.4541016, -0.8994141, -72.8048782, -188.7195129, 50.7317085, -0.0216526
1.0141602, -0.4394531, -0.8720703, -70.1219559, -188.0487823, 49.4512215, -0.0224918
0.9873047, -0.4238281, -0.8637695, -66.8902435, -188.1097565, 47.3170738, -0.0216526
0.9667969, -0.4145508, -0.8725586, -65.9146347, -189.5731812, 46.1585388, -0.0162814
0.9267578, -0.3964844, -0.9277344, -64.8780518, -194.5731812, 44.8170738, -0.0129244
0.9155273, -0.3828125, -0.9609375, -64.8780518, -197.4390259, 44.7560997, -0.0075532
0.9052734, -0.3691406, -1.0249023, -65.6707306, -202.012207, 45.9146347, -0.0152743
0.9155273, -0.3637695, -1.0449219, -66.0975647, -203.2317047, 46.8902435, -0.0374304
0.9536133, -0.3803711, -1.0424805, -66.1585388, -204.2682953, 48.1707344, -0.0506905
0.9760742, -0.394043, -1.0258789, -66.0975647, -204.6951294, 48.5975609, -0.0538796
1.0097656, -0.4223633, -0.980957, -64.5731735, -203.6585388, 47.6829262, -0.0525368
1.0083008, -0.4248047, -0.9614258, -63.9024391, -203.2926941, 46.7682953, -0.0377661
0.9882812, -0.4130859, -0.972168, -62.9268303, -203.2317047, 43.2926826, -0.0219883
0.9355469, -0.3730469, -0.996582, -62.1341476, -205.7926941, 40.8536606, -0.0097353
0.9086914, -0.3505859, -1.0102539, -62.0731735, -208.4146423, 39.8170738, -0.0062104
0.8725586, -0.3134766, -1.0180664, -62.8658562, -213.4146423, 39.3902435, -0.0015106
0.8666992, -0.3037109, -1.0117188, -63.9024391, -215.5487823, 39.5121956, 0.0070497
0.8623047, -0.3095703, -0.9780273, -66.4024429, -219.3292694, 39.6341476, 0.012253
0.8579102, -0.3212891, -0.9555664, -67.68293, -220.36586, 39.5121956, 0.0078889
0.8427734, -0.3525391, -0.9370117, -69.0243912, -222.5, 38.7804871, 0.0119173
0.8266602, -0.3701172, -0.940918, -69.5121994, -224.146347, 38.2317085, 0.0062104
0.7919922, -0.3828125, -0.9873047, -69.5731735, -228.2926941, 36.8902435, 0.0001678
0.7563477, -0.3798828, -1.0737305, -71.0365906, -233.5365906, 36.4634171, -0.0015106
0.7441406, -0.3730469, -1.1191406, -72.6219559, -235.36586, 36.341465, -0.0078889
0.7631836, -0.3515625, -1.1923828, -74.4512177, -237.8048859, 37.9878044, -0.0129244
0.7875977, -0.3432617, -1.2070312, -75.4268341, -237.7439117, 38.7804871, -0.0119173
0.8452148, -0.3198242, -1.1899414, -74.8780518, -234.4512177, 38.4146347, -0.012253
0.8652344, -0.3110352, -1.1611328, -74.2682953, -231.3414612, 37.5609779, -0.0068818
0.8730469, -0.3012695, -1.0961914, -72.5609741, -223.5975647, 34.8780479, -0.005539
0.8657227, -0.3027344, -1.0649414, -71.7073212, -220.5487823, 33.6585388, -0.0068818
0.8168945, -0.3193359, -1.0195312, -70.6097565, -217.6219635, 32.5, -0.0176242
0.784668, -0.3286133, -1.0092773, -70.4878082, -218.0487823, 32.2560997, -0.03122
0.7080078, -0.3554688, -1.0117188, -70.9146347, -220.4878082, 32.3780479, -0.0527047
0.6464844, -0.3686523, -1.034668, -72.0121994, -223.8414612, 32.7439041, -0.0693217
0.6240234, -0.362793, -1.0463867, -72.0121994, -224.8780518, 32.8048782, -0.0703288
0.5986328, -0.3452148, -1.0678711, -71.7073212, -226.5853729, 32.4390259, -0.0632792
0.5952148, -0.3334961, -1.0756836, -70.7926865, -227.1951294, 32.2560997, -0.0552224
0.6035156, -0.2973633, -1.0839844, -68.4146347, -227.86586, 31.7682934, -0.0498512
0.6142578, -0.2822266, -1.0869141, -67.5609741, -228.1707306, 31.2195129, -0.0458228
0.6347656, -0.2597656, -1.0864258, -66.8902435, -228.4756165, 29.9390259, -0.0350805
0.6401367, -0.2607422, -1.081543, -67.5609741, -228.4146423, 29.2682934, -0.0384375
0.6435547, -0.2695312, -1.0922852, -69.8780518, -227.6829376, 28.2926826, -0.0592508
0.6430664, -0.28125, -1.1186523, -71.5243912, -227.5609741, 28.1097565, -0.070161
0.6293945, -0.2949219, -1.1958008, -75.4878082, -227.3170776, 28.2317085, -0.0787213
0.6240234, -0.3095703, -1.2172852, -78.8414688, -227.9878082, 29.0243912, -0.0594186
0.6411133, -0.3188477, -1.1835938, -78.9634171, -228.23172, 29.3902454, -0.0176242
0.6757812, -0.3374023, -1.065918, -77.2560959, -226.3414612, 28.4756107, 0.0293736
0.6787109, -0.3349609, -1.0092773, -75.4878082, -223.4756165, 27.0731716, 0.0595865
0.6235352, -0.3320312, -0.9560547, -71.4634171, -216.9512177, 23.8414631, 0.0636149
0.574707, -0.3334961, -0.965332, -70, -214.8780518, 22.6829281, 0.0508583
0.4760742, -0.3183594, -1.0283203, -67.9878082, -216.1585388, 21.5243912, 0.0256809
0.4404297, -0.3066406, -1.0668945, -67.68293, -218.7804871, 21.9512196, 0.0018463
0.4155273, -0.2924805, -1.1289062, -67.1341476, -225.6707306, 23.9024391, -0.0182956
0.4257812, -0.2866211, -1.1269531, -66.4634171, -228.4756165, 25.060976, -0.0236667
0.487793, -0.28125, -1.0795898, -63.0487823, -229.8170776, 26.4634151, -0.0223239
0.5527344, -0.2641602, -0.9858398, -59.0853691, -225.2439117, 25.4878063, -0.0219883
0.5649414, -0.2539062, -0.9443359, -57.2560997, -221.5243988, 23.7195129, -0.0203098
0.5302734, -0.2294922, -0.9130859, -56.7682953, -215.9756165, 20.4268303, -0.0186313
0.4848633, -0.222168, -0.9355469, -57.8658562, -215.0609741, 19.5121956, -0.0270237
0.3901367, -0.1953125, -1.0634766, -63.4756126, -218.2926941, 20.060976, -0.0340734
0.3452148, -0.1704102, -1.1289062, -66.4634171, -221.0975647, 21.7073174, -0.0404517
0.324707, -0.1240234, -1.2231445, -71.2195129, -226.7682953, 25.6707325, -0.0498512
0.3447266, -0.1108398, -1.2250977, -72.7439041, -228.2926941, 27.6829281, -0.0471656
0.4248047, -0.1088867, -1.1591797, -73.5365906, -227.86586, 30.5487804, -0.0391089
0.4628906, -0.1132812, -1.1181641, -73.5975647, -224.8780518, 31.0975609, -0.0350805
0.5097656, -0.1118164, -1.0512695, -74.5731735, -216.0365906, 30.9756107, -0.0303807
0.4956055, -0.1025391, -1.0253906, -77.4390259, -207.5, 29.8780499, -0.0236667
0.4697266, -0.0966797, -1.0288086, -79.7560959, -204.8780518, 29.7560978, -0.0209812
0.3959961, -0.0839844, -1.0463867, -83.5975647, -203.2317047, 30.7317085, -0.0216526
0.3666992, -0.0874023, -1.0537109, -84.5121994, -204.3292694, 32.1341476, -0.0196384
0.3364258, -0.1079102, -1.0454102, -85.1219559, -205.5487823, 34.9390259, -0.0172885
0.3339844, -0.121582, -1.0097656, -84.6341476, -204.9390259, 35.7926826, -0.0129244
0.340332, -0.1586914, -0.9116211, -81.7682953, -200.4268341, 35.6707344, -0.0068818
0.3413086, -0.1743164, -0.8603516, -79.8170776, -197.3780518, 34.5121956, -0.0018463
0.3129883, -0.1992188, -0.8085938, -76.8902435, -191.8902435, 31.4024391, -0.0018463
0.2827148, -0.2021484, -0.8193359, -75.8536606, -191.0365906, 29.8780499, -0.0003357
0.2045898, -0.1948242, -0.9194336, -75.9146347, -192.5609741, 27.5, -0.0041962
0.1538086, -0.1904297, -1.0004883, -75.9756088, -198.0487823, 27.6829281, -0.0048676
0.1538086, -0.190918, -1.0083008, -75, -201.2195129, 28.5975609, -0.012253
0.2021484, -0.1938477, -0.9887695, -71.2195129, -203.5365906, 29.0243912, -0.0135958
0.2353516, -0.1889648, -0.9775391, -69.2073212, -202.1951294, 28.3536587, -0.023331
0.2885742, -0.1606445, -0.9692383, -66.5243912, -196.0365906, 25.7317085, -0.043473
0.2939453, -0.1538086, -0.9746094, -65.7926865, -192.1951294, 24.5121956, -0.0528725
0.2861328, -0.1479492, -0.9848633, -65.8536606, -186.5243988, 22.8048782, -0.0491798
0.2802734, -0.1582031, -0.9736328, -65.9756088, -185.0609741, 23.0487804, -0.047837
0.2724609, -0.1860352, -0.9135742, -65.2439041, -182.7439117, 24.1463413, -0.04448
0.2753906, -0.1948242, -0.8740234, -64.2073212, -180.9146423, 24.8170738, -0.0344091
0.2797852, -0.1733398, -0.8432617, -61.0365868, -174.3902435, 23.8414631, -0.0270237
0.2451172, -0.109375, -0.8759766, -59.8170738, -167.8048859, 20.3048782, -0.0169528
0.2226562, -0.0786133, -0.8867188, -59.0853691, -165.7926941, 18.9024391, -0.0105745
0.1757812, -0.0458984, -0.8647461, -59.5121956, -164.7561035, 17.1951218, -0.0095674
0.1704102, -0.0400391, -0.8286133, -60, -165.1219482, 17.6829281, -0.0125887
0.1757812, -0.0546875, -0.7519531, -61.0975609, -164.3902435, 18.0487804, -0.0082246
0.1713867, -0.0668945, -0.7314453, -61.4634171, -162.86586, 18.2926826, -0.0135958
0.1367188, -0.1064453, -0.7460938, -62.6219521, -161.0975647, 18.9634151, -0.0181277
0.1206055, -0.1323242, -0.765625, -62.2560997, -161.2804871, 19.5121956, -0.0231632
0.1030273, -0.1850586, -0.7592773, -60.4268303, -163.7195129, 20.9756107, -0.0256809
0.1113281, -0.2050781, -0.7324219, -58.1097565, -164.5121918, 21.280489, -0.0280308
0.137207, -0.2006836, -0.6586914, -52.8658562, -161.5853729, 19.1463413, -0.0354162
0.137207, -0.1240234, -0.6640625, -49.8780518, -155.0609741, 13.5975609, -0.0354162
0.109375, -0.0776367, -0.6948242, -50.1829262, -152.86586, 10.3658543, -0.0323949
0.0317383, -0.0229492, -0.7329102, -53.2317085, -153.2926941, 6.4634147, -0.0339055
0.0043945, -0.0219727, -0.7197266, -55.0609779, -155.2439117, 6.280488, -0.0397803
-0.0024414, -0.0703125, -0.6435547, -57.8658562, -159.5121918, 8.9634151, -0.0493477
0.003418, -0.0961914, -0.6083984, -57.7439041, -160, 10.3048782, -0.0592508
0.0024414, -0.1430664, -0.5854492, -55.2439041, -159.7561035, 11.280488, -0.0627756
-0.0083008, -0.1489258, -0.6020508, -52.9268303, -159.7561035, 11.4634151, -0.0639506
-0.0166016, -0.1225586, -0.6552734, -48.9634171, -160.7317047, 10.8536587, -0.0699931
-0.0205078, -0.0947266, -0.6821289, -47.9268303, -161.0365906, 10.6097565, -0.0896315
-0.0087891, -0.0439453, -0.7011719, -48.0487823, -160.1829376, 8.719512, -0.1109483
-0.0039062, -0.0458984, -0.6665039, -51.2195129, -157.7439117, 6.4024391, -0.1156481
-0.0029297, -0.0673828, -0.6396484, -52.8048782, -156.2804871, 5.9756098, -0.1079271
-0.0253906, -0.1308594, -0.5942383, -53.7195129, -155.1829376, 6.5243902, -0.0955062
-0.0390625, -0.1542969, -0.6010742, -53.4146347, -155.0609741, 6.9512196, -0.0710002
-0.0688477, -0.1660156, -0.6728516, -51.5243912, -156.0975647, 6.9512196, -0.033402
-0.0737305, -0.144043, -0.734375, -50.9146347, -156.4634247, 6.0365853, -0.0025177
-0.0839844, -0.0800781, -0.8320312, -51.9512215, -156.0975647, 3.2317073, 0.0273594
-0.0751953, -0.0644531, -0.8442383, -53.7804909, -155.3048859, 2.5, 0.0461585
-0.050293, -0.0932617, -0.7763672, -56.9512215, -152.0731812, 2.0121951, 0.0639506
-0.0341797, -0.1259766, -0.7163086, -57.3170738, -149.6341553, 2.3170731, 0.0750286
-0.0078125, -0.1938477, -0.6137695, -55.4268303, -143.6585388, 2.4390244, 0.0730144
-0.0454102, -0.2114258, -0.625, -52.0731735, -137.4390259, 0.4268293, 0.0683146
-0.0751953, -0.1982422, -0.6777344, -51.4634171, -135.3048859, -0.9756098, 0.0652934
-0.1508789, -0.1499023, -0.7827148, -51.5243912, -135.6097565, -3.4146342, 0.0555581
-0.1679688, -0.1357422, -0.796875, -52.2560997, -136.646347, -3.9024391, 0.0458228
-0.1567383, -0.1513672, -0.7446289, -53.1707344, -137.3780518, -3.8414636, 0.0397803
-0.1416016, -0.1777344, -0.6943359, -53.4146347, -136.4024353, -3.4756098, 0.023331
-0.1245117, -0.2460938, -0.6386719, -51.7682953, -132.5609741, -3.4146342, 0.0078889
-0.1318359, -0.2641602, -0.6386719, -50, -131.3414612, -3.5365853, -0.0058747
-0.1435547, -0.2431641, -0.6870117, -45.5487823, -129.0243988, -5.1219511, -0.0099031
-0.1494141, -0.2041016, -0.7143555, -44.3292694, -127.4390259, -6.4634147, -0.0077211
-0.1621094, -0.1123047, -0.7524414, -44.2682953, -123.6585388, -10.060976, -0.018967
-0.184082, -0.0712891, -0.7456055, -47.8048782, -120.0609818, -12.560976, -0.0293736
-0.1928711, -0.0844727, -0.7373047, -49.4512215, -118.7804871, -12.5, -0.0352483
-0.1972656, -0.159668, -0.7158203, -51.6463432, -117.3170776, -10.5487804, -0.0344091
-0.1914062, -0.1884766, -0.6987305, -51.6463432, -116.2195129, -9.2073174, -0.0407874
-0.1777344, -0.2119141, -0.6542969, -49.9390259, -111.7073212, -9.5121956, -0.0399481
-0.1708984, -0.1967773, -0.6420898, -48.9634171, -108.6585388, -10.8536587, -0.0399481
-0.2128906, -0.1479492, -0.6201172, -47.7439041, -102.6219559, -14.7560978, -0.0404517
-0.2416992, -0.1240234, -0.6074219, -47.7439041, -100.9756088, -16.3414631, -0.0364233
-0.2963867, -0.0913086, -0.6044922, -49.4512215, -99.8780518, -17.8048782, -0.0323949
-0.3183594, -0.0878906, -0.6191406, -50.3658562, -100.8536606, -17.6219521, -0.0290379
-0.3457031, -0.0991211, -0.6772461, -53.6585388, -104.3292694, -16.6463413, -0.0270237
-0.3310547, -0.1357422, -0.6987305, -55.2439041, -107.4390259, -14.6951227, -0.0236667
-0.3027344, -0.1547852, -0.6933594, -55.18293, -107.8658524, -13.9634151, -0.0293736
-0.2441406, -0.1591797, -0.6523438, -55.3048782, -104.4512253, -15.2439032, -0.0317235
-0.2314453, -0.1547852, -0.6259766, -55.1219521, -101.646347, -16.6463413, -0.0359197
-0.2568359, -0.1523438, -0.5947266, -54.5731735, -96.5853653, -19.4512196, -0.0347448
-0.2797852, -0.152832, -0.5913086, -54.3902435, -95.6097565, -20, -0.0350805
-0.3237305, -0.1513672, -0.6196289, -53.0487823, -97.5, -19.3292694, -0.0317235
-0.3320312, -0.1469727, -0.6489258, -52.1951218, -98.8414688, -19.0243912, -0.0287022
-0.3393555, -0.1186523, -0.7060547, -51.7073174, -100.4268341, -18.3536587, -0.0226596
-0.3354492, -0.1142578, -0.706543, -51.8292694, -100.0609818, -18.4146347, -0.0115816
-0.3222656, -0.1210938, -0.6430664, -52.4390259, -97.2561035, -19.2682934, -0.0109102
-0.3208008, -0.1386719, -0.5712891, -51.8292694, -93.1097565, -19.939024, -0.0115816
-0.3442383, -0.1445312, -0.5722656, -51.2195129, -91.7682953, -20.4268303, -0.0095674
-0.390625, -0.1474609, -0.6489258, -50.2439041, -93.5365906, -20.6097565, -0.012253
-0.4067383, -0.1455078, -0.7055664, -49.8170738, -96.2195129, -20.1829281, -0.0166171
-0.390625, -0.1235352, -0.7817383, -49.9390259, -100.6707306, -18.5975609, -0.0250095
-0.3637695, -0.112793, -0.784668, -50.3048782, -100.7317123, -18.1097565, -0.04448
-0.309082, -0.1157227, -0.7250977, -50.4878044, -96.5243912, -18.4146347, -0.0780499
-0.2998047, -0.1337891, -0.6860352, -50.3658562, -93.2926865, -18.7195129, -0.1022202
-0.3149414, -0.1762695, -0.6469727, -49.8170738, -88.1707306, -19.4512196, -0.1163195
-0.3666992, -0.1914062, -0.6953125, -49.5121956, -87.3780518, -19.6341476, -0.1116197
-0.3955078, -0.1870117, -0.7290039, -48.7195129, -89.3902435, -19.939024, -0.0840925
-0.4174805, -0.1733398, -0.7451172, -47.1341476, -91.8902435, -18.5975609, -0.0216526
-0.4091797, -0.1591797, -0.7260742, -46.341465, -91.8902435, -17.8658543, 0.0399481
-0.390625, -0.1176758, -0.6591797, -45.1829262, -87.9878082, -17.439024, 0.0762036
-0.3969727, -0.1015625, -0.6328125, -44.6341476, -84.7560959, -18.0487804, 0.0553902
-0.4453125, -0.097168, -0.6313477, -44.5121956, -81.3414688, -18.7195129, 0.0149386
-0.4746094, -0.1049805, -0.6464844, -44.8170738, -81.8902435, -18.1707325, -0.0585794
-0.5063477, -0.121582, -0.6821289, -44.1463432, -85.3048782, -15.6097565, -0.1233692
-0.4990234, -0.1298828, -0.690918, -43.7804871, -87.1341476, -13.6585369, -0.1399863
-0.4658203, -0.1420898, -0.6728516, -42.5, -86.646347, -11.8902445, -0.1337758
-0.4477539, -0.1489258, -0.6416016, -42.0731735, -85.3658524, -11.7682934, -0.1163195
-0.4516602, -0.1391602, -0.6245117, -41.4024391, -80.3658524, -12.4390249, -0.0814069
-0.4765625, -0.1088867, -0.5976562, -40.8536606, -76.2195129, -14.1463413, -0.0431373
-0.5009766, -0.0878906, -0.5898438, -40.5487823, -74.4512177, -15, -0.0038605
-0.5571289, -0.0581055, -0.5854492, -40, -73.6585388, -14.5121956, 0.036759
-0.5766602, -0.0600586, -0.5893555, -40.4268303, -73.9634171, -13.5975609, 0.0696574
-0.5849609, -0.0766602, -0.6108398, -40.6097565, -75.6097565, -11.4634151, 0.0871138
-0.5776367, -0.0888672, -0.6225586, -40.6707344, -76.0975647, -10.060976, 0.0985275
-0.5517578, -0.1132812, -0.6044922, -39.7560997, -75.4878082, -9.2073174, 0.1018845
-0.5380859, -0.1298828, -0.5805664, -38.5365868, -73.9024429, -8.719512, 0.1005417
-0.5239258, -0.1513672, -0.5332031, -35.8536606, -70.18293, -8.5975609, 0.082414
-0.5429688, -0.1542969, -0.5141602, -34.0853653, -68.4146347, -8.9634151, 0.0595865
-0.5551758, -0.144043, -0.5131836, -30.6707325, -65.6707306, -9.1463413, 0.0330663
-0.5874023, -0.1083984, -0.5209961, -27.9878063, -63.6585388, -9.3292685, 0.0142672
-0.6010742, -0.0917969, -0.5185547, -26.9512196, -62.7439041, -9.3292685, -0.0020142
-0.621582, -0.0712891, -0.5185547, -25.9756107, -61.5853691, -8.4756098, -0.0186313
-0.6235352, -0.0722656, -0.5268555, -25.4878063, -61.341465, -8.1097565, -0.0246738
-0.6245117, -0.0961914, -0.5532227, -25.3048782, -61.341465, -6.7682929, -0.0451514
-0.621582, -0.1113281, -0.5541992, -25, -61.2195129, -6.1585369, -0.0639506
-0.5961914, -0.1430664, -0.5498047, -23.2317085, -59.4512215, -4.8780489, -0.0693217
-0.5883789, -0.1567383, -0.5375977, -21.6463413, -57.5609779, -4.5121951, -0.0656291
-0.5751953, -0.1669922, -0.5073242, -17.8658543, -53.6585388, -4.6951222, -0.0585794
-0.5839844, -0.1572266, -0.4824219, -14.2073174, -48.4756126, -5.5487804, -0.0464942
-0.5932617, -0.1455078, -0.4765625, -12.4390249, -46.341465, -5.7317076, -0.0313878
-0.6274414, -0.1064453, -0.4799805, -11.0975609, -42.9878044, -5.9146342, -0.0198062
-0.6416016, -0.0908203, -0.4882812, -11.0365858, -42.0731735, -6.2195125, -0.0119173
