Application:, Trigno Discover (1.6.5)
Date/Time:, 29/01/2025 10:09:30
Collection Length (seconds):, 34.9245
wrist (81457), , , , , , bicep (81139)
sensor mode: 609, , , , , , sensor mode: 40
ACC X (G), ACC Y (G), ACC Z (G), GYRO X (deg/s), GYRO Y (deg/s), GYRO Z (deg/s), EMG 1 (mV)
370.3704 Hz, 370.3704 Hz, 370.3704 Hz, 370.3704 Hz, 370.3704 Hz, 370.3704 Hz, 2148.1481 Hz
0.9663086, -0.0649414, -0.3168945, -11.280488, -5.4268293, -2.0731707, -0.0553902
0.9609375, -0.0610352, -0.3227539, -11.0365858, -5.4268293, -2.4390244, -0.0647898
0.9604492, -0.0483398, -0.3334961, -11.4634151, -5.1829271, -2.1341465, -0.0728466
0.9677734, -0.0444336, -0.3369141, -11.5853662, -5.4268293, -2.195122, -0.0782177
0.9790039, -0.0429688, -0.3354492, -11.8292685, -6.0975609, -2.0121951, -0.0835889
0.9833984, -0.0507812, -0.3349609, -11.8292685, -6.1585369, -1.8902439, -0.0852674
0.9833984, -0.0600586, -0.3359375, -12.6219511, -5.9756098, -1.2804878, -0.0822461
0.9804688, -0.0610352, -0.3359375, -12.2560978, -5.2439027, -1.0365853, -0.0782177
0.9682617, -0.0551758, -0.3339844, -12.0121956, -4.6951222, -0.8536586, -0.0637827
0.9624023, -0.0473633, -0.3305664, -12.0121956, -4.4512196, -0.7926829, -0.0587472
0.9638672, -0.0507812, -0.3300781, -11.6463413, -4.7560978, -1.097561, -0.063447
0.9663086, -0.0556641, -0.3330078, -12.3170738, -5.7317076, -1.097561, -0.0661326
0.9726562, -0.0615234, -0.3300781, -12.2560978, -5.670732, -0.9756098, -0.0647898
0.9790039, -0.0649414, -0.324707, -12.1341467, -5.3658538, -0.7926829, -0.0647898
0.9790039, -0.0644531, -0.3237305, -11.6463413, -4.9390244, -0.9146342, -0.0654612
0.9790039, -0.0629883, -0.3173828, -11.280488, -4.1463413, -0.7926829, -0.0708324
0.9750977, -0.0605469, -0.3164062, -11.0975609, -3.9024391, -0.7926829, -0.0715038
0.972168, -0.0595703, -0.315918, -11.219512, -4.5121951, -0.9146342, -0.0647898
0.9716797, -0.0595703, -0.3164062, -11.1585369, -4.9390244, -0.8536586, -0.0486763
0.9726562, -0.0649414, -0.3203125, -11.5243902, -5.670732, -0.8536586, -0.0328985
0.9731445, -0.0678711, -0.3198242, -11.7682934, -6.0365853, -0.7926829, -0.0167849
0.9760742, -0.0712891, -0.3227539, -11.4634151, -5.670732, -0.4268293, -0.017792
0.9770508, -0.074707, -0.3242188, -10.9756098, -5.1219511, -0.3658537, -0.0298772
0.9750977, -0.0727539, -0.3251953, -10.7926836, -4.8170733, -0.2439024, -0.0332341
0.96875, -0.0620117, -0.3134766, -10.7926836, -4.2073174, -0.2439024, -0.03122
0.9672852, -0.0576172, -0.3085938, -10.7926836, -4.390244, -0.4878049, -0.0328985
0.9682617, -0.0498047, -0.3041992, -10.8536587, -4.2682929, -0.7317073, -0.0298772
0.965332, -0.0483398, -0.3139648, -10.7317076, -5.1219511, -1.097561, -0.0318914
0.9594727, -0.0561523, -0.3237305, -11.219512, -5.4268293, -0.7926829, -0.0352483
0.9648438, -0.0615234, -0.3217773, -11.4024391, -5.7317076, -0.3658537, -0.0292058
0.9682617, -0.0644531, -0.3110352, -10.9146347, -4.7560978, 0.2439024, -0.0198062
0.9663086, -0.0507812, -0.3022461, -9.7560978, -3.4756098, 0.0609756, -0.017792
0.9628906, -0.0473633, -0.3085938, -9.6341467, -2.9268293, -0.6097561, -0.0151064
0.9501953, -0.0454102, -0.3271484, -10.060976, -3.7195122, -1.0365853, -0.0157778
0.9482422, -0.0478516, -0.3344727, -10.3658543, -4.390244, -0.8536586, -0.0288701
0.9589844, -0.059082, -0.3344727, -11.4634151, -5.3658538, -0.4878049, -0.035584
0.9667969, -0.0649414, -0.3325195, -11.4634151, -5.609756, -0.2439024, -0.0342412
0.9707031, -0.0688477, -0.3320312, -10.6707315, -4.0243902, 0.0609756, -0.0325628
0.9711914, -0.0634766, -0.3334961, -10.3048782, -3.2317073, 0, -0.0285344
0.9594727, -0.0507812, -0.3271484, -10.3048782, -2.6219513, -0.2439024, -0.03122
0.9604492, -0.0488281, -0.3198242, -10.4268293, -2.5, -0.4268293, -0.0365911
0.9604492, -0.0458984, -0.3134766, -10.8536587, -3.2926829, -0.3048781, -0.0379339
0.9599609, -0.0463867, -0.3105469, -10.9146347, -3.9634147, -0.3048781, -0.0439765
0.9589844, -0.0527344, -0.3120117, -11.0975609, -4.0243902, 0.1219512, -0.0513619
0.9619141, -0.0649414, -0.3198242, -11.219512, -4.0243902, 0.6097561, -0.0540475
0.9584961, -0.0644531, -0.3164062, -11.4024391, -3.9024391, 1.0365853, -0.056733
0.9580078, -0.0585938, -0.3115234, -10.9756098, -3.1097562, 1.0365853, -0.056733
0.9580078, -0.0551758, -0.3095703, -10.9146347, -3.0487804, 0.4268293, -0.0527047
0.9560547, -0.0532227, -0.3129883, -11.5243902, -3.4756098, 0.4268293, -0.0513619
0.9575195, -0.0546875, -0.3139648, -12.0731707, -4.0243902, 0.4268293, -0.0594186
0.9638672, -0.0615234, -0.3164062, -12.3170738, -4.7560978, 0.9146342, -0.063447
0.9692383, -0.0576172, -0.3129883, -12.560976, -4.5731707, 1.097561, -0.0654612
0.9692383, -0.0556641, -0.3066406, -11.8902445, -3.7804878, 1.3414634, -0.0674754
0.9604492, -0.0507812, -0.3032227, -11.4634151, -3.8414636, 1.0365853, -0.0621042
0.9589844, -0.0517578, -0.3041992, -11.5243902, -4.2682929, 1.2804878, -0.0607614
0.9555664, -0.0561523, -0.3012695, -12.1341467, -4.5121951, 1.1585366, -0.0627756
0.9580078, -0.0546875, -0.300293, -12.2560978, -4.9390244, 1.2804878, -0.063447
0.9614258, -0.059082, -0.2978516, -12.0121956, -5.0609756, 1.3414634, -0.0641184
0.9599609, -0.0600586, -0.2993164, -11.8292685, -4.9390244, 0.9756098, -0.0647898
0.9560547, -0.0620117, -0.2983398, -11.219512, -4.5731707, 1.1585366, -0.0641184
0.9575195, -0.0600586, -0.2963867, -11.0975609, -4.390244, 1.097561, -0.0674754
0.9604492, -0.0551758, -0.293457, -10.9756098, -4.2073174, 0.6097561, -0.0708324
0.9570312, -0.0556641, -0.2954102, -11.1585369, -4.4512196, 0.5487805, -0.0748608
0.9526367, -0.059082, -0.2998047, -11.4024391, -5.1219511, 0.6097561, -0.073518
0.9501953, -0.0678711, -0.3061523, -11.219512, -5.3048782, 0.6707317, -0.0704967
0.9550781, -0.0683594, -0.3061523, -11.0975609, -5.3658538, 0.6097561, -0.0627756
0.9594727, -0.0620117, -0.300293, -10.060976, -4.6341462, 0.8536586, -0.0594186
0.9609375, -0.0507812, -0.2944336, -9.8170738, -4.0853658, 0.4878049, -0.0520333
0.9541016, -0.0380859, -0.3007812, -9.4512196, -4.0243902, 0.3658537, -0.0459907
0.9536133, -0.0341797, -0.3046875, -9.8170738, -4.390244, 0.1219512, -0.0379339
0.9541016, -0.0400391, -0.3105469, -10.4268293, -5.4878049, 1.0365853, -0.0298772
0.9584961, -0.0439453, -0.3115234, -10.8536587, -5.670732, 1.0365853, -0.0271916
0.9609375, -0.0493164, -0.3046875, -10.9146347, -5.3658538, 1.5243902, -0.0325628
0.9643555, -0.046875, -0.3056641, -10.6707315, -5.0609756, 1.4634147, -0.0339055
0.9609375, -0.0478516, -0.309082, -9.8170738, -4.5121951, 1.3414634, -0.0285344
0.9550781, -0.046875, -0.3139648, -10.1829271, -4.6341462, 1.2195122, -0.0271916
0.9545898, -0.0463867, -0.3178711, -10.3658543, -4.8170733, 1.3414634, -0.017792
0.9594727, -0.0512695, -0.3144531, -10.8536587, -5.0609756, 1.6463414, -0.0151064
0.9594727, -0.0498047, -0.3105469, -10.9146347, -4.8780489, 1.402439, -0.0171206
0.9594727, -0.0556641, -0.3081055, -10.7926836, -4.5121951, 1.7073171, -0.0151064
0.9594727, -0.059082, -0.3037109, -10.6097565, -4.390244, 1.8292683, -0.0218204
0.9575195, -0.0576172, -0.3017578, -10.5487804, -4.390244, 1.6463414, -0.027863
0.9550781, -0.0541992, -0.3007812, -10.9756098, -4.4512196, 1.6463414, -0.0258488
0.9526367, -0.0556641, -0.3046875, -10.5487804, -4.5731707, 1.4634147, -0.0285344
0.9575195, -0.0571289, -0.300293, -10.4878054, -4.9390244, 1.3414634, -0.0379339
0.9609375, -0.0693359, -0.2978516, -10.060976, -5, 1.5243902, -0.0446479
0.9614258, -0.0712891, -0.2949219, -9.6951218, -4.6341462, 1.5853659, -0.0486763
0.9570312, -0.0644531, -0.2998047, -9.7560978, -4.4512196, 1.3414634, -0.0392767
0.9501953, -0.0483398, -0.2963867, -9.7560978, -3.7804878, 1.5853659, -0.0238346
0.9492188, -0.046875, -0.2939453, -9.8170738, -3.8414636, 1.1585366, -0.0117494
0.9516602, -0.0341797, -0.2988281, -9.6341467, -4.5121951, 0.9756098, -0.0010071
0.9541016, -0.0366211, -0.3056641, -9.9390249, -5, 0.8536586, 0.0117494
0.9604492, -0.0473633, -0.3178711, -10.3048782, -5.4878049, 1.2804878, 0.0117494
0.9638672, -0.0556641, -0.3203125, -10.3658543, -5.3658538, 1.4634147, 0.0077211
0.9658203, -0.0639648, -0.3115234, -10.6097565, -4.8170733, 2.1341465, 0.0057069
0.9619141, -0.0629883, -0.3066406, -10.1829271, -4.2682929, 2.0731707, -0.0043641
0.9526367, -0.0493164, -0.2910156, -9.5731707, -3.1097562, 1.5853659, -0.0124208
0.9433594, -0.0449219, -0.2880859, -9.3902445, -3.8414636, 1.1585366, -0.0218204
0.9433594, -0.046875, -0.2958984, -9.6951218, -4.6951222, 1.2195122, -0.0231632
0.9536133, -0.0644531, -0.3017578, -10.5487804, -5.9756098, 1.402439, -0.0258488
0.9599609, -0.0717773, -0.3051758, -10.3658543, -6.2195125, 1.5853659, -0.0412909
0.9731445, -0.0766602, -0.3017578, -9.6341467, -5.7926831, 1.7682927, -0.0547189
0.9746094, -0.0751953, -0.3027344, -8.9024391, -5.0609756, 1.5243902, -0.0540475
0.9711914, -0.065918, -0.2988281, -8.2926826, -4.390244, 1.2804878, -0.0500191
0.9594727, -0.0595703, -0.3012695, -8.4146347, -4.6341462, 1.1585366, -0.0426337
0.9560547, -0.0610352, -0.2998047, -8.719512, -4.9390244, 1.0365853, -0.0302129
0.9589844, -0.0581055, -0.2949219, -9.0243902, -5.670732, 0.9756098, -0.0231632
0.9638672, -0.0625, -0.2978516, -8.9024391, -6.3414636, 0.9146342, -0.017792
0.9638672, -0.0698242, -0.3051758, -8.9024391, -6.7073174, 1.1585366, -0.0198062
0.9628906, -0.074707, -0.3105469, -9.0243902, -6.8292685, 1.1585366, -0.0218204
0.9609375, -0.0708008, -0.3095703, -9.2682924, -6.2195125, 1.4634147, -0.0218204
0.9580078, -0.0605469, -0.3046875, -9.2682924, -5.9756098, 1.7682927, -0.024506
0.9555664, -0.0429688, -0.2949219, -8.841464, -5.670732, 1.3414634, -0.0318914
0.9545898, -0.0356445, -0.2949219, -8.719512, -5.7317076, 1.1585366, -0.03122
0.9570312, -0.0332031, -0.2993164, -9.0243902, -6.7073174, 1.097561, -0.0339055
0.9614258, -0.0341797, -0.3007812, -9.7560978, -7.1951222, 1.3414634, -0.0325628
0.9707031, -0.0366211, -0.2885742, -10.4268293, -6.890244, 2.1341465, -0.0285344
0.9702148, -0.0322266, -0.2861328, -10.3658543, -6.5243902, 2.3170731, -0.027863
0.9619141, -0.0268555, -0.2866211, -9.8170738, -5.609756, 2.0731707, -0.0275273
0.9462891, -0.034668, -0.3085938, -10.1219511, -6.0365853, 2.0121951, -0.03122
0.9443359, -0.0424805, -0.3168945, -10.3658543, -6.8292685, 1.8902439, -0.0426337
0.9516602, -0.0551758, -0.3212891, -10.9146347, -7.1341467, 2.5, -0.0473335
0.9570312, -0.0610352, -0.3183594, -10.8536587, -7.0731707, 2.6829269, -0.0543832
0.9633789, -0.0654297, -0.3056641, -10.1219511, -5.7926831, 2.0731707, -0.0835889
0.9638672, -0.0654297, -0.3022461, -9.3292685, -5.1829271, 1.8902439, -0.1054093
0.9633789, -0.0683594, -0.3017578, -8.4146347, -4.390244, 1.6463414, -0.1077592
0.9604492, -0.0683594, -0.3066406, -8.4756098, -4.6341462, 1.5853659, -0.1037308
0.9604492, -0.0600586, -0.3100586, -8.9024391, -4.8170733, 1.5243902, -0.0876173
0.965332, -0.0419922, -0.3100586, -8.719512, -4.5121951, 1.6463414, -0.0647898
0.9682617, -0.0415039, -0.3056641, -8.780488, -4.0243902, 1.097561, -0.0486763
0.9726562, -0.0449219, -0.3110352, -8.780488, -4.0243902, 1.097561, -0.0339055
0.9726562, -0.046875, -0.3168945, -8.719512, -4.5731707, 1.3414634, -0.024506
0.9746094, -0.059082, -0.3178711, -9.1463413, -4.6341462, 1.8902439, -0.0382696
0.9775391, -0.0644531, -0.3125, -8.9634151, -4.4512196, 1.6463414, -0.0574044
0.9707031, -0.0649414, -0.3012695, -8.6585369, -3.5365853, 1.8902439, -0.0637827
0.9648438, -0.0644531, -0.2998047, -8.780488, -3.4756098, 1.5243902, -0.0694896
0.953125, -0.0620117, -0.3007812, -8.780488, -3.2317073, 1.2804878, -0.0553902
0.9492188, -0.0644531, -0.3041992, -9.0243902, -3.3536587, 1.402439, -0.0298772
0.9599609, -0.0581055, -0.3110352, -9.1463413, -4.3292685, 1.3414634, -0.0191348
0.9672852, -0.0532227, -0.3115234, -9.3292685, -4.2682929, 1.4634147, -0.0231632
0.9716797, -0.0541992, -0.3105469, -9.3292685, -4.2073174, 1.2195122, -0.0298772
0.9716797, -0.0527344, -0.3071289, -9.3902445, -3.8414636, 1.1585366, -0.0365911
0.9692383, -0.0532227, -0.3095703, -9.0243902, -3.7804878, 1.3414634, -0.0459907
0.9633789, -0.0600586, -0.3095703, -9.0853662, -4.1463413, 1.402439, -0.0493477
0.965332, -0.0629883, -0.3041992, -9.4512196, -4.0853658, 1.402439, -0.0513619
0.9619141, -0.0703125, -0.2998047, -9.5121956, -4.2682929, 1.097561, -0.0527047
0.9624023, -0.0727539, -0.2983398, -9.4512196, -4.1463413, 1.2804878, -0.0574044
0.9560547, -0.0654297, -0.2954102, -9.5731707, -3.9024391, 0.8536586, -0.0594186
0.9584961, -0.0620117, -0.2983398, -9.5121956, -3.9024391, 0.6097561, -0.0728466
0.9580078, -0.050293, -0.293457, -9.5731707, -4.0853658, 0.9756098, -0.0882887
0.9697266, -0.034668, -0.2900391, -9.0853662, -3.9634147, 0.9146342, -0.0869459
0.9770508, -0.0297852, -0.2900391, -8.6585369, -3.8414636, 1.0365853, -0.0849317
0.9804688, -0.0283203, -0.300293, -8.9024391, -4.0853658, 0.9756098, -0.0728466
0.9785156, -0.0292969, -0.3081055, -9.0853662, -4.2073174, 1.402439, -0.0661326
0.9790039, -0.0400391, -0.3110352, -9.7560978, -4.390244, 1.7682927, -0.0627756
0.9731445, -0.0429688, -0.3139648, -9.8780489, -4.2073174, 1.8902439, -0.0594186
0.9628906, -0.0493164, -0.3110352, -9.5731707, -3.2926829, 2.3170731, -0.0614328
0.9619141, -0.0522461, -0.309082, -9.5731707, -3.0487804, 2.3170731, -0.073518
0.9570312, -0.0458984, -0.300293, -9.2682924, -2.6829269, 2.0121951, -0.0762036
0.9609375, -0.0419922, -0.2973633, -9.2682924, -2.4390244, 1.8292683, -0.0755322
0.9570312, -0.0366211, -0.2963867, -9.9390249, -2.6829269, 1.5243902, -0.0594186
0.9648438, -0.0395508, -0.3037109, -10.060976, -3.2926829, 1.8902439, -0.0480049
0.9711914, -0.0385742, -0.3022461, -10.4878054, -3.7195122, 2.0731707, -0.0372625
0.9829102, -0.0390625, -0.2958984, -10.3658543, -3.7195122, 2.5, -0.0285344
0.9902344, -0.0351562, -0.2939453, -10.4878054, -3.3536587, 2.6219513, -0.0308843
0.9863281, -0.0405273, -0.2910156, -10.2439022, -3.2317073, 2.6829269, -0.0325628
0.9833984, -0.0415039, -0.2905273, -10.1219511, -3.1097562, 2.9268293, -0.0325628
0.9765625, -0.0581055, -0.2866211, -10.5487804, -3.6585367, 3.1707318, -0.0352483
0.972168, -0.0634766, -0.2880859, -10.9146347, -3.8414636, 2.9878049, -0.0406195
0.9638672, -0.0688477, -0.2949219, -10.8536587, -4.390244, 2.9878049, -0.0446479
0.965332, -0.0668945, -0.296875, -10.9146347, -4.4512196, 2.8658538, -0.0466621
0.9658203, -0.0620117, -0.2949219, -10.9756098, -4.6341462, 2.6219513, -0.0486763
0.9697266, -0.0556641, -0.2958984, -10.9756098, -4.6341462, 2.1341465, -0.0493477
0.9770508, -0.0537109, -0.2963867, -11.219512, -5.1829271, 2.0121951, -0.0500191
0.9858398, -0.0644531, -0.2993164, -11.4634151, -6.0365853, 2.4390244, -0.0459907
0.9882812, -0.0639648, -0.2978516, -11.8292685, -6.0975609, 2.6829269, -0.0412909
0.9873047, -0.0625, -0.293457, -11.341464, -6.0975609, 2.6219513, -0.0399481
0.9863281, -0.0625, -0.2929688, -11.4024391, -5.670732, 2.7439024, -0.0352483
0.9775391, -0.0581055, -0.2910156, -11.219512, -5.1829271, 2.6219513, -0.0305486
0.9707031, -0.0527344, -0.2958984, -11.0365858, -5.2439027, 2.3780489, -0.0332341
0.9584961, -0.0483398, -0.3081055, -11.6463413, -6.0975609, 2.2560976, -0.0396124
0.9614258, -0.0478516, -0.3105469, -12.2560978, -6.4634147, 2.4390244, -0.0406195
0.9731445, -0.050293, -0.3022461, -12.2560978, -7.2560978, 2.3170731, -0.0466621
0.9760742, -0.0493164, -0.2978516, -12.2560978, -6.8292685, 2.3780489, -0.0433051
0.9780273, -0.0507812, -0.2944336, -12.3170738, -6.4024391, 2.5609756, -0.0412909
0.9716797, -0.0444336, -0.2910156, -12.0121956, -5.8536587, 2.195122, -0.0459907
0.9697266, -0.0439453, -0.2900391, -12.0121956, -5.9756098, 2.2560976, -0.0530404
0.9658203, -0.0478516, -0.2890625, -12.4390249, -6.5243902, 2.0121951, -0.0547189
0.9682617, -0.0507812, -0.2905273, -12.560976, -7.0731707, 2.1341465, -0.0527047
0.9628906, -0.050293, -0.2895508, -13.2317076, -7.0731707, 2.0121951, -0.0500191
0.9643555, -0.0532227, -0.2924805, -12.8048782, -7.2560978, 2.0731707, -0.0621042
0.9707031, -0.0493164, -0.2949219, -12.4390249, -6.4634147, 2.2560976, -0.0728466
0.9697266, -0.0424805, -0.2978516, -12.560976, -6.1585369, 2.1341465, -0.0594186
0.9663086, -0.0258789, -0.3061523, -13.2926836, -6.2195125, 1.7073171, -0.0453193
0.9716797, -0.0195312, -0.3022461, -13.7195129, -6.3414636, 2.0121951, -0.0473335
0.9711914, -0.019043, -0.296875, -15.060976, -6.5853658, 2.0121951, -0.0664683
0.9790039, -0.0249023, -0.2919922, -15.7317076, -7.0731707, 2.1341465, -0.063447
0.9765625, -0.0351562, -0.2895508, -15.9756098, -6.9512196, 2.0121951, -0.0540475
0.972168, -0.0512695, -0.2885742, -15.5487804, -7.5, 2.6219513, -0.0339055
0.9716797, -0.0615234, -0.2871094, -15.6097565, -7.5, 2.7439024, -0.0198062
0.9663086, -0.0688477, -0.2832031, -15.6097565, -7.2560978, 2.3780489, -0.0164492
0.9624023, -0.0634766, -0.2817383, -15.1219511, -7.1951222, 2.5, -0.0181277
0.953125, -0.0610352, -0.2753906, -14.6341467, -6.890244, 1.9512196, -0.0231632
0.9580078, -0.0576172, -0.2744141, -14.5121956, -7.1341467, 1.6463414, -0.0302129
0.9570312, -0.0556641, -0.2827148, -14.3902445, -7.9878049, 1.402439, -0.0365911
0.9682617, -0.0522461, -0.2944336, -14.6951227, -8.6585369, 1.5853659, -0.0379339
0.9692383, -0.0566406, -0.2905273, -14.5731707, -8.780488, 1.5853659, -0.0419623
0.9731445, -0.0537109, -0.2851562, -14.3292685, -8.4756098, 1.7073171, -0.0399481
0.9741211, -0.0566406, -0.2827148, -14.0853662, -8.0487804, 1.2195122, -0.0379339
0.9697266, -0.0581055, -0.277832, -13.6585369, -7.9878049, 1.097561, -0.0372625
0.965332, -0.0566406, -0.2792969, -13.6585369, -8.4756098, 1.097561, -0.0352483
0.9682617, -0.0576172, -0.2866211, -13.780488, -9.1463413, 0.9146342, -0.0325628
0.965332, -0.0610352, -0.2851562, -13.780488, -9.5121956, 0.6707317, -0.0406195
0.9663086, -0.0649414, -0.2939453, -14.0853662, -9.9390249, 1.0365853, -0.0553902
0.9658203, -0.0615234, -0.2954102, -14.1463413, -9.9390249, 1.1585366, -0.0594186
0.9658203, -0.0615234, -0.2983398, -14.0853662, -9.5731707, 0.9146342, -0.0580758
0.9633789, -0.0366211, -0.296875, -14.0853662, -9.2682924, 1.1585366, -0.0540475
0.9604492, -0.034668, -0.296875, -13.9024391, -9.0243902, 1.2804878, -0.0446479
0.9599609, -0.027832, -0.2939453, -14.6951227, -9.1463413, 0.8536586, -0.0379339
0.9584961, -0.0292969, -0.2958984, -15.060976, -9.6951218, 0.8536586, -0.0369268
0.9541016, -0.046875, -0.3022461, -15.6707325, -10.4878054, 1.402439, -0.0365911
0.9584961, -0.0551758, -0.3032227, -15.9146347, -10.7317076, 1.402439, -0.0379339
0.9619141, -0.059082, -0.3076172, -15.9756098, -10.1829271, 1.6463414, -0.0466621
0.9643555, -0.0605469, -0.3017578, -15.7926836, -9.6341467, 1.5853659, -0.06009
0.965332, -0.0551758, -0.3012695, -15, -8.719512, 1.4634147, -0.0647898
0.9628906, -0.050293, -0.2988281, -15.060976, -8.4146347, 1.0365853, -0.0678111
0.9555664, -0.0478516, -0.2993164, -15.3658543, -9.0853662, 0.8536586, -0.076875
0.9609375, -0.0473633, -0.2905273, -15.5487804, -9.8780489, 1.0365853, -0.0741894
0.9638672, -0.0493164, -0.2856445, -15.4878054, -9.9390249, 1.1585366, -0.0728466
0.9672852, -0.0429688, -0.2924805, -15.3658543, -9.2682924, 1.2804878, -0.0715038
0.9643555, -0.0410156, -0.2915039, -15.060976, -8.780488, 0.7926829, -0.0681468
0.9638672, -0.0405273, -0.293457, -14.9390249, -9.0243902, 1.2195122, -0.0580758
0.965332, -0.0385742, -0.2929688, -15.1829271, -9.3292685, 0.9756098, -0.0446479
0.9643555, -0.043457, -0.2885742, -15.3048782, -9.3902445, 1.2804878, -0.027863
0.965332, -0.0454102, -0.2880859, -15.4268293, -9.4512196, 1.402439, -0.0114137
0.9580078, -0.0483398, -0.2915039, -15.1829271, -9.1463413, 1.1585366, -0.0036927
0.9599609, -0.0483398, -0.2905273, -15.4268293, -9.3292685, 1.3414634, -0.0003357
0.9624023, -0.0522461, -0.2885742, -15.8536587, -9.2682924, 1.5853659, 0.0030213
0.9648438, -0.0498047, -0.2856445, -16.1585369, -9.3902445, 1.1585366, -0.0023499
0.9584961, -0.0522461, -0.2861328, -16.4024391, -9.3902445, 1.2804878, -0.0097353
0.9580078, -0.0615234, -0.2866211, -15.6707325, -10, 1.097561, -0.0157778
0.9560547, -0.0556641, -0.2866211, -15.6097565, -9.8170738, 1.402439, -0.0191348
0.9599609, -0.0507812, -0.2836914, -15.1829271, -9.0853662, 1.402439, -0.0218204
0.9648438, -0.046875, -0.28125, -14.6951227, -8.9024391, 1.2195122, -0.0328985
0.9482422, -0.0449219, -0.2910156, -15, -9.0243902, 0.9146342, -0.03122
0.9462891, -0.0498047, -0.2949219, -15.3048782, -9.3902445, 1.2195122, -0.0258488
0.9482422, -0.0527344, -0.3022461, -15.9146347, -10.4268293, 1.3414634, -0.0204776
0.9487305, -0.0585938, -0.3007812, -16.0975609, -10.3048782, 1.2195122, -0.0191348
0.9589844, -0.0532227, -0.3051758, -15.9146347, -10.2439022, 1.2804878, -0.0090639
0.9633789, -0.046875, -0.3076172, -15.2439032, -9.1463413, 1.097561, -0.0124208
0.9619141, -0.0444336, -0.3061523, -15.1829271, -9.1463413, 1.2804878, -0.0258488
0.965332, -0.0429688, -0.3012695, -15.060976, -9.2073174, 1.2195122, -0.0285344
0.9619141, -0.0424805, -0.2988281, -15, -8.9634151, 1.2195122, -0.0258488
0.9667969, -0.0488281, -0.2919922, -15.4268293, -9.0853662, 0.9756098, -0.0261845
0.965332, -0.0532227, -0.2861328, -15.4268293, -9.4512196, 0.9146342, -0.0265202
0.9604492, -0.0571289, -0.2880859, -15.6097565, -9.1463413, 1.2195122, -0.0251774
0.9633789, -0.0615234, -0.2866211, -15.3658543, -9.3902445, 1.2195122, -0.0339055
0.9560547, -0.0600586, -0.2944336, -15.3048782, -9.6341467, 1.5243902, -0.0396124
0.956543, -0.0541992, -0.2939453, -15, -9.5121956, 1.5853659, -0.0500191
0.9609375, -0.0458984, -0.296875, -15, -9.3902445, 1.402439, -0.0540475
0.9604492, -0.0400391, -0.2963867, -15.5487804, -9.3902445, 1.0365853, -0.0553902
0.9589844, -0.0390625, -0.2919922, -15.9756098, -9.3902445, 0.9756098, -0.0621042
0.9633789, -0.0390625, -0.2861328, -16.4634151, -9.5121956, 1.0365853, -0.0647898
0.9643555, -0.0449219, -0.2817383, -16.9512196, -9.8780489, 1.1585366, -0.070161
0.9643555, -0.0493164, -0.2773438, -17.0731716, -10.3658543, 1.402439, -0.0748608
0.965332, -0.0556641, -0.2836914, -16.280489, -10.3048782, 1.2804878, -0.0715038
0.9707031, -0.0517578, -0.2915039, -16.2195129, -10.3048782, 1.402439, -0.0715038
0.9697266, -0.0478516, -0.293457, -16.4634151, -10.1829271, 1.3414634, -0.0715038
0.9726562, -0.0458984, -0.2885742, -16.5243912, -10.3048782, 1.402439, -0.0728466
0.9741211, -0.0454102, -0.2900391, -16.0975609, -10.6097565, 1.5853659, -0.0795605
0.9716797, -0.0507812, -0.2875977, -16.280489, -10.6707315, 1.6463414, -0.0835889
0.9731445, -0.0566406, -0.2885742, -16.0975609, -10.5487804, 1.5853659, -0.0782177
0.9711914, -0.0581055, -0.2939453, -16.0365849, -10.8536587, 1.402439, -0.0715038
0.9638672, -0.0625, -0.2910156, -15.8536587, -10.7317076, 1.3414634, -0.0641184
0.9648438, -0.0634766, -0.2924805, -15.7926836, -10.6707315, 1.2195122, -0.0621042
0.9736328, -0.0556641, -0.2895508, -15.6707325, -10.4268293, 1.3414634, -0.063447
0.9731445, -0.0537109, -0.2885742, -15.6097565, -10.3048782, 1.0365853, -0.0604257
0.9750977, -0.0493164, -0.2851562, -15.1829271, -10.4268293, 0.7317073, -0.0594186
0.9755859, -0.0478516, -0.2807617, -15.1219511, -10.4878054, 0.6707317, -0.0607614
0.972168, -0.0512695, -0.2924805, -14.8170738, -10.6707315, 0.6707317, -0.0594186
0.9702148, -0.0537109, -0.3012695, -14.7560978, -10.8536587, 0.9146342, -0.063447
0.9643555, -0.0566406, -0.3168945, -14.8170738, -10.5487804, 1.4634147, -0.0694896
0.9638672, -0.0517578, -0.3168945, -14.6951227, -10.060976, 1.097561, -0.063447
0.9628906, -0.0546875, -0.3168945, -14.6951227, -9.6341467, 1.097561, -0.0533761
0.9619141, -0.0498047, -0.3139648, -15.060976, -9.3292685, 1.0365853, -0.0527047
0.9560547, -0.0449219, -0.309082, -15.060976, -9.3292685, 1.2804878, -0.0419623
0.9663086, -0.0327148, -0.296875, -15.1829271, -8.780488, 1.097561, -0.0325628
0.9648438, -0.0327148, -0.2910156, -15.3048782, -8.841464, 1.097561, -0.0251774
0.9682617, -0.0297852, -0.2871094, -15.8536587, -8.9634151, 1.1585366, -0.0181277
0.9731445, -0.0302734, -0.28125, -16.5853653, -9.3292685, 1.2804878, -0.0083925
0.9755859, -0.0361328, -0.2763672, -16.8902435, -9.5731707, 1.8902439, -0.0003357
0.9770508, -0.0439453, -0.2773438, -17.0121956, -9.8170738, 1.9512196, -0.0023499
0.9741211, -0.0410156, -0.2832031, -16.5243912, -9.5731707, 2.2560976, -0.0057069
0.9736328, -0.0478516, -0.2861328, -16.2195129, -9.5121956, 2.1341465, -0.0070497
0.9716797, -0.0517578, -0.2895508, -16.4024391, -9.5731707, 2.2560976, -0.014435
0.9702148, -0.0498047, -0.2880859, -16.280489, -9.5121956, 1.9512196, -0.0204776
0.9702148, -0.050293, -0.2836914, -16.0365849, -9.7560978, 2.1341465, -0.0224918
0.9658203, -0.0546875, -0.2832031, -16.2195129, -9.3292685, 1.9512196, -0.0204776
0.9663086, -0.0576172, -0.2866211, -16.4024391, -9.4512196, 2.1341465, -0.0208133
0.965332, -0.0566406, -0.2910156, -16.2195129, -9.3292685, 2.3170731, -0.027863
0.9648438, -0.0527344, -0.2910156, -16.4024391, -9.2682924, 2.0121951, -0.0218204
0.9677734, -0.0444336, -0.2949219, -15.7317076, -9.7560978, 2.1341465, -0.0198062
0.9750977, -0.0458984, -0.3007812, -15.7926836, -9.8170738, 2.2560976, -0.0251774
0.9746094, -0.0439453, -0.2983398, -16.3414631, -9.5731707, 2.3170731, -0.0305486
0.9736328, -0.050293, -0.2973633, -16.6463413, -9.2073174, 2.6219513, -0.0419623
0.9760742, -0.0507812, -0.2958984, -16.8292694, -9.2073174, 2.6219513, -0.0741894
0.9702148, -0.0571289, -0.2963867, -17.0121956, -9.0243902, 2.7439024, -0.0809033
0.9697266, -0.0532227, -0.2924805, -16.8292694, -9.0853662, 2.8658538, -0.0745251
0.9638672, -0.0473633, -0.2929688, -16.7073174, -8.841464, 2.6219513, -0.0654612
0.9702148, -0.0429688, -0.2890625, -16.8292694, -8.5365858, 2.3170731, -0.0459907
0.9692383, -0.0288086, -0.2827148, -17.1951218, -8.3536587, 2.5, -0.0409552
0.9711914, -0.0263672, -0.277832, -17.3780499, -8.2926826, 2.2560976, -0.0352483
0.9741211, -0.03125, -0.2792969, -17.439024, -9.0853662, 2.1341465, -0.03122
0.9746094, -0.046875, -0.2875977, -17.7439022, -9.2682924, 2.4390244, -0.0379339
0.9755859, -0.0493164, -0.2880859, -17.6219521, -9.0243902, 2.9878049, -0.0419623
0.9658203, -0.0556641, -0.2915039, -17.3780499, -8.4756098, 3.0487804, -0.056733
0.9638672, -0.0566406, -0.2929688, -17.1951218, -8.2317076, 2.8658538, -0.06009
0.9555664, -0.0664062, -0.2944336, -16.4634151, -7.9268293, 2.9878049, -0.0664683
0.9580078, -0.0625, -0.2954102, -16.1585369, -8.1097565, 2.4390244, -0.0829175
0.9677734, -0.0678711, -0.2915039, -15.5487804, -8.4146347, 2.2560976, -0.0856031
0.9692383, -0.0683594, -0.2924805, -15.6097565, -8.1097565, 2.195122, -0.0772107
0.9697266, -0.0703125, -0.296875, -15.3048782, -7.9268293, 2.2560976, -0.0681468
0.9775391, -0.0717773, -0.2963867, -15.1219511, -7.9878049, 1.8292683, -0.0513619
0.9804688, -0.0678711, -0.2963867, -14.3902445, -7.5, 1.8292683, -0.0325628
0.9765625, -0.0600586, -0.2885742, -14.2073174, -7.5609756, 2.1341465, -0.0204776
0.9716797, -0.0625, -0.2871094, -14.1463413, -7.3170733, 1.9512196, -0.017792
0.9711914, -0.0522461, -0.2939453, -14.2682934, -7.3170733, 1.8292683, -0.0130922
0.9682617, -0.0463867, -0.2944336, -14.5121956, -7.1341467, 1.6463414, -0.0359197
0.96875, -0.0405273, -0.2880859, -14.8170738, -7.2560978, 2.0121951, -0.0641184
0.9672852, -0.0332031, -0.2880859, -15, -7.4390244, 1.7682927, -0.0674754
0.9672852, -0.034668, -0.2895508, -14.9390249, -7.5609756, 1.9512196, -0.0728466
0.9677734, -0.0361328, -0.2958984, -15.060976, -7.6829271, 1.8902439, -0.0587472
0.9633789, -0.0478516, -0.296875, -15.4878054, -7.9878049, 2.0731707, -0.0352483
0.9599609, -0.0532227, -0.2919922, -15.7317076, -7.9268293, 2.3780489, -0.0124208
0.9594727, -0.0507812, -0.2915039, -15.2439032, -7.4390244, 2.5609756, -0.0043641
0.9560547, -0.0581055, -0.2983398, -15.4878054, -7.3170733, 2.5, -0.0043641
0.9560547, -0.0561523, -0.3046875, -15.2439032, -7.4390244, 2.0731707, -0.0070497
0.9594727, -0.0522461, -0.3095703, -15, -7.8658538, 2.1341465, -0.0198062
0.9633789, -0.050293, -0.3081055, -15.3658543, -7.5609756, 2.0731707, -0.0392767
0.972168, -0.0429688, -0.3037109, -14.6951227, -6.7682929, 2.2560976, -0.0557259
0.9741211, -0.0400391, -0.3007812, -14.5121956, -6.280488, 2.0731707, -0.0661326
0.9750977, -0.034668, -0.296875, -14.4512196, -6.4634147, 2.3780489, -0.070161
0.9731445, -0.0375977, -0.2983398, -14.5731707, -6.5243902, 2.195122, -0.0728466
0.9716797, -0.0517578, -0.296875, -15.1219511, -6.9512196, 2.7439024, -0.0748608
0.972168, -0.0581055, -0.2939453, -15.1829271, -7.2560978, 2.7439024, -0.0715038
0.972168, -0.0678711, -0.2885742, -15.060976, -7.3780489, 2.9878049, -0.0681468
0.9711914, -0.0654297, -0.2944336, -14.5121956, -6.9512196, 2.9878049, -0.0594186
0.9736328, -0.0629883, -0.2929688, -13.780488, -6.890244, 2.4390244, -0.0580758
0.9731445, -0.0551758, -0.2963867, -13.9024391, -7.3170733, 2.5609756, -0.0688182
0.9750977, -0.0498047, -0.2973633, -14.1463413, -7.4390244, 2.5, -0.0728466
0.9760742, -0.0400391, -0.3100586, -15.1829271, -7.1341467, 2.9878049, -0.0782177
0.9741211, -0.0273438, -0.3110352, -15.3048782, -7.3780489, 3.1097562, -0.0809033
0.9760742, -0.0224609, -0.3154297, -15.8536587, -7.5609756, 3.1097562, -0.0728466
0.9746094, -0.0209961, -0.3105469, -16.0365849, -7.9878049, 2.9878049, -0.0715038
0.9741211, -0.034668, -0.3017578, -16.5853653, -8.4146347, 3.3536587, -0.0795605
0.9746094, -0.0415039, -0.2998047, -16.7682934, -8.3536587, 3.8414636, -0.0795605
0.9746094, -0.0585938, -0.2910156, -17.1341476, -8.2317076, 4.2682929, -0.0624399
0.9619141, -0.074707, -0.2910156, -17.3780499, -8.2926826, 4.0853658, -0.042298
0.9575195, -0.0742188, -0.2905273, -17.1951218, -8.1707315, 3.8414636, -0.0305486
0.9526367, -0.0678711, -0.2851562, -16.6463413, -8.2926826, 3.7804878, -0.0151064
0.9550781, -0.0639648, -0.2807617, -16.2195129, -8.780488, 3.7195122, 0.0023499
0.9609375, -0.0483398, -0.2753906, -15.7317076, -8.9024391, 2.9268293, 0.0164492
0.9658203, -0.0439453, -0.2734375, -15.6097565, -9.2682924, 2.9268293, 0.0258488
0.9667969, -0.0410156, -0.2807617, -16.0365849, -9.9390249, 2.7439024, 0.0271916
0.9677734, -0.0405273, -0.2797852, -16.6463413, -10.5487804, 2.804878, 0.0204776
0.9667969, -0.0493164, -0.2827148, -16.7073174, -11.341464, 3.3536587, 0.014435
0.965332, -0.0522461, -0.2866211, -16.9512196, -11.5243902, 3.5365853, 0.0023499
0.965332, -0.0561523, -0.2880859, -16.6463413, -11.9512196, 3.5975611, -0.0030213
0.9648438, -0.0541992, -0.2866211, -16.280489, -11.9512196, 3.4146342, -0.014435
0.9633789, -0.0498047, -0.2875977, -15.8536587, -12.3170738, 3.2926829, -0.0221561
0.9624023, -0.0522461, -0.2822266, -15.6097565, -12.560976, 2.9878049, -0.0318914
0.9589844, -0.0537109, -0.28125, -15.7926836, -12.8658543, 2.6219513, -0.0335698
0.9580078, -0.0634766, -0.2783203, -15.6097565, -13.9024391, 2.6829269, -0.0339055
0.956543, -0.0668945, -0.2807617, -15.6097565, -14.3292685, 2.6829269, -0.035584
0.9550781, -0.0595703, -0.293457, -15.4268293, -14.8170738, 2.7439024, -0.0412909
0.953125, -0.0561523, -0.3017578, -15.3048782, -14.9390249, 3.1707318, -0.0459907
0.9526367, -0.0478516, -0.3149414, -15.6097565, -15.5487804, 2.6829269, -0.0533761
0.9555664, -0.0473633, -0.324707, -15.6097565, -15.7317076, 2.6829269, -0.0607614
0.956543, -0.043457, -0.3354492, -16.280489, -16.7682934, 2.9268293, -0.0641184
0.9658203, -0.0415039, -0.3310547, -17.0121956, -17.0121956, 3.0487804, -0.0621042
0.9677734, -0.0424805, -0.3310547, -17.0121956, -17.1951218, 3.4756098, -0.0580758
0.9609375, -0.0458984, -0.3364258, -17.3780499, -17.1951218, 3.8414636, -0.0527047
0.9624023, -0.0478516, -0.3383789, -17.9268303, -17.7439022, 4.0853658, -0.0486763
0.9570312, -0.0395508, -0.3432617, -19.1463413, -18.4756107, 4.8170733, -0.0409552
0.953125, -0.0327148, -0.3432617, -20.2439022, -18.9634151, 5.0609756, -0.0365911
0.9580078, -0.0244141, -0.3476562, -21.7073174, -19.6951218, 5.4268293, -0.0379339
0.9624023, -0.0273438, -0.3432617, -22.1341476, -19.6951218, 5.4878049, -0.0292058
0.9672852, -0.0332031, -0.3393555, -23.3536587, -20.6707325, 5.609756, -0.0392767
0.96875, -0.0390625, -0.3330078, -23.4146347, -20.9146347, 6.0365853, -0.0392767
0.9677734, -0.0410156, -0.3237305, -23.4146347, -21.4634151, 6.7073174, -0.0365911
0.9633789, -0.0512695, -0.3041992, -23.6585369, -21.6463413, 6.5853658, -0.0426337
0.9545898, -0.0541992, -0.2998047, -23.5975609, -22.1951218, 6.8292685, -0.0369268
0.9404297, -0.0703125, -0.293457, -24.2073174, -23.2926826, 6.8292685, -0.0325628
0.9379883, -0.0756836, -0.2910156, -24.3902435, -24.2682934, 7.0731707, -0.0315557
0.9433594, -0.0771484, -0.3041992, -24.2073174, -25.6097565, 7.2560978, -0.0238346
0.9453125, -0.0717773, -0.3188477, -24.2682934, -26.2195129, 7.0121951, -0.0218204
0.949707, -0.0566406, -0.3491211, -25.1219521, -27.0731716, 6.8292685, -0.027863
0.9545898, -0.0566406, -0.371582, -25.6097565, -27.3170738, 6.8292685, -0.0379339
0.9624023, -0.0541992, -0.4106445, -27.560976, -28.6585369, 6.890244, -0.070161
0.9711914, -0.0498047, -0.4267578, -28.5365868, -29.0853672, 7.0731707, -0.0815747
0.9824219, -0.0390625, -0.4389648, -30.4268303, -29.0853672, 7.9268293, -0.076875
0.984375, -0.0327148, -0.440918, -32.1341476, -28.841465, 8.9634151, -0.063447
0.984375, -0.0307617, -0.434082, -33.5975609, -29.0243912, 9.3902445, -0.0459907
0.9770508, -0.0292969, -0.418457, -36.2195129, -29.5121956, 10.2439022, -0.0365911
0.9726562, -0.0375977, -0.4072266, -37.0731697, -30.1829281, 10.8536587, -0.0372625
0.9702148, -0.0493164, -0.3916016, -38.6585388, -31.7073174, 11.7073174, -0.0359197
0.9726562, -0.0541992, -0.3852539, -39.3902435, -32.3780479, 12.4390249, -0.0352483
0.9848633, -0.0673828, -0.3696289, -39.5121956, -33.5365868, 13.2926836, -0.042298
0.9863281, -0.078125, -0.3603516, -39.2682953, -33.6585388, 13.5365858, -0.0574044
0.9829102, -0.0854492, -0.3486328, -38.9634171, -33.841465, 14.0243902, -0.0647898
0.9765625, -0.0864258, -0.3442383, -39.0243912, -33.9634171, 14.0853662, -0.0661326
0.9609375, -0.0878906, -0.3393555, -38.5975609, -34.5731697, 14.6951227, -0.0651255
0.9511719, -0.0820312, -0.3452148, -38.1097565, -36.0365868, 14.5731707, -0.0651255
0.9399414, -0.0776367, -0.3530273, -37.8658562, -36.5853653, 14.8780489, -0.0647898
0.9355469, -0.0498047, -0.3691406, -37.0121956, -37.3780479, 14.2073174, -0.0574044
0.9345703, -0.0463867, -0.3823242, -36.9512215, -38.1707344, 14.0243902, -0.0574044
0.9404297, -0.0512695, -0.4047852, -37.0731697, -39.3292694, 12.9878054, -0.0594186
0.9458008, -0.059082, -0.4067383, -37.1951218, -39.9390259, 12.7439032, -0.0527047
0.9584961, -0.0805664, -0.3984375, -37.3170738, -40.8536606, 12.8658543, -0.0473335
0.9628906, -0.0849609, -0.3925781, -37.2560997, -40.5487823, 12.6829271, -0.0473335
0.9667969, -0.0869141, -0.3867188, -36.2195129, -39.6341476, 12.3780489, -0.0419623
0.9643555, -0.0864258, -0.3823242, -35.4268303, -39.2682953, 12.2560978, -0.0359197
0.9516602, -0.0795898, -0.3842773, -33.9024391, -39.6341476, 11.8292685, -0.0359197
0.9370117, -0.0834961, -0.4101562, -33.2317085, -40.8536606, 11.5853662, -0.0359197
0.9375, -0.0830078, -0.4213867, -32.9268303, -41.9512215, 11.6463413, -0.0352483
0.9492188, -0.0839844, -0.4238281, -32.1951218, -42.9268303, 12.1951218, -0.0379339
0.9545898, -0.0825195, -0.4194336, -32.0731697, -42.9268303, 11.9512196, -0.0607614
0.9570312, -0.0952148, -0.3994141, -31.6463413, -42.3780479, 11.341464, -0.0647898
0.9609375, -0.0986328, -0.3935547, -31.2195129, -42.4390259, 11.280488, -0.0580758
0.9516602, -0.1010742, -0.3891602, -30.2439022, -43.7804871, 11.0975609, -0.0513619
0.9516602, -0.1025391, -0.3984375, -30.2439022, -44.3292694, 11.280488, -0.0365911
0.9438477, -0.1020508, -0.4316406, -29.5121956, -45.8536606, 11.7073174, -0.0063783
0.9506836, -0.1049805, -0.4506836, -29.5731716, -46.7682953, 11.6463413, 0.0077211
0.9594727, -0.1079102, -0.4765625, -29.2682934, -48.1707344, 11.280488, 0.0151064
0.9604492, -0.1035156, -0.4794922, -28.7195129, -48.2317085, 11.4634151, 0.0194705
0.9638672, -0.0981445, -0.4794922, -28.2926826, -47.5609779, 11.6463413, 0.0151064
0.9624023, -0.0869141, -0.4702148, -27.7439022, -46.8902435, 11.8292685, -0.0030213
0.956543, -0.0839844, -0.4624023, -27.6219521, -47.0731735, 11.8292685, -0.0218204
0.9492188, -0.0800781, -0.4584961, -27.6219521, -47.8048782, 12.1951218, -0.0339055
0.9526367, -0.0722656, -0.4541016, -27.6829281, -48.5365868, 12.3170738, -0.035584
0.9594727, -0.0708008, -0.4609375, -27.9268303, -50.7317085, 12.1951218, -0.0379339
0.9658203, -0.081543, -0.4648438, -28.4756107, -51.6463432, 12.2560978, -0.0406195
0.9697266, -0.1020508, -0.4785156, -28.6585369, -53.7195129, 12.1341467, -0.0446479
0.9726562, -0.1064453, -0.4907227, -28.3536587, -54.3292694, 12.2560978, -0.0466621
0.980957, -0.1088867, -0.5288086, -27.5, -55.1219521, 12.7439032, -0.0419623
0.9785156, -0.0874023, -0.5556641, -27.2560978, -54.6951218, 13.5975609, -0.0406195
0.9731445, -0.0722656, -0.5649414, -27.6829281, -54.2073174, 14.0243902, -0.0412909
0.9672852, -0.0410156, -0.5698242, -28.7195129, -53.841465, 14.8170738, -0.0412909
0.9697266, -0.0322266, -0.5683594, -29.5121956, -54.3292694, 14.8780489, -0.042298
0.9746094, -0.0341797, -0.5541992, -31.7073174, -56.7682953, 14.6951227, -0.0379339
0.9785156, -0.050293, -0.5507812, -32.6219521, -57.68293, 14.4512196, -0.0365911
0.9814453, -0.0771484, -0.534668, -34.1463432, -59.6951218, 15.1829271, -0.0305486
0.9833984, -0.0966797, -0.5253906, -34.2073174, -60.3658562, 15.2439032, -0.0298772
0.9760742, -0.1196289, -0.4926758, -33.9024391, -60.2439041, 15.6707325, -0.0352483
0.9697266, -0.1166992, -0.46875, -33.2926826, -59.7560997, 15.9146347, -0.0480049
0.9550781, -0.1088867, -0.4370117, -31.7682934, -59.2682953, 15.8536587, -0.0637827
0.9404297, -0.0996094, -0.4418945, -29.9390259, -61.2195129, 15.1219511, -0.0715038
0.9277344, -0.0986328, -0.456543, -29.5121956, -62.68293, 14.8170738, -0.0809033
0.9257812, -0.1049805, -0.4790039, -29.0243912, -66.3414612, 14.6341467, -0.0782177
0.9375, -0.1118164, -0.4853516, -28.841465, -67.6219559, 14.3902445, -0.0728466
0.9541016, -0.1210938, -0.5043945, -27.9268303, -69.6951218, 14.2073174, -0.0728466
0.9584961, -0.1210938, -0.5170898, -26.8292694, -70, 14.0243902, -0.073518
0.9624023, -0.1230469, -0.5332031, -25.2439022, -70.0609741, 13.7195129, -0.0782177
0.9663086, -0.1191406, -0.527832, -24.4512196, -69.9390259, 13.2317076, -0.076875
0.9628906, -0.105957, -0.5029297, -23.1707325, -70.1219559, 12.9878054, -0.0782177
0.9555664, -0.0996094, -0.4985352, -22.6219521, -70.4878082, 12.8658543, -0.0755322
0.9467773, -0.0849609, -0.5004883, -21.5853672, -72.1341476, 12.8048782, -0.073518
0.9423828, -0.0805664, -0.5234375, -21.4634151, -74.5731735, 11.8292685, -0.0715038
0.9448242, -0.0849609, -0.527832, -21.7682934, -75.8536606, 11.7073174, -0.0688182
0.9506836, -0.1142578, -0.5375977, -21.6463413, -79.0243912, 11.4634151, -0.0694896
0.9580078, -0.1298828, -0.5380859, -21.0365868, -80.2439041, 11.5853662, -0.0688182
0.9667969, -0.1513672, -0.5507812, -19.1463413, -81.9512177, 11.8902445, -0.0627756
0.9604492, -0.1557617, -0.5625, -17.8048782, -82.0731735, 12.0731707, -0.0621042
0.9433594, -0.1401367, -0.6054688, -15.3658543, -81.2804871, 12.8658543, -0.063447
0.9399414, -0.1210938, -0.621582, -14.8170738, -80.7317123, 13.3536587, -0.0580758
0.9321289, -0.0888672, -0.6225586, -13.5975609, -80.3658524, 13.780488, -0.0500191
0.9375, -0.0644531, -0.6079102, -13.5365858, -80.7317123, 13.841464, -0.0419623
0.9404297, -0.0566406, -0.6049805, -13.841464, -82.6219559, 13.6585369, -0.0339055
0.9370117, -0.0551758, -0.6049805, -15.1829271, -84.2073212, 14.8170738, -0.0305486
0.9282227, -0.0561523, -0.59375, -15.3658543, -84.6951218, 15.3658543, -0.0204776
0.9301758, -0.0454102, -0.6035156, -14.5731707, -87.5609741, 17.0731716, -0.0191348
0.9394531, -0.0390625, -0.6171875, -14.8170738, -87.7439041, 17.439024, -0.024506
0.9521484, -0.0410156, -0.6171875, -16.4024391, -86.2804871, 17.8048782, -0.0342412
0.9492188, -0.046875, -0.6176758, -16.8292694, -86.2804871, 17.8658543, -0.0527047
0.9350586, -0.0649414, -0.6225586, -16.7682934, -86.8902435, 18.1097565, -0.0574044
0.9306641, -0.081543, -0.6279297, -16.4024391, -87.7439041, 18.6585369, -0.0574044
0.9321289, -0.0947266, -0.6259766, -14.5121956, -89.5121994, 19.3292694, -0.0433051
0.9355469, -0.1030273, -0.6318359, -13.2317076, -89.8170776, 19.5121956, -0.0204776
0.9331055, -0.0991211, -0.637207, -12.2560978, -90, 19.6341476, -0.0030213
0.9404297, -0.0952148, -0.6445312, -12.6829271, -90.18293, 19.2073174, 0.0140993
0.9360352, -0.0917969, -0.6391602, -12.9878054, -90.6707306, 19.0853672, 0.0365911
0.9370117, -0.1040039, -0.6166992, -13.5365858, -92.2561035, 18.9024391, 0.0557259
0.934082, -0.1064453, -0.6103516, -13.6585369, -93.2317123, 18.9024391, 0.0721752
0.9189453, -0.1132812, -0.6137695, -13.4756098, -94.8170776, 19.5731716, 0.0691539
0.9155273, -0.1113281, -0.6181641, -13.5975609, -95.9756088, 20.1829281, 0.0533761
0.9130859, -0.0981445, -0.6538086, -12.9878054, -97.3170776, 20.9146347, 0.0399481
0.9174805, -0.0893555, -0.675293, -12.8658543, -98.0487823, 20.8536587, 0.0117494
0.9272461, -0.0800781, -0.7060547, -13.2926836, -100.18293, 20.9756107, -0.0637827
0.9418945, -0.0776367, -0.7036133, -13.7195129, -101.1585388, 20.9756107, -0.1077592
0.9472656, -0.0864258, -0.6923828, -13.5975609, -101.9512253, 21.3414631, -0.1111162
0.9521484, -0.0966797, -0.6538086, -12.8048782, -101.646347, 21.4024391, -0.0943313
0.9516602, -0.1000977, -0.6391602, -12.1951218, -101.0975647, 21.6463413, -0.0641184
0.9213867, -0.1035156, -0.6298828, -11.0365858, -101.4634171, 21.3414631, -0.038941
0.902832, -0.1025391, -0.6474609, -10.8536587, -102.1951218, 21.4024391, -0.0261845
0.8696289, -0.1074219, -0.6977539, -11.341464, -105, 21.7073174, -0.0208133
0.8598633, -0.1123047, -0.7216797, -12.0121956, -107.0121994, 21.9512196, -0.0194705
0.8706055, -0.1289062, -0.7470703, -12.6219511, -109.8780518, 22.3170738, -0.0302129
0.8925781, -0.1411133, -0.7412109, -12.6829271, -110.6097565, 22.5, -0.0433051
0.9311523, -0.1445312, -0.7207031, -11.5853662, -109.5121994, 22.8048782, -0.0594186
0.9545898, -0.1313477, -0.699707, -10.3048782, -108.0487823, 22.1951218, -0.0755322
0.9541016, -0.1220703, -0.6933594, -8.6585369, -105.7317123, 21.4634151, -0.0889601
0.9262695, -0.1054688, -0.6875, -8.2317076, -105.4268341, 20.6707325, -0.0943313
0.9130859, -0.1020508, -0.690918, -8.5365858, -106.2804871, 20.4268303, -0.1037308
0.8842773, -0.1103516, -0.7094727, -8.2926826, -109.5121994, 21.1585369, -0.1077592
0.8828125, -0.1147461, -0.7265625, -8.2926826, -111.1585388, 21.4024391, -0.1064164
0.8808594, -0.1357422, -0.7563477, -7.9268293, -114.2682953, 21.8292694, -0.1037308
0.8911133, -0.1420898, -0.7651367, -7.4390244, -115.1219559, 21.7682934, -0.0929885
0.8950195, -0.1547852, -0.7734375, -6.4024391, -114.5121994, 22.0731716, -0.0862745
0.8994141, -0.1567383, -0.7709961, -6.0365853, -113.5365906, 22.3170738, -0.0849317
0.9018555, -0.1479492, -0.7636719, -5.0609756, -111.4024429, 22.5, -0.0829175
0.8803711, -0.1303711, -0.78125, -4.5731707, -110.7926865, 22.439024, -0.0829175
0.8745117, -0.1254883, -0.7993164, -3.8414636, -111.2195129, 22.1341476, -0.0983597
0.8706055, -0.121582, -0.8110352, -4.0243902, -112.5609818, 22.3170738, -0.0997024
0.8798828, -0.1225586, -0.8041992, -4.390244, -113.2926865, 22.6829281, -0.0943313
0.8896484, -0.1308594, -0.7822266, -4.5731707, -113.7804871, 23.5365868, -0.0849317
0.8901367, -0.1298828, -0.7832031, -4.2682929, -113.7804871, 24.0243912, -0.0694896
0.875, -0.1240234, -0.7998047, -3.4756098, -113.1097565, 24.2682934, -0.0520333
0.8657227, -0.1201172, -0.8022461, -3.4756098, -113.0487823, 24.2073174, -0.0365911
0.8520508, -0.1201172, -0.7890625, -3.4146342, -113.0487823, 24.6341476, -0.024506
0.8461914, -0.1235352, -0.7763672, -3.4146342, -113.2317123, 25.060976, -0.0090639
0.8378906, -0.1303711, -0.7612305, -3.1707318, -114.0243912, 25.9146347, -0.0043641
0.8266602, -0.1333008, -0.7651367, -2.9268293, -114.4512253, 25.9756107, -0.0057069
0.8242188, -0.1323242, -0.7763672, -2.0731707, -115.5487823, 25.8536587, -0.014435
0.8164062, -0.1313477, -0.8071289, -3.4146342, -116.9512253, 25.7926826, -0.0164492
0.8154297, -0.1347656, -0.8237305, -4.390244, -117.68293, 25.9756107, -0.024506
0.8105469, -0.1337891, -0.8500977, -6.7682929, -118.5365906, 25.8536587, -0.0325628
0.8168945, -0.1308594, -0.8544922, -7.8048782, -118.7195129, 26.0365868, -0.0345769
0.831543, -0.1342773, -0.8330078, -8.2926826, -118.9024429, 25.9146347, -0.0298772
0.8369141, -0.1469727, -0.8105469, -7.9878049, -118.7804871, 25.6707325, -0.0285344
0.8374023, -0.1767578, -0.7558594, -6.6463418, -118.1097565, 25.3048782, -0.0265202
0.828125, -0.1875, -0.7363281, -5.3048782, -118.2926865, 25.1219521, -0.0231632
0.7988281, -0.2211914, -0.7446289, -2.7439024, -119.9390259, 25, -0.0255131
0.7573242, -0.234375, -0.7856445, -2.0121951, -121.1585388, 24.8780499, -0.0255131
0.7397461, -0.2265625, -0.8164062, -0.0609756, -122.8048782, 25.3658543, -0.0305486
0.7260742, -0.1962891, -0.8666992, 0.4878049, -122.9878082, 24.6951218, -0.0459907
0.7270508, -0.1757812, -0.8867188, 0.1829268, -122.7439041, 24.1463413, -0.0547189
0.7373047, -0.1386719, -0.9384766, -0.4878049, -122.5, 23.3536587, -0.06009
0.7460938, -0.1176758, -0.9570312, -1.2195122, -122.4390259, 23.5365868, -0.0614328
0.7783203, -0.09375, -0.9624023, -3.9024391, -121.9512253, 24.1463413, -0.0621042
0.800293, -0.1030273, -0.9448242, -5.3658538, -121.5243912, 24.3292694, -0.0661326
0.8320312, -0.1430664, -0.8803711, -6.2195125, -120.9756088, 24.9390259, -0.0637827
0.8349609, -0.1708984, -0.8530273, -6.0365853, -120.6707382, 25.1219521, -0.063447
0.8012695, -0.2045898, -0.8203125, -4.4512196, -119.3902435, 25.4878063, -0.0624399
0.7519531, -0.215332, -0.8374023, -1.6463414, -119.4512253, 25.7926826, -0.0621042
0.7255859, -0.2124023, -0.8544922, -0.6707317, -119.9390259, 25.7317085, -0.0597543
0.6967773, -0.2036133, -0.8852539, -0.3658537, -121.8902435, 25.5487804, -0.0594186
0.6948242, -0.1938477, -0.8989258, -0.6097561, -122.5609818, 25.3048782, -0.0597543
0.7084961, -0.1782227, -0.9179688, -1.4634147, -123.5975647, 24.6341476, -0.063447
0.7246094, -0.1679688, -0.9213867, -2.1341465, -123.9634171, 24.0243912, -0.0654612
0.7485352, -0.1655273, -0.9116211, -3.4756098, -123.5365906, 22.9878063, -0.0788891
0.753418, -0.1708984, -0.9047852, -3.6585367, -123.4756088, 23.0487804, -0.0782177
0.7617188, -0.1855469, -0.9003906, -2.9268293, -123.9634171, 23.4756107, -0.0641184
0.7602539, -0.1992188, -0.9018555, -2.0121951, -124.6341476, 23.9024391, -0.0557259
0.75, -0.2236328, -0.8881836, -0.3048781, -124.8780518, 25.1829281, -0.0459907
0.7363281, -0.2333984, -0.8740234, 1.6463414, -124.5121994, 25.3048782, -0.0419623
0.7250977, -0.237793, -0.8642578, 2.2560976, -124.0853653, 25.060976, -0.0379339
0.699707, -0.2231445, -0.8491211, 3.4146342, -123.6585388, 23.9634151, -0.0325628
0.6875, -0.2119141, -0.8378906, 3.4756098, -123.4756088, 22.9878063, -0.0325628
0.6655273, -0.1977539, -0.8354492, 2.804878, -125.36586, 21.280489, -0.0292058
0.6542969, -0.1948242, -0.8432617, 2.6219513, -127.0121994, 20.7926826, -0.0271916
0.6459961, -0.1992188, -0.8666992, 1.6463414, -130.6707306, 20.9146347, -0.024506
0.6459961, -0.1982422, -0.8813477, 2.195122, -131.8292694, 21.0365868, -0.0204776
0.6625977, -0.1923828, -0.909668, 2.4390244, -132.6219482, 21.6463413, -0.0157778
0.6665039, -0.1879883, -0.9160156, 3.1707318, -132.4390259, 21.6463413, -0.0171206
0.6806641, -0.2016602, -0.9375, 3.9024391, -131.8902435, 22.1341476, -0.0208133
0.6884766, -0.2172852, -0.9467773, 3.8414636, -132.5609741, 23.0487804, -0.0201419
0.690918, -0.2226562, -0.9516602, 4.2073174, -132.4390259, 23.2317085, -0.0258488
0.6918945, -0.2148438, -0.9414062, 4.1463413, -131.5243988, 23.1707325, -0.0218204
0.6889648, -0.2070312, -0.9335938, 4.9390244, -130, 22.9878063, -0.0204776
0.6650391, -0.1860352, -0.9155273, 5, -127.7439041, 20.9756107, -0.0191348
0.6411133, -0.1777344, -0.921875, 5.1219511, -127.8048782, 20.3658543, -0.0171206
0.5961914, -0.1870117, -0.9433594, 4.9390244, -130.2439117, 20.5487804, -0.0208133
0.5830078, -0.1928711, -0.956543, 5.4268293, -132.0121918, 21.0975609, -0.027863
0.5893555, -0.2158203, -0.9770508, 5.8536587, -134.5121918, 23.4756107, -0.0409552
0.6040039, -0.2216797, -0.9912109, 6.4634147, -134.9390259, 24.2073174, -0.056733
0.6367188, -0.2260742, -1.0126953, 7.6829271, -133.3536682, 24.8170738, -0.063447
0.6577148, -0.2250977, -1.0175781, 8.841464, -130.4268341, 24.5121956, -0.0715038
0.6655273, -0.2226562, -1.0039062, 8.6585369, -129.2682953, 24.4512196, -0.0664683
0.6689453, -0.2143555, -0.9584961, 8.9634151, -126.7073212, 24.5121956, -0.056733
0.6557617, -0.2109375, -0.9375, 9.5731707, -125.36586, 23.9634151, -0.0305486
0.6152344, -0.1972656, -0.9204102, 10.1219511, -124.6341476, 22.9878063, -0.0198062
0.581543, -0.1933594, -0.9301758, 10.9146347, -125.0609818, 22.8658543, -0.014435
0.5385742, -0.1918945, -0.9838867, 10.3658543, -128.0487823, 23.9634151, -0.0097353
0.5351562, -0.1850586, -1.0195312, 9.6951218, -130.1829224, 24.6341476, -0.0057069
0.5605469, -0.1762695, -1.0571289, 7.7439027, -131.9512177, 25.9146347, -0.0050355
0.5859375, -0.1655273, -1.0512695, 6.4634147, -131.0975647, 26.0975609, -0.0077211
0.6259766, -0.1630859, -1.0014648, 4.2682929, -127.7439041, 25.4268303, -0.0191348
0.6235352, -0.1689453, -0.9345703, 3.1097562, -124.2682953, 24.3902435, -0.0218204
0.6142578, -0.1821289, -0.9091797, 2.8658538, -123.7195129, 24.4512196, -0.0204776
0.5688477, -0.2255859, -0.8735352, 2.7439024, -125.1219559, 24.2682934, -0.021149
0.5341797, -0.2470703, -0.8745117, 3.1097562, -126.7682953, 24.5731716, -0.0258488
0.4790039, -0.2836914, -0.9018555, 4.0243902, -130.9146423, 25.3658543, -0.027863
0.4672852, -0.2885742, -0.9194336, 5.2439027, -132.2561035, 25.6097565, -0.0305486
0.4599609, -0.269043, -0.9570312, 7.0121951, -132.6219482, 25.1219521, -0.0386053
0.4624023, -0.2543945, -0.9677734, 7.5609756, -132.0731812, 24.3902435, -0.0419623
0.4853516, -0.21875, -0.972168, 7.3170733, -131.0365906, 22.5, -0.0708324
0.5004883, -0.2167969, -0.9628906, 6.890244, -131.1585388, 22.0121956, -0.0997024
0.5234375, -0.2304688, -0.9389648, 5.9756098, -132.6829224, 21.5243912, -0.0990311
0.5253906, -0.2431641, -0.9477539, 6.7073174, -134.4512177, 22.0731716, -0.0892958
0.5214844, -0.2548828, -0.9648438, 8.1707315, -135.36586, 22.5, -0.0704967
0.5019531, -0.2695312, -1.0092773, 11.4024391, -134.6341553, 23.5365868, -0.0459907
0.4956055, -0.2641602, -1.0341797, 12.7439032, -133.6585388, 23.8414631, -0.0238346
0.4833984, -0.2451172, -1.0644531, 13.780488, -131.646347, 24.3902435, -0.0191348
0.4833984, -0.2304688, -1.0703125, 13.5975609, -130.6097565, 24.2682934, -0.03122
0.4936523, -0.2148438, -1.0439453, 11.9512196, -128.7804871, 23.6585369, -0.0459907
0.5004883, -0.2124023, -1.0136719, 10.7926836, -127.9268341, 23.4146347, -0.0614328
0.4926758, -0.2099609, -0.9760742, 9.3902445, -127.2561035, 22.7439022, -0.0574044
0.480957, -0.2084961, -0.9736328, 8.9634151, -127.6219559, 22.8658543, -0.0426337
0.4516602, -0.206543, -0.9946289, 8.5975609, -129.0853729, 23.2317085, -0.0298772
0.4394531, -0.2207031, -1.0180664, 7.8048782, -130.4878082, 24.4512196, -0.017792
0.4389648, -0.2324219, -1.0341797, 7.3170733, -131.0365906, 24.8170738, -0.011078
0.4331055, -0.2314453, -1.0761719, 6.2195125, -131.0975647, 26.4634151, -0.014435
0.4296875, -0.2158203, -1.1010742, 5.4878049, -130.6097565, 26.7682934, -0.0167849
0.4433594, -0.1748047, -1.1186523, 3.2926829, -128.7804871, 27.3170738, -0.024506
0.4663086, -0.15625, -1.0966797, 1.3414634, -127.1341476, 27.1341476, -0.0365911
0.4936523, -0.1464844, -0.996582, -2.195122, -124.0853653, 26.1585369, -0.0439765
0.4907227, -0.1538086, -0.9492188, -3.7195122, -123.0487823, 25.7926826, -0.0463264
0.4550781, -0.1914062, -0.9072266, -5.2439027, -124.4512253, 25.7926826, -0.0506905
0.4208984, -0.2192383, -0.9243164, -5.609756, -126.9512253, 26.4634151, -0.0553902
0.3642578, -0.2807617, -0.9946289, -3.7195122, -132.1341553, 28.9634151, -0.0594186
0.3564453, -0.3393555, -1.0541992, -0.7926829, -134.6951294, 31.8902454, -0.06009
0.3701172, -0.3535156, -1.0595703, 0.9756098, -134.2073212, 32.7439041, -0.0661326
0.425293, -0.34375, -1.0341797, 5.0609756, -129.7561035, 31.5243912, -0.0684825
0.4404297, -0.3198242, -1.0268555, 6.5243902, -127.0121994, 29.6951218, -0.0654612
0.4321289, -0.2563477, -1.0375977, 7.3170733, -123.5975647, 26.2195129, -0.0688182
0.4145508, -0.2304688, -1.0463867, 6.4634147, -123.6585388, 25.2439022, -0.0674754
0.3950195, -0.2080078, -1.0322266, 3.2926829, -126.0365906, 24.6951218, -0.0654612
0.3989258, -0.2197266, -1.0131836, 2.3780489, -127.5, 25, -0.06009
0.3935547, -0.2685547, -0.9707031, 3.2317073, -129.8170776, 26.0975609, -0.056733
0.3823242, -0.3017578, -0.9541016, 5.3658538, -130.36586, 27.0731716, -0.0580758
0.3686523, -0.3427734, -0.9697266, 11.4634151, -130.7926788, 28.6585369, -0.0594186
0.3544922, -0.328125, -1.0141602, 16.6463413, -130.0609741, 29.3292694, -0.0540475
0.3510742, -0.3125, -1.0292969, 18.4756107, -128.7195129, 28.9634151, -0.049012
0.3486328, -0.2841797, -1.0327148, 19.1463413, -126.5853653, 26.4634151, -0.0406195
0.3452148, -0.2705078, -1.0273438, 18.6585369, -126.7073212, 25.6097565, -0.0399481
0.3408203, -0.2558594, -1.0209961, 16.4634151, -128.4146423, 24.5731716, -0.0392767
0.3452148, -0.2514648, -1.0234375, 15.3658543, -130, 24.3292694, -0.0359197
0.3476562, -0.2231445, -1.0473633, 13.4146347, -131.4634247, 24.5121956, -0.0325628
0.3452148, -0.203125, -1.0708008, 12.5, -131.4024353, 24.1463413, -0.0285344
0.3369141, -0.1787109, -1.1035156, 10.9146347, -130.1829224, 24.8170738, -0.0208133
0.3378906, -0.1723633, -1.1035156, 9.4512196, -129.2073212, 25.2439022, -0.0191348
0.3505859, -0.1870117, -1.0756836, 6.0975609, -127.9268341, 26.3414631, -0.0157778
0.3505859, -0.2080078, -1.0317383, 3.2926829, -126.646347, 26.9512196, -0.0365911
0.3408203, -0.222168, -1.0229492, 2.7439024, -126.5243912, 27.4390259, -0.0604257
0.3149414, -0.2412109, -1.0112305, 1.5243902, -126.0365906, 27.5, -0.0574044
0.3041992, -0.2490234, -1.0068359, 1.5243902, -126.2195129, 27.6829281, -0.0486763
0.2802734, -0.2827148, -1.0043945, 1.2804878, -127.0731735, 27.3780499, -0.0325628
0.2700195, -0.2978516, -1.0092773, 1.6463414, -127.5, 27.4390259, -0.0151064
0.2573242, -0.3173828, -1.034668, 2.6829269, -128.6585388, 27.7439022, -0.0164492
0.2573242, -0.3212891, -1.0507812, 3.4146342, -128.8414612, 27.9268303, -0.0157778
0.2539062, -0.2978516, -1.1040039, 5.4878049, -127.86586, 27.0731716, -0.0130922
0.2822266, -0.2631836, -1.1157227, 5.9146342, -126.8902435, 26.8902454, -0.0218204
0.3046875, -0.2514648, -1.0898438, 5.670732, -123.8414688, 26.1585369, -0.027863
0.3310547, -0.2416992, -1.0175781, 4.1463413, -120.6097565, 24.7560978, -0.0325628
0.3271484, -0.2495117, -0.9887695, 3.5365853, -119.5731735, 24.0853672, -0.0412909
0.2983398, -0.2700195, -0.9736328, 3.9634147, -120, 23.7195129, -0.0486763
0.2763672, -0.2841797, -0.9770508, 4.6951222, -121.2195129, 24.0243912, -0.0486763
0.2294922, -0.3007812, -1.0078125, 5.7926831, -122.3780518, 24.8780499, -0.0486763
0.2094727, -0.3066406, -1.0351562, 6.890244, -122.86586, 25.2439022, -0.0557259
0.1855469, -0.3032227, -1.0844727, 8.1707315, -123.4756088, 26.4634151, -0.056733
0.1923828, -0.2880859, -1.0961914, 8.2317076, -123.2317123, 26.3414631, -0.0614328
0.2407227, -0.2573242, -1.0712891, 7.6219516, -121.9512253, 24.8780499, -0.066804
0.2719727, -0.2402344, -1.0205078, 6.7682929, -121.3414688, 24.4512196, -0.0641184
0.2739258, -0.2426758, -1.0024414, 5.1829271, -120.0609818, 23.3536587, -0.06009
0.2514648, -0.2475586, -1.0073242, 3.7804878, -120, 23.8414631, -0.0547189
0.2324219, -0.25, -1.0229492, 3.3536587, -120.7317123, 24.5731716, -0.0449836
0.2026367, -0.2314453, -1.0581055, 2.804878, -121.2804871, 25.8536587, -0.0459907
0.190918, -0.2177734, -1.0673828, 2.0731707, -120.4268341, 26.1585369, -0.0493477
0.1767578, -0.1855469, -1.0678711, 0.6097561, -118.5365906, 25.6707325, -0.0466621
0.1733398, -0.1791992, -1.0595703, -0.3658537, -117.86586, 25.3658543, -0.042298
0.1767578, -0.2075195, -1.0380859, -3.4146342, -119.3902435, 26.3414631, -0.0426337
0.1831055, -0.2373047, -1.0297852, -4.2073174, -120.6097565, 27.6219521, -0.0392767
0.2050781, -0.2944336, -1.0146484, -5, -122.9268341, 30.1829281, -0.0379339
0.2177734, -0.3300781, -1, -3.8414636, -122.5, 31.0365868, -0.0392767
0.2158203, -0.3310547, -0.9887695, -0.9146342, -118.9024429, 30.060976, -0.0406195
0.171875, -0.3115234, -0.9985352, 1.8292683, -113.9024429, 27.3170738, -0.0446479
0.137207, -0.2939453, -1.0151367, 2.4390244, -112.6219559, 26.0975609, -0.0540475
0.0898438, -0.2724609, -1.0439453, 1.402439, -113.9024429, 25.1829281, -0.0560616
0.0888672, -0.2719727, -1.0341797, 0.1829268, -116.1585388, 25.7926826, -0.0580758
0.1113281, -0.2705078, -1.0214844, -1.4634147, -119.8780518, 26.0365868, -0.0624399
0.1259766, -0.2661133, -1.0200195, -1.8902439, -120.6097565, 25.9756107, -0.0597543
0.1450195, -0.2563477, -1.0336914, -1.402439, -119.8170776, 25.2439022, -0.0594186
0.1508789, -0.2573242, -1.0307617, -1.2804878, -118.3536606, 25.3048782, -0.0607614
0.1572266, -0.2685547, -0.9946289, -1.0365853, -115.5487823, 24.8170738, -0.0621042
0.1459961, -0.2924805, -0.9580078, -0.9756098, -114.5121994, 24.9390259, -0.0594186
0.1279297, -0.2993164, -0.9482422, 0.9146342, -114.3292694, 25.1219521, -0.0527047
0.090332, -0.2983398, -0.9580078, 3.4756098, -114.4512253, 24.6341476, -0.0466621
0.0693359, -0.2895508, -0.980957, 4.6341462, -114.7561035, 24.1463413, -0.0439765
0.0444336, -0.2680664, -1.0063477, 4.4512196, -115, 23.6585369, -0.0419623
0.034668, -0.2607422, -1.0087891, 3.4756098, -115.18293, 23.6585369, -0.0433051
0.0327148, -0.2421875, -0.9936523, 0.7317073, -115.6097565, 22.8658543, -0.0419623
0.0292969, -0.2460938, -0.9960938, -0.4878049, -116.2804871, 22.9268303, -0.0365911
0.0302734, -0.2436523, -1.03125, -2.0121951, -118.5365906, 24.0243912, -0.0339055
0.0380859, -0.246582, -1.0449219, -2.7439024, -119.2682953, 25, -0.0288701
0.0688477, -0.2304688, -1.0537109, -3.8414636, -117.9878082, 26.3414631, -0.027863
0.0883789, -0.2207031, -1.0327148, -4.5731707, -115.9756088, 26.5243912, -0.027863
0.0859375, -0.2265625, -1.0205078, -5.5487804, -111.646347, 25.9146347, -0.0258488
0.0668945, -0.2529297, -0.9970703, -7.1951222, -109.5731735, 26.4024391, -0.0204776
0.0517578, -0.2670898, -1.0019531, -7.3170733, -110.18293, 27.2560978, -0.0224918
0.0161133, -0.2783203, -1.0571289, -7.0121951, -111.7682953, 29.5731716, -0.0157778
0.0048828, -0.2719727, -1.1015625, -6.5243902, -111.7073212, 30.4268303, -0.0030213
0.0161133, -0.2441406, -1.1347656, -7.1341467, -109.4512253, 30.4878063, -0.0117494
0.0375977, -0.2348633, -1.112793, -8.1097565, -107.0731735, 29.5731716, -0.0271916
0.0678711, -0.2182617, -1.0102539, -12.0121956, -101.8902435, 27.1341476, -0.0339055
0.0673828, -0.215332, -0.9506836, -13.780488, -99.4512253, 25.9756107, -0.0352483
0.03125, -0.2211914, -0.8710938, -16.5853653, -97.9878082, 24.9390259, -0.0433051
-0.0483398, -0.2392578, -0.8842773, -17.439024, -99.146347, 25, -0.0446479
-0.0830078, -0.2670898, -0.9228516, -16.3414631, -103.8414688, 26.9512196, -0.0480049
-0.1044922, -0.3432617, -0.9746094, -12.9268293, -109.146347, 30.1829281, -0.0473335
-0.0869141, -0.3789062, -0.9707031, -10.8536587, -110.1219559, 31.341465, -0.0392767
-0.0322266, -0.409668, -0.921875, -5.9146342, -107.7439041, 30.3048782, -0.027863
-0.0185547, -0.4101562, -0.9174805, -3.5975611, -104.5731735, 28.4146347, -0.0265202
-0.0488281, -0.3510742, -0.9746094, -0.9756098, -99.6341476, 24.3902435, -0.0332341
-0.0708008, -0.3056641, -1.0151367, -1.5853659, -98.5975647, 22.6219521, -0.0298772
-0.0922852, -0.2387695, -1.0439453, -5.4878049, -100.3048782, 20.6707325, -0.017792
-0.0839844, -0.2275391, -1.0258789, -7.8048782, -101.9512253, 20.5487804, -0.0050355
-0.0405273, -0.2421875, -0.9438477, -10.7317076, -103.7804871, 20.7317085, -0.0043641
-0.012207, -0.2768555, -0.8930664, -10.4878054, -103.5365906, 22.2560978, -0.0164492
-0.0161133, -0.2871094, -0.887207, -9.7560978, -102.4390259, 22.8658543, -0.03122
-0.050293, -0.2949219, -0.90625, -7.3780489, -99.8780518, 23.4146347, -0.0486763
-0.0795898, -0.293457, -0.921875, -6.5243902, -98.8414688, 23.5975609, -0.0540475
-0.1352539, -0.2802734, -0.9589844, -5.9146342, -98.9024429, 23.7195129, -0.0580758
-0.1552734, -0.2719727, -0.972168, -5.8536587, -99.2073212, 23.780489, -0.0463264
-0.1625977, -0.2504883, -0.9780273, -6.7073174, -100.5487823, 24.6341476, -0.06009
-0.1474609, -0.2470703, -0.965332, -7.2560978, -100.7317123, 24.7560978, -0.0788891
-0.1171875, -0.2460938, -0.9213867, -8.9634151, -100.3658524, 23.7195129, -0.0741894
-0.1088867, -0.2529297, -0.9047852, -9.6951218, -99.8170776, 23.1707325, -0.06009
-0.1103516, -0.262207, -0.90625, -12.2560978, -100, 23.2317085, -0.0466621
-0.144043, -0.2514648, -0.9560547, -13.7195129, -100.18293, 24.0243912, -0.0476692
-0.1635742, -0.2431641, -0.9892578, -14.2682934, -100.1219559, 24.7560978, -0.0678111
-0.1757812, -0.2397461, -1.0664062, -15.3658543, -99.8170776, 26.6463413, -0.0721752
-0.1669922, -0.2431641, -1.0986328, -15.8536587, -99.7561035, 27.6219521, -0.0647898
-0.1123047, -0.2817383, -1.105957, -15.7317076, -98.5365906, 29.8780499, -0.0594186
-0.0712891, -0.2983398, -1.0698242, -14.8170738, -96.7682953, 30.3048782, -0.0530404
-0.0048828, -0.3266602, -0.9277344, -11.7682934, -90.3048782, 29.6341476, -0.0436408
0, -0.3369141, -0.8564453, -9.6951218, -86.0365906, 28.2926826, -0.03122
-0.0766602, -0.3383789, -0.8178711, -6.7073174, -79.3902435, 25.3048782, -0.0258488
-0.1542969, -0.3217773, -0.8603516, -6.0365853, -77.9878082, 24.5731716, -0.027863
-0.2900391, -0.2705078, -0.9697266, -7.1341467, -81.2804871, 25.060976, -0.03122
-0.3188477, -0.2519531, -0.9711914, -9.9390249, -86.7073212, 25.6707325, -0.0328985
-0.2875977, -0.2612305, -0.9160156, -11.0975609, -88.7804871, 25.060976, -0.0392767
-0.2138672, -0.3154297, -0.796875, -11.4024391, -90.5487823, 23.1097565, -0.0453193
-0.190918, -0.3457031, -0.7631836, -10.6097565, -91.2804871, 22.0731716, -0.0473335
-0.1879883, -0.3876953, -0.7558594, -7.5609756, -91.5853653, 22.0731716, -0.0486763
-0.2089844, -0.3852539, -0.7763672, -5.609756, -91.4024429, 22.1341476, -0.049012
-0.2631836, -0.3481445, -0.8769531, -1.9512196, -90.6097565, 21.7073174, -0.0500191
-0.293457, -0.3110352, -0.9560547, -0.7926829, -90.3048782, 21.4024391, -0.0486763
-0.3164062, -0.2407227, -1.0776367, -2.804878, -91.3414688, 22.0731716, -0.0503548
-0.2954102, -0.2080078, -1.0810547, -5.1829271, -91.7682953, 22.7439022, -0.0486763
-0.1875, -0.1850586, -0.9643555, -10.7317076, -90.5487823, 23.1097565, -0.0459907
-0.1210938, -0.1972656, -0.8383789, -14.5121956, -87.1951218, 21.280489, -0.0574044
-0.1293945, -0.206543, -0.8154297, -15.7317076, -86.3414688, 21.1585369, -0.0627756
-0.1992188, -0.2167969, -0.8500977, -18.780489, -86.4024429, 23.1097565, -0.0661326
-0.2412109, -0.215332, -0.8808594, -20.1829281, -87.2560959, 24.7560978, -0.0641184
-0.3046875, -0.2172852, -0.9199219, -22.3780499, -88.1097565, 27.9878063, -0.0580758
-0.3173828, -0.2265625, -0.9189453, -23.0487804, -88.7195129, 28.841465, -0.0621042
-0.3188477, -0.2568359, -0.9047852, -23.3536587, -89.5121994, 30.060976, -0.0621042
-0.3115234, -0.2724609, -0.894043, -23.2926826, -89.5731735, 30.6097565, -0.056733
-0.2719727, -0.2851562, -0.8598633, -23.2317085, -89.6951218, 30.9756107, -0.056733
-0.253418, -0.2827148, -0.8442383, -22.9878063, -89.0853653, 30.1829281, -0.063447
-0.2583008, -0.2763672, -0.8510742, -22.3170738, -86.646347, 28.9024391, -0.0674754
-0.3007812, -0.2734375, -0.9316406, -23.2926826, -86.3414688, 28.4756107, -0.0651255
-0.3193359, -0.2832031, -0.9799805, -23.8414631, -87.2560959, 29.1463413, -0.0674754
-0.3017578, -0.3242188, -1.0175781, -22.6829281, -89.9390259, 31.7682934, -0.0728466
-0.2646484, -0.3466797, -0.9951172, -20.9756107, -89.7560959, 32.5, -0.0661326
-0.1875, -0.3623047, -0.9121094, -15.4878054, -84.5731735, 31.9512196, -0.056733
-0.1757812, -0.3588867, -0.8857422, -13.0487804, -80, 30.3658543, -0.0580758
-0.2172852, -0.331543, -0.9086914, -9.2682924, -73.2926865, 27.2560978, -0.0580758
-0.2597656, -0.3222656, -0.9350586, -8.5365858, -72.5, 26.6463413, -0.0584115
-0.3041992, -0.3339844, -0.9033203, -8.0487804, -74.3902435, 27.0121956, -0.06009
-0.3032227, -0.3486328, -0.8598633, -7.6219516, -75.6707306, 26.8902454, -0.0594186
-0.3071289, -0.3662109, -0.8261719, -6.4024391, -76.4634171, 25.3048782, -0.0513619
-0.3525391, -0.3256836, -0.8862305, -6.4024391, -75.4878082, 23.1707325, -0.0459907
-0.3730469, -0.3007812, -0.9038086, -7.1951222, -75.1219559, 22.3170738, -0.0446479
-0.3676758, -0.2695312, -0.8789062, -10.1219511, -74.8780518, 21.1585369, -0.0412909
-0.3583984, -0.2612305, -0.8496094, -11.4024391, -75.4268341, 20.4268303, -0.0439765
-0.3574219, -0.2578125, -0.8623047, -13.2317076, -77.4390259, 20.3658543, -0.0459907
-0.3603516, -0.2539062, -0.902832, -13.7195129, -78.7804871, 21.2195129, -0.0453193
-0.3432617, -0.2495117, -0.9311523, -15.2439032, -80.7317123, 24.2682934, -0.0419623
-0.3188477, -0.2436523, -0.9116211, -15.9146347, -79.8170776, 25.6707325, -0.0359197
-0.296875, -0.2368164, -0.8608398, -16.9512196, -75.3048782, 25, -0.0365911
-0.3056641, -0.2387695, -0.8618164, -18.1707325, -73.4756088, 23.9634151, -0.0328985
-0.3544922, -0.2373047, -0.9116211, -21.0365868, -74.5121994, 23.780489, -0.0288701
-0.3759766, -0.2353516, -0.9213867, -25.3048782, -78.3536606, 25.9756107, -0.024506
-0.3666992, -0.2319336, -0.8999023, -26.7682934, -79.6951218, 26.7073174, -0.017792
-0.3530273, -0.2412109, -0.875, -28.1097565, -78.9024429, 26.9512196, -0.0070497
-0.3583984, -0.2441406, -0.8916016, -28.5365868, -77.68293, 26.6463413, -0.0003357
-0.3867188, -0.2563477, -0.9736328, -29.5121956, -78.1707306, 27.9878063, -0.0003357
-0.3876953, -0.277832, -1.0112305, -29.6341476, -79.5121994, 29.5731716, -0.0016785
-0.3305664, -0.3286133, -0.9946289, -28.0487804, -82.2560959, 32.8048782, -0.0063783
-0.2758789, -0.3457031, -0.9282227, -25.9146347, -81.0365906, 32.8048782, -0.0198062
-0.2216797, -0.371582, -0.7929688, -20.6097565, -74.8170776, 29.4512196, -0.0459907
-0.2431641, -0.3657227, -0.7797852, -17.8048782, -71.0975647, 26.8292694, -0.0570687
-0.3706055, -0.3398438, -0.8657227, -15.4268293, -68.2926865, 23.9024391, -0.0446479
-0.4570312, -0.3061523, -0.9238281, -16.280489, -72.2560959, 24.2073174, -0.024506
-0.4619141, -0.3012695, -0.902832, -17.3170738, -74.7560959, 24.1463413, -0.0030213
-0.4370117, -0.3154297, -0.8125, -17.9268303, -77.2560959, 22.5, 0.0130922
-0.421875, -0.3164062, -0.7734375, -17.5, -77.1951218, 21.0365868, 0.017792
-0.4291992, -0.3085938, -0.7749023, -16.0365849, -76.8292694, 19.2073174, 0.0157778
-0.4492188, -0.2973633, -0.815918, -15.7926836, -77.4390259, 18.4756107, 0.0157778
-0.4785156, -0.2856445, -0.9091797, -16.1585369, -80.6707306, 19.7560978, 0.0157778
-0.4711914, -0.2875977, -0.9301758, -16.280489, -82.7439041, 21.0365868, 0.0070497
-0.4057617, -0.2978516, -0.8759766, -14.9390249, -82.9878082, 22.6829281, -0.0097353
-0.3740234, -0.3007812, -0.8295898, -14.0243902, -81.2804871, 22.5, -0.0191348
-0.3666992, -0.2714844, -0.7797852, -12.6219511, -75.7317123, 20.3658543, -0.0258488
-0.4370117, -0.2128906, -0.8076172, -14.0243902, -73.2926865, 18.4146347, -0.0292058
-0.4755859, -0.1879883, -0.8393555, -15.5487804, -74.5731735, 18.5365849, -0.0339055
-0.5317383, -0.1645508, -0.8862305, -20.4268303, -79.2682953, 20.2439022, -0.0365911
-0.5361328, -0.1674805, -0.8911133, -22.7439022, -81.4634171, 21.9512196, -0.0527047
-0.5004883, -0.1850586, -0.8774414, -26.7073174, -83.2926865, 23.9634151, -0.0674754
-0.4716797, -0.1982422, -0.8662109, -27.7439022, -82.9268341, 24.2073174, -0.0741894
-0.440918, -0.2270508, -0.8520508, -29.3902454, -81.5853653, 24.3292694, -0.0839246
-0.4335938, -0.2373047, -0.8554688, -29.8780499, -81.0365906, 24.2073174, -0.0876173
-0.4482422, -0.2666016, -0.8691406, -29.6951218, -80.6707306, 24.9390259, -0.0869459
-0.4487305, -0.2851562, -0.8745117, -28.780489, -80.8536606, 25.5487804, -0.0842603
-0.4516602, -0.3056641, -0.8623047, -26.4634151, -80.5487823, 26.8902454, -0.0822461
-0.4672852, -0.3022461, -0.855957, -23.6585369, -78.1097565, 25.9146347, -0.0795605
-0.487793, -0.2900391, -0.878418, -22.3170738, -76.5243912, 25, -0.0755322
-0.5141602, -0.2631836, -0.9282227, -22.439024, -75.9146347, 23.9024391, -0.0728466
-0.5180664, -0.2573242, -0.9379883, -22.9878063, -76.1585388, 23.6585369, -0.0728466
-0.5004883, -0.2612305, -0.9282227, -24.7560978, -77.9268341, 23.3536587, -0.0745251
-0.4848633, -0.2763672, -0.9106445, -24.5731716, -78.2926865, 23.3536587, -0.0755322
-0.4560547, -0.3183594, -0.859375, -21.7073174, -77.7439041, 24.0243912, -0.0715038
-0.4335938, -0.331543, -0.8286133, -19.2073174, -76.5243912, 24.2073174, -0.070161
-0.4394531, -0.3398438, -0.7963867, -13.2926836, -72.4390259, 23.2926826, -0.0627756
-0.4907227, -0.315918, -0.8164062, -11.4634151, -70.3658524, 22.3780499, -0.0540475
-0.5263672, -0.293457, -0.8320312, -10.8536587, -67.5609741, 20.5487804, -0.0513619
-0.5810547, -0.2456055, -0.8510742, -14.3292685, -68.1707306, 18.8414631, -0.0580758
-0.5957031, -0.2304688, -0.8344727, -16.3414631, -69.5731735, 17.9878044, -0.06009
-0.5981445, -0.2197266, -0.7749023, -20.1219521, -72.6219559, 17.0731716, -0.0530404
-0.5917969, -0.2231445, -0.7519531, -21.280489, -74.2682953, 16.6463413, -0.0547189
-0.5849609, -0.2133789, -0.7631836, -22.6829281, -76.8902435, 17.0731716, -0.0493477
-0.5854492, -0.2109375, -0.78125, -23.2926826, -77.7439041, 18.2317085, -0.0466621
-0.5722656, -0.1904297, -0.8081055, -25.060976, -77.4390259, 20.6097565, -0.0466621
-0.5620117, -0.1821289, -0.8125, -26.5853672, -76.646347, 20.6097565, -0.0610971
-0.5600586, -0.1748047, -0.8076172, -30.3048782, -74.6951218, 20.1219521, -0.070161
-0.5605469, -0.1933594, -0.7822266, -31.8292694, -74.8780518, 19.8170738, -0.0627756
-0.5634766, -0.215332, -0.7792969, -34.3902435, -77.5609741, 20.1219521, -0.0540475
-0.5668945, -0.2636719, -0.8178711, -33.9024391, -82.1341476, 21.8902435, -0.0446479
-0.5581055, -0.2856445, -0.8330078, -32.5, -83.8414688, 23.1707325, -0.0298772
-0.515625, -0.3144531, -0.8032227, -29.1463413, -82.68293, 23.9634151, -0.0231632
-0.5043945, -0.3105469, -0.7783203, -27.2560978, -80, 23.4146347, -0.0231632
-0.5493164, -0.2700195, -0.7895508, -25, -73.9634171, 20.5487804, -0.017792
-0.5883789, -0.2436523, -0.824707, -25.2439022, -72.8048782, 19.4512196, -0.0221561
-0.6333008, -0.2041016, -0.8442383, -28.2926826, -74.9390259, 19.2682934, -0.0258488
-0.6274414, -0.2050781, -0.828125, -29.8780499, -77.4390259, 19.3902435, -0.0379339
-0.5908203, -0.2324219, -0.8037109, -31.280489, -81.2195129, 19.3292694, -0.0439765
-0.5668945, -0.2822266, -0.8452148, -30.2439022, -81.646347, 19.7560978, -0.0419623
-0.5537109, -0.3066406, -0.875, -26.6463413, -81.646347, 21.4634151, -0.0392767
-0.5019531, -0.3310547, -0.8901367, -22.1341476, -79.146347, 23.4756107, -0.0325628
-0.4794922, -0.3251953, -0.8647461, -20.3048782, -75.9146347, 22.6829281, -0.0258488
-0.4931641, -0.2856445, -0.8237305, -18.2926826, -67.8048782, 19.6341476, -0.0218204
-0.5263672, -0.2495117, -0.8173828, -18.4756107, -64.6951218, 17.560976, -0.0191348
-0.6088867, -0.190918, -0.8237305, -20.5487804, -63.6585388, 15.9146347, -0.0184634
-0.6328125, -0.1762695, -0.8198242, -22.6829281, -65.3658524, 15.8536587, -0.0151064
-0.6381836, -0.1816406, -0.7924805, -26.280489, -70.3048782, 16.4634151, -0.0218204
-0.6337891, -0.1904297, -0.7841797, -27.4390259, -72.3170776, 17.1951218, -0.0406195
-0.6191406, -0.21875, -0.8081055, -28.5365868, -73.2926865, 18.9024391, -0.0446479
-0.5942383, -0.2275391, -0.8447266, -28.5975609, -72.8658524, 19.939024, -0.0392767
-0.5786133, -0.21875, -0.84375, -28.9634151, -69.6951218, 21.1585369, -0.0251774
-0.5556641, -0.1943359, -0.7875977, -30.6097565, -65.1219559, 20.060976, -0.024506
-0.5615234, -0.1816406, -0.7397461, -31.7073174, -62.9268303, 18.8414631, -0.0305486
-0.5976562, -0.1767578, -0.6445312, -34.3902435, -60.7317085, 16.7073174, -0.0433051
-0.6259766, -0.184082, -0.6147461, -35.4878044, -61.6463432, 16.1585369, -0.0547189
-0.690918, -0.2143555, -0.6489258, -37.0731697, -67.3170776, 16.7073174, -0.0607614
-0.7226562, -0.2319336, -0.7119141, -37.4390259, -70.7317123, 18.0487804, -0.0614328
-0.7226562, -0.2573242, -0.824707, -36.2804871, -76.3414688, 20.6097565, -0.0506905
-0.6953125, -0.2675781, -0.847168, -35.3658562, -77.4390259, 21.280489, -0.0379339
-0.6108398, -0.2646484, -0.7954102, -32.6829262, -74.2073212, 20, -0.0231632
-0.5673828, -0.2460938, -0.7177734, -31.341465, -70.7317123, 18.2926826, -0.011078
-0.5703125, -0.237793, -0.7084961, -30.1219521, -65.4878082, 14.8170738, -0.0083925
-0.6152344, -0.2353516, -0.7373047, -28.841465, -66.9512177, 14.6951227, -0.0057069
-0.6313477, -0.2460938, -0.7504883, -27.0121956, -69.2073212, 15.8536587, -0.0097353
-0.6186523, -0.2768555, -0.7089844, -21.6463413, -72.0731735, 17.8048782, -0.0221561
-0.605957, -0.2895508, -0.6787109, -18.5365849, -71.3414688, 17.9268303, -0.027863
-0.6225586, -0.2788086, -0.6923828, -14.4512196, -66.0365906, 15.9146347, -0.0318914
-0.659668, -0.2402344, -0.746582, -13.841464, -63.841465, 15.1219511, -0.0305486
-0.7241211, -0.1811523, -0.855957, -16.280489, -63.841465, 14.6951227, -0.0325628
-0.7197266, -0.1655273, -0.8671875, -18.2317085, -65.8536606, 14.9390249, -0.0328985
-0.6450195, -0.1699219, -0.7993164, -20.4268303, -70.18293, 15.9146347, -0.0339055
-0.5629883, -0.2001953, -0.7109375, -20.1219521, -70.4268341, 15.6707325, -0.0359197
-0.5507812, -0.1977539, -0.7011719, -18.9024391, -66.5243912, 15.5487804, -0.0433051
-0.5825195, -0.1738281, -0.7382812, -18.4756107, -61.0365868, 15.4878054, -0.0527047
-0.6074219, -0.1650391, -0.762207, -19.2682934, -59.4512215, 16.0365849, -0.0641184
-0.6484375, -0.1635742, -0.7729492, -21.6463413, -59.2073174, 17.1341476, -0.0728466
-0.6591797, -0.1669922, -0.7583008, -23.1707325, -59.8170738, 17.7439022, -0.0741894
-0.6704102, -0.1767578, -0.7275391, -25.6097565, -60.7317085, 17.9878044, -0.0782177
-0.6767578, -0.1777344, -0.715332, -26.4634151, -60.4878044, 17.9268303, -0.0762036
-0.6762695, -0.1572266, -0.690918, -27.8048782, -59.5121956, 17.8658543, -0.0728466
-0.671875, -0.140625, -0.6723633, -28.7195129, -59.2682953, 16.9512196, -0.0728466
-0.6791992, -0.1391602, -0.6279297, -32.1341476, -58.7804909, 15.3048782, -0.0748608
-0.6894531, -0.1538086, -0.5771484, -33.841465, -59.5121956, 14.8170738, -0.0681468
-0.6967773, -0.168457, -0.5673828, -37.5609779, -61.2195129, 14.5731707, -0.063447
-0.7231445, -0.1855469, -0.5957031, -40.2439041, -62.8658562, 14.2682934, -0.0560616
-0.7348633, -0.1850586, -0.6254883, -41.2804871, -63.5365868, 14.0243902, -0.0533761
-0.7333984, -0.1982422, -0.671875, -42.2560997, -64.6951218, 13.9024391, -0.0607614
-0.7094727, -0.2075195, -0.6835938, -41.9512215, -65.4268341, 13.841464, -0.0627756
-0.6606445, -0.2348633, -0.6748047, -40.7317085, -66.3414612, 12.3780489, -0.063447
-0.6362305, -0.2485352, -0.6704102, -39.3902435, -65.7926865, 11.4634151, -0.06009
-0.628418, -0.2539062, -0.6865234, -36.2804871, -64.3902435, 10.1219511, -0.0533761
-0.6376953, -0.2456055, -0.7006836, -34.4512215, -63.1097565, 10.2439022, -0.0426337
-0.6552734, -0.2021484, -0.6982422, -30.3658543, -60.1219521, 10.6097565, -0.0446479
-0.6728516, -0.1474609, -0.6865234, -28.2926826, -55.7317085, 9.1463413, -0.0399481
-0.6875, -0.1337891, -0.6875, -28.2926826, -54.0853653, 8.3536587, -0.0352483
-0.7197266, -0.1386719, -0.7270508, -29.8170738, -55, 8.2926826, -0.0365911
-0.7207031, -0.1601562, -0.7563477, -30.1829281, -57.5609779, 9.3902445, -0.0372625
-0.6660156, -0.2163086, -0.796875, -30.060976, -62.3170738, 12.0731707, -0.0449836
-0.6308594, -0.2319336, -0.7924805, -28.4756107, -62.2560997, 12.8048782, -0.0540475
-0.5712891, -0.2338867, -0.7397461, -24.3902435, -56.341465, 12.5, -0.0654612
-0.559082, -0.2128906, -0.7041016, -22.1951218, -51.2804909, 11.7682934, -0.0956741
-0.5952148, -0.1464844, -0.6713867, -20.9756107, -42.1951218, 9.3292685, -0.1138018
-0.6303711, -0.1088867, -0.6831055, -21.7682934, -39.7560997, 8.841464, -0.0970169
-0.7104492, -0.0615234, -0.7470703, -25.9146347, -40.4878044, 9.4512196, -0.0614328
-0.7319336, -0.0629883, -0.7719727, -31.280489, -45.1219521, 12.0731707, -0.0298772
-0.7099609, -0.0844727, -0.7436523, -32.8658562, -46.6463432, 13.0487804, -0.0010071
-0.6484375, -0.1533203, -0.6381836, -33.5975609, -46.8292694, 14.1463413, 0.014435
-0.6279297, -0.1865234, -0.5932617, -32.9878044, -45.6097565, 14.0853662, 0.0124208
-0.6450195, -0.2143555, -0.5795898, -30.6707325, -42.4390259, 13.1097565, 0.0036927
-0.6704102, -0.2060547, -0.6132812, -30.3048782, -41.5853653, 13.3536587, -0.0090639
-0.7250977, -0.1782227, -0.6958008, -29.9390259, -41.4634171, 13.9024391, -0.0218204
-0.7431641, -0.1630859, -0.7216797, -30.4268303, -42.1341476, 13.9024391, -0.0285344
-0.7319336, -0.1513672, -0.7158203, -31.4634151, -43.3536606, 12.8048782, -0.0332341
-0.7192383, -0.1518555, -0.6826172, -31.7682934, -43.6585388, 12.1951218, -0.0365911
-0.6870117, -0.1801758, -0.6000977, -31.6463413, -44.6341476, 10.9146347, -0.0436408
-0.6777344, -0.2089844, -0.5566406, -30.1829281, -45.4268303, 10.4878054, -0.0419623
-0.6899414, -0.215332, -0.5654297, -28.4146347, -45.8536606, 10.6097565, -0.0365911
-0.7250977, -0.2329102, -0.6318359, -24.4512196, -47.6829262, 11.280488, -0.0325628
-0.7299805, -0.2319336, -0.6723633, -21.5853672, -48.9024391, 12.0731707, -0.0379339
-0.722168, -0.206543, -0.7236328, -17.6219521, -49.6951218, 13.1707315, -0.0372625
-0.7119141, -0.1962891, -0.7202148, -16.2195129, -49.2073174, 12.8658543, -0.0365911
-0.6855469, -0.1645508, -0.6650391, -15.1829271, -46.0365868, 11.5243902, -0.0406195
-0.6801758, -0.1435547, -0.640625, -15.2439032, -44.4512215, 10.1219511, -0.0359197
-0.7041016, -0.121582, -0.6308594, -16.4024391, -43.2317085, 7.9268293, -0.0352483
-0.715332, -0.121582, -0.6420898, -16.8902435, -44.5121956, 8.2317076, -0.0339055
-0.7270508, -0.125, -0.6806641, -18.8414631, -48.2317085, 9.3292685, -0.0352483
-0.7197266, -0.1313477, -0.7197266, -20, -50.0609779, 11.4634151, -0.0352483
-0.7099609, -0.1313477, -0.7358398, -19.939024, -49.5731735, 12.9268293, -0.0449836
-0.6865234, -0.1269531, -0.7539062, -19.3292694, -46.8292694, 14.4512196, -0.0533761
-0.675293, -0.1181641, -0.7548828, -19.5121956, -45.2439041, 15, -0.056733
-0.6572266, -0.0986328, -0.7236328, -21.1585369, -42.3780479, 15.5487804, -0.0694896
-0.6572266, -0.0908203, -0.7060547, -22.1951218, -40.9756088, 15.2439032, -0.0688182
-0.6743164, -0.0834961, -0.6757812, -24.5731716, -39.8170738, 14.6951227, -0.063447
-0.6826172, -0.0961914, -0.6547852, -25.3658543, -39.7560997, 15.060976, -0.0473335
-0.6967773, -0.1162109, -0.6079102, -26.3414631, -41.0365868, 15.7317076, -0.0191348
-0.7128906, -0.121582, -0.6030273, -27.0731716, -41.2804871, 15.4878054, 0.0016785
-0.7421875, -0.1298828, -0.6142578, -28.1097565, -40.9146347, 15.4268293, 0.0104067
-0.7617188, -0.1416016, -0.6206055, -28.9024391, -41.5853653, 15.4268293, 0.0130922
-0.7666016, -0.1508789, -0.6137695, -29.0853672, -42.3170738, 15.3048782, 0.0130922
-0.7548828, -0.1630859, -0.5732422, -29.0243912, -43.1097565, 14.0853662, 0.0016785
-0.75, -0.1591797, -0.550293, -28.9024391, -43.2317085, 13.3536587, -0.0164492
-0.7485352, -0.1582031, -0.5444336, -28.9634151, -42.5609779, 11.8902445, -0.0325628
-0.7519531, -0.1494141, -0.5488281, -28.7195129, -42.3170738, 11.0365858, -0.0466621
-0.7719727, -0.1376953, -0.5493164, -27.9268303, -43.4756126, 10.5487804, -0.06009
-0.7734375, -0.1396484, -0.5249023, -26.7682934, -44.5731735, 10.6707315, -0.0647898
-0.75, -0.1723633, -0.4682617, -23.1097565, -46.8292694, 9.8780489, -0.06009
-0.7446289, -0.1914062, -0.4682617, -21.0975609, -47.3170738, 9.3902445, -0.0560616
-0.7539062, -0.1923828, -0.5522461, -19.2682934, -47.0121956, 8.9024391, -0.0574044
-0.7729492, -0.15625, -0.6582031, -19.3902435, -46.2195129, 9.0853662, -0.06009
-0.7661133, -0.1391602, -0.6816406, -19.3292694, -46.2195129, 9.0853662, -0.0607614
-0.7329102, -0.1152344, -0.659668, -17.9878044, -46.0975609, 8.3536587, -0.0661326
-0.7143555, -0.1113281, -0.6313477, -17.1951218, -45.4268303, 8.1707315, -0.0688182
-0.6889648, -0.1020508, -0.5991211, -15.3048782, -42.9268303, 8.1707315, -0.0647898
-0.6948242, -0.0859375, -0.5991211, -15.2439032, -41.7073174, 7.9878049, -0.063447
-0.7177734, -0.0703125, -0.5957031, -15.7317076, -39.6341476, 8.5365858, -0.056733
-0.730957, -0.0737305, -0.5732422, -16.0365849, -39.5731735, 9.1463413, -0.0580758
-0.7451172, -0.0957031, -0.5234375, -15.4268293, -39.8170738, 10, -0.063447
-0.753418, -0.1137695, -0.5112305, -14.8170738, -40.1219521, 10, -0.0718395
-0.7797852, -0.1411133, -0.550293, -13.7195129, -40.7317085, 11.0975609, -0.0782177
-0.7895508, -0.1313477, -0.6206055, -13.4146347, -40.7317085, 12.9268293, -0.0809033
-0.7861328, -0.1098633, -0.6342773, -13.9024391, -39.7560997, 12.9878054, -0.0782177
-0.7680664, -0.0595703, -0.6181641, -16.4024391, -36.4634171, 12.1341467, -0.0785534
-0.762207, -0.0444336, -0.597168, -18.2926826, -34.8170738, 11.0975609, -0.0728466
-0.7563477, -0.0527344, -0.5600586, -22.1341476, -33.9634171, 9.7560978, -0.0674754
-0.7573242, -0.0727539, -0.5493164, -23.8414631, -35.3048782, 10.3658543, -0.0647898
-0.7363281, -0.1279297, -0.5263672, -25.3658543, -38.1707344, 12.560976, -0.0621042
-0.7260742, -0.1508789, -0.5126953, -24.8170738, -38.2926826, 13.4146347, -0.0513619
-0.722168, -0.1708984, -0.496582, -22.9878063, -35.2439041, 13.1707315, -0.0473335
-0.7333984, -0.1616211, -0.5092773, -22.2560978, -32.6219521, 12.560976, -0.0527047
-0.78125, -0.1459961, -0.5419922, -22.1341476, -29.8170738, 11.341464, -0.0516976
-0.8041992, -0.1396484, -0.5439453, -23.3536587, -30.6097565, 10.6097565, -0.0537118
-0.8012695, -0.1386719, -0.5302734, -24.0853672, -32.0731697, 10, -0.0520333
-0.7705078, -0.1523438, -0.4916992, -23.5365868, -33.2317085, 9.2073174, -0.052369
-0.7607422, -0.1621094, -0.4790039, -22.2560978, -33.1707306, 8.719512, -0.0459907
-0.7397461, -0.1831055, -0.4697266, -17.9268303, -31.5243912, 8.719512, -0.0436408
-0.7397461, -0.1992188, -0.4614258, -15.060976, -30.7926846, 8.780488, -0.0399481
-0.7333984, -0.2314453, -0.4511719, -9.0243902, -30, 8.780488, -0.0386053
-0.7338867, -0.2456055, -0.4506836, -6.0365853, -29.2682934, 8.4146347, -0.0379339
-0.7392578, -0.265625, -0.4716797, -1.3414634, -27.9268303, 7.1341467, -0.0325628
-0.7490234, -0.2685547, -0.4824219, 1.0365853, -26.9512196, 6.890244, -0.0271916
-0.7578125, -0.2338867, -0.4892578, 4.5121951, -24.3292694, 5.1829271, -0.0288701
-0.7724609, -0.1694336, -0.5004883, 6.7073174, -21.0365868, 2.6219513, -0.0318914
-0.7729492, -0.1342773, -0.5141602, 6.6463418, -19.8170738, 1.8902439, -0.0339055
-0.7788086, -0.0751953, -0.5605469, 4.0243902, -18.1097565, 1.1585366, -0.0345769
-0.78125, -0.0571289, -0.5800781, 2.2560976, -17.9878044, 1.2804878, -0.0352483
-0.75, -0.0532227, -0.5825195, -1.2195122, -17.8658543, 3.0487804, -0.0325628
-0.7236328, -0.0566406, -0.5751953, -2.2560976, -17.1951218, 3.5975611, -0.0298772
-0.6962891, -0.0673828, -0.5561523, -2.8658538, -13.6585369, 5, -0.0218204
-0.6850586, -0.0756836, -0.5292969, -2.8658538, -11.4024391, 5.4268293, -0.0231632
-0.6811523, -0.105957, -0.4511719, -3.0487804, -7.8048782, 5.670732, -0.0271916
-0.71875, -0.1303711, -0.4174805, -2.804878, -6.1585369, 5.2439027, -0.0298772
-0.7456055, -0.1357422, -0.4174805, -4.2682929, -4.6951222, 5.8536587, -0.0339055
-0.796875, -0.1303711, -0.418457, -5.0609756, -3.6585367, 6.4634147, -0.035584
-0.8120117, -0.125, -0.4223633, -5.1829271, -3.2926829, 6.5243902, -0.0285344
-0.8178711, -0.1220703, -0.4355469, -4.7560978, -2.6829269, 6.1585369, -0.0325628
-0.8012695, -0.1235352, -0.4428711, -4.7560978, -2.7439024, 5.9146342, -0.0412909
-0.7646484, -0.1376953, -0.4448242, -5.7317076, -2.5, 5.4268293, -0.0406195
-0.7407227, -0.1450195, -0.4199219, -6.0975609, -2.0731707, 4.8780489, -0.0369268
-0.7109375, -0.171875, -0.340332, -4.390244, -0.5487805, 3.7195122, -0.0231632
-0.7001953, -0.1860352, -0.3017578, -2.3780489, 0.6707317, 2.804878, -0.0036927
-0.7172852, -0.1850586, -0.2739258, 1.8292683, 3.8414636, 1.097561, 0.0124208
-0.7685547, -0.1640625, -0.3212891, 3.5975611, 4.9390244, 0, 0.0184634
-0.7929688, -0.1552734, -0.3583984, 4.5731707, 6.280488, -0.4878049, 0.0218204
-0.8017578, -0.1337891, -0.4116211, 4.0853658, 5.4878049, -0.5487805, 0.017792
-0.793457, -0.1279297, -0.4135742, 3.9024391, 5.7317076, -1.097561, 0.0070497
-0.7412109, -0.1220703, -0.3911133, 3.5975611, 7.0121951, -3.1707318, -0.0097353
-0.7207031, -0.1240234, -0.3925781, 3.5975611, 8.3536587, -3.9024391, -0.0171206
-0.6943359, -0.1166992, -0.4462891, 2.6219513, 11.7073174, -5.4268293, -0.027863
-0.6923828, -0.1152344, -0.4765625, 1.5853659, 13.2317076, -5.8536587, -0.0406195
-0.6821289, -0.1132812, -0.5078125, -0.1219512, 15.7926836, -5.5487804, -0.0486763
-0.6801758, -0.1049805, -0.5004883, 0, 17.0731716, -5, -0.0580758
-0.6616211, -0.0898438, -0.4672852, 1.0365853, 20.7926826, -3.9024391, -0.0688182
-0.6616211, -0.0493164, -0.4804688, 1.2804878, 23.4756107, -3.7804878, -0.0704967
-0.684082, -0.0288086, -0.5117188, -1.3414634, 29.6341476, -4.6341462, -0.0715038
-0.7290039, 0.0004883, -0.5385742, -7.0731707, 33.3536606, -4.5731707, -0.070161
-0.7329102, -0.012207, -0.5131836, -9.6951218, 33.1097565, -4.1463413, -0.0654612
-0.6958008, -0.0830078, -0.4199219, -11.7073174, 31.4024391, -3.2926829, -0.063447
-0.6738281, -0.1264648, -0.3896484, -11.4024391, 31.0975609, -2.7439024, -0.0610971
-0.6386719, -0.1831055, -0.3818359, -7.3170733, 33.0487823, -1.8292683, -0.0553902
-0.6357422, -0.2011719, -0.3867188, -5.3658538, 35.1829262, -1.6463414, -0.0547189
-0.6396484, -0.199707, -0.3828125, -0.7317073, 40.5487823, -2.5609756, -0.0594186
-0.6547852, -0.1928711, -0.3886719, 0.9756098, 42.9878044, -3.7804878, -0.0674754
-0.6860352, -0.1669922, -0.4174805, 2.1341465, 46.4024391, -5.9756098, -0.0741894
-0.7143555, -0.1416016, -0.4423828, 2.0731707, 46.7073174, -6.6463418, -0.0755322
-0.7143555, -0.1367188, -0.4414062, 0.7317073, 46.8902435, -7.6219516, -0.0741894
-0.6821289, -0.1264648, -0.4121094, 0.4878049, 46.2804871, -8.5365858, -0.0661326
-0.6640625, -0.128418, -0.4018555, 0.4268293, 46.8292694, -9.0853662, -0.0607614
-0.6455078, -0.1254883, -0.3935547, 1.097561, 48.7804871, -10.3048782, -0.0553902
-0.644043, -0.125, -0.3867188, 1.5853659, 50.0609779, -10.3658543, -0.0527047
-0.6435547, -0.1191406, -0.3520508, 2.3170731, 53.1707344, -10.8536587, -0.0486763
-0.6503906, -0.1196289, -0.3378906, 3.5365853, 54.2073174, -11.280488, -0.0480049
-0.6655273, -0.1274414, -0.3427734, 4.7560978, 55.1219521, -11.8902445, -0.0480049
-0.6748047, -0.1333008, -0.3579102, 5.4268293, 55.1219521, -11.7682934, -0.0540475
-0.6777344, -0.1328125, -0.40625, 5.670732, 54.5731735, -11.341464, -0.0862745
-0.6640625, -0.1225586, -0.4848633, 5.4878049, 54.6341476, -11.0975609, -0.1211872
-0.6523438, -0.112793, -0.5234375, 3.8414636, 55.9146347, -11.8902445, -0.1225299
-0.6264648, -0.0854492, -0.5751953, 1.3414634, 58.4146347, -12.7439032, -0.0923171
-0.6108398, -0.0742188, -0.5737305, -0.1219512, 60, -12.9268293, -0.0506905
-0.5717773, -0.0673828, -0.5151367, -1.402439, 63.1707344, -13.5975609, -0.0151064
-0.550293, -0.0810547, -0.4697266, -0.9146342, 64.4512177, -13.780488, -0.0003357
-0.534668, -0.1152344, -0.4116211, 0.1219512, 66.5243912, -13.6585369, 0.0083925
-0.5419922, -0.1303711, -0.4150391, 0.9756098, 66.9512177, -13.2926836, 0.0063783
-0.5761719, -0.1606445, -0.4682617, 2.6829269, 68.2317123, -11.4634151, -0.0020142
-0.5917969, -0.1733398, -0.4858398, 4.2073174, 68.8414688, -10, -0.017792
-0.6020508, -0.1831055, -0.496582, 8.1707315, 70.6707306, -7.8048782, -0.0328985
-0.5942383, -0.168457, -0.5107422, 10.6707315, 72.5609741, -7.5, -0.0466621
-0.5976562, -0.1567383, -0.5366211, 14.0243902, 76.5243912, -8.6585369, -0.0513619
-0.6040039, -0.1225586, -0.6147461, 12.9878054, 80.0609741, -10.4878054, -0.0516976
-0.6025391, -0.1079102, -0.6333008, 10.5487804, 80.8536606, -10.9146347, -0.0527047
-0.5756836, -0.0771484, -0.6157227, 5.4878049, 82.0121994, -12.1341467, -0.0527047
-0.5561523, -0.0712891, -0.5859375, 2.9878049, 82.8048782, -12.9878054, -0.0580758
-0.5332031, -0.0712891, -0.5288086, 0.0609756, 84.6341476, -14.9390249, -0.0553902
-0.5375977, -0.0766602, -0.5112305, -1.0365853, 85.6707306, -15.3048782, -0.0594186
-0.5463867, -0.0981445, -0.5019531, -2.0731707, 87.1951218, -14.7560978, -0.0560616
-0.5537109, -0.1098633, -0.5, -2.6829269, 87.7439041, -14.0243902, -0.0500191
-0.5717773, -0.1420898, -0.4970703, -3.2317073, 88.2926865, -13.2317076, -0.0540475
-0.5825195, -0.1635742, -0.4746094, -2.9268293, 88.4146347, -13.5365858, -0.049012
-0.5854492, -0.1630859, -0.4516602, -2.9878049, 89.4512253, -14.6951227, -0.0433051
-0.5913086, -0.1542969, -0.4174805, -3.2317073, 90.1219559, -17.0731716, -0.0433051
-0.6049805, -0.1386719, -0.4248047, -3.9024391, 90.3658524, -18.8414631, -0.0409552
-0.6367188, -0.0776367, -0.4897461, -8.1707315, 89.8780518, -20.6707325, -0.0446479
-0.6484375, -0.0512695, -0.534668, -11.341464, 89.0243912, -20.6707325, -0.0513619
-0.6445312, -0.0117188, -0.5742188, -18.0487804, 86.4024429, -20.3658543, -0.0607614
-0.6152344, -0.0087891, -0.5576172, -20.7317085, 84.9390259, -20.4268303, -0.063447
-0.5576172, -0.0576172, -0.4926758, -21.9512196, 82.7439041, -20.3658543, -0.0641184
-0.53125, -0.1025391, -0.4858398, -20.9756107, 81.5853653, -20.1829281, -0.063447
-0.4936523, -0.1782227, -0.5463867, -17.0731716, 80.3658524, -17.560976, -0.06009
-0.4643555, -0.2241211, -0.6240234, -12.9878054, 81.8292694, -14.8170738, -0.0594186
-0.449707, -0.2373047, -0.6425781, -10.4268293, 83.5365906, -14.3292685, -0.056733
-0.4311523, -0.2392578, -0.6318359, -5.8536587, 88.8414688, -15.3048782, -0.0520333
-0.4355469, -0.2333984, -0.6289062, -3.0487804, 92.0731735, -16.4024391, -0.0480049
-0.4775391, -0.199707, -0.6831055, -0.4268293, 97.5, -18.2317085, -0.0439765
-0.5029297, -0.1855469, -0.7299805, 0.1829268, 98.8414688, -18.2926826, -0.0339055
-0.5214844, -0.1611328, -0.7949219, -0.0609756, 99.7561035, -17.0121956, -0.0258488
-0.5146484, -0.1538086, -0.7827148, -0.3658537, 99.8170776, -16.4024391, -0.0191348
-0.4511719, -0.1713867, -0.7124023, 1.5853659, 101.2195129, -16.0975609, -0.0046998
-0.4204102, -0.1943359, -0.684082, 3.6585367, 103.0487823, -16.3414631, 0.0087282
-0.3950195, -0.2080078, -0.6982422, 8.2317076, 107.9268341, -16.4634151, 0.0057069
-0.4077148, -0.190918, -0.7470703, 11.4024391, 113.2926865, -14.8780489, 0.0124208
-0.4165039, -0.1796875, -0.7485352, 12.7439032, 115.5487823, -14.0853662, 0.0339055
-0.4208984, -0.1679688, -0.6923828, 14.5121956, 119.0853653, -15.1829271, 0.0574044
-0.4272461, -0.1689453, -0.6547852, 15.1829271, 119.8780518, -16.5243912, 0.0651255
-0.4516602, -0.1831055, -0.6201172, 16.3414631, 119.6951218, -18.7195129, 0.0597543
-0.472168, -0.1904297, -0.6367188, 15.9756098, 119.2073212, -19.1463413, 0.0419623
-0.5024414, -0.1762695, -0.7075195, 12.8658543, 117.86586, -19.2682934, 0.0157778
-0.5136719, -0.1625977, -0.7353516, 11.1585369, 117.68293, -19.5731716, -0.014435
-0.5004883, -0.1157227, -0.7290039, 6.4024391, 118.0487823, -21.0365868, -0.0446479
-0.4912109, -0.1040039, -0.7011719, 3.9024391, 118.4146347, -22.439024, -0.0741894
-0.4619141, -0.0947266, -0.6591797, -0.5487805, 118.5365906, -25.3048782, -0.0856031
-0.453125, -0.1103516, -0.6967773, -6.6463418, 117.3780518, -26.280489, -0.0876173
-0.4506836, -0.1245117, -0.7387695, -10.2439022, 116.5853653, -25.8536587, -0.076875
-0.4379883, -0.1572266, -0.8154297, -16.7682934, 114.2073212, -24.6951218, -0.0587472
-0.4238281, -0.175293, -0.8383789, -19.2682934, 113.1097565, -24.2073174, -0.0426337
-0.3857422, -0.2041016, -0.8642578, -20.6707325, 111.8902435, -23.8414631, -0.0285344
-0.3681641, -0.2182617, -0.871582, -19.5121956, 112.2561035, -24.0853672, -0.0285344
-0.3330078, -0.2319336, -0.8608398, -15.9756098, 114.4512253, -23.7195129, -0.035584
-0.3212891, -0.2333984, -0.8579102, -14.2073174, 116.4634171, -23.5975609, -0.0446479
-0.3256836, -0.215332, -0.8886719, -13.4146347, 120.7926865, -23.0487804, -0.0621042
-0.3452148, -0.206543, -0.9135742, -14.3292685, 122.6219559, -22.9878063, -0.0795605
-0.3793945, -0.1899414, -0.9321289, -16.9512196, 125.18293, -23.1707325, -0.0876173
-0.3911133, -0.2045898, -0.8745117, -18.4146347, 124.8170776, -23.9024391, -0.0919814
-0.3837891, -0.2216797, -0.8212891, -17.3780499, 123.2926865, -24.1463413, -0.0970169
-0.375, -0.2875977, -0.7099609, -12.7439032, 120.5487823, -24.0243912, -0.1010452
-0.3706055, -0.315918, -0.6630859, -8.780488, 119.6341476, -24.3902435, -0.1010452
-0.3950195, -0.3549805, -0.6069336, 0.3658537, 119.0243912, -24.2682934, -0.1000381
-0.4194336, -0.3662109, -0.6132812, 5.8536587, 118.9024429, -24.0243912, -0.1050736
-0.4609375, -0.3632812, -0.6958008, 15, 118.4756088, -24.0853672, -0.1131304
-0.4692383, -0.3510742, -0.7661133, 18.1097565, 118.0487823, -24.0243912, -0.1188373
-0.4609375, -0.2944336, -0.9282227, 18.780489, 118.1097565, -24.8780499, -0.1131304
-0.4477539, -0.2495117, -1.0229492, 16.4024391, 118.8414688, -25.5487804, -0.1050736
-0.3857422, -0.1489258, -1.2026367, 7.0731707, 121.0365906, -27.2560978, -0.0929885
-0.2749023, -0.059082, -1.2597656, -7.4390244, 124.0853653, -29.5121956, -0.0835889
-0.2128906, -0.0317383, -1.2231445, -15, 126.0975647, -30.4268303, -0.0856031
-0.1020508, -0.0170898, -1.065918, -28.1707325, 131.4024353, -32.2560997, -0.0798962
-0.0776367, -0.0249023, -0.9731445, -33.5975609, 134.5731812, -32.6219521, -0.0661326
-0.1196289, -0.0649414, -0.824707, -39.6951218, 139.6951294, -31.7682934, -0.0500191
-0.1767578, -0.0922852, -0.7749023, -40.8536606, 140.6707306, -30.7317085, -0.0352483
-0.3120117, -0.159668, -0.7319336, -40.7317085, 139.4512177, -27.6829281, -0.0231632
-0.375, -0.2006836, -0.7387695, -40.5487823, 137.0731812, -25.7926826, -0.0201419
-0.4658203, -0.2700195, -0.8334961, -39.5121956, 128.8414612, -22.560976, -0.0251774
-0.4882812, -0.2978516, -0.9057617, -39.6341476, 124.6951218, -21.280489, -0.0271916
-0.4580078, -0.3295898, -0.9960938, -39.6951218, 119.3292694, -18.2317085, -0.0275273
-0.3266602, -0.3320312, -0.9575195, -38.6585388, 119.6951218, -17.7439022, -0.0318914
-0.2578125, -0.324707, -0.9165039, -38.2317085, 122.3170776, -19.2682934, -0.024506
-0.1777344, -0.2866211, -0.8662109, -36.5243912, 131.0975647, -23.7195129, -0.0228275
-0.1821289, -0.2607422, -0.8691406, -35.8536606, 135, -25.7317085, -0.0198062
-0.234375, -0.2373047, -0.9130859, -33.6585388, 137.9268341, -27.6219521, -0.0137636
-0.2558594, -0.2485352, -0.9526367, -31.4024391, 135.9146423, -27.1341476, -0.0164492
-0.2783203, -0.3305664, -1.0405273, -24.0853672, 126.8902435, -23.5365868, -0.0271916
-0.2641602, -0.3896484, -1.0776367, -18.4756107, 121.7073212, -20.4878044, -0.0439765
-0.1806641, -0.4868164, -1.0825195, -4.4512196, 117.4390259, -14.6951227, -0.073518
-0.1210938, -0.5117188, -1.0400391, 3.1707318, 121.1585388, -13.2926836, -0.0741894
-0.0390625, -0.4765625, -0.921875, 17.0731716, 137.86586, -16.4634151, -0.06009
-0.1049805, -0.3564453, -0.8769531, 25.6707325, 157.7439117, -25.6707325, -0.0426337
-0.1831055, -0.2832031, -0.8833008, 26.3414631, 164.5121918, -29.9390259, -0.0181277
-0.3496094, -0.140625, -0.921875, 19.1463413, 167.5609741, -34.7560997, 0.0036927
-0.4082031, -0.0893555, -0.9370117, 12.5, 163.2926941, -35.6097565, 0.0171206
-0.4433594, -0.0615234, -0.9648438, -2.0731707, 148.8414612, -35.3658562, 0.017792
-0.4155273, -0.0883789, -0.9916992, -8.841464, 140.7926788, -34.4512215, 0.014435
-0.3051758, -0.1884766, -1.0888672, -18.6585369, 126.8902435, -30, -0.0003357
-0.2275391, -0.2421875, -1.1333008, -21.6463413, 122.8048782, -27.4390259, -0.0191348
-0.0527344, -0.3066406, -1.1259766, -23.9024391, 124.0243912, -21.4024391, -0.0285344
0.0302734, -0.309082, -1.0571289, -22.560976, 129.8170776, -20.1219521, -0.0325628
0.097168, -0.2646484, -0.8818359, -16.5853653, 148.2926788, -22.6219521, -0.0392767
-0.0234375, -0.1958008, -0.8588867, -11.0975609, 164.2682953, -27.7439022, -0.0453193
-0.1206055, -0.1625977, -0.9223633, -11.280488, 166.3414612, -28.5975609, -0.0500191
-0.3027344, -0.1254883, -1.0888672, -19.3292694, 159.0853729, -25.6707325, -0.0513619
-0.3374023, -0.1210938, -1.1376953, -26.1585369, 151.4634247, -22.8658543, -0.0513619
-0.2792969, -0.1455078, -1.0917969, -39.3902435, 138.9024353, -18.5975609, -0.0520333
-0.215332, -0.168457, -1.0317383, -43.4146347, 136.0365906, -18.2926826, -0.0604257
-0.1147461, -0.230957, -0.956543, -46.7682953, 138.0487823, -19.6341476, -0.0762036
-0.0888672, -0.2587891, -0.96875, -46.1585388, 140.3048859, -19.939024, -0.0792248
-0.0869141, -0.296875, -1.0683594, -43.2317085, 141.7682953, -18.780489, -0.0715038
-0.0986328, -0.3134766, -1.1386719, -40.8536606, 140.8536682, -17.3170738, -0.0674754
-0.0800781, -0.3505859, -1.2504883, -34.6951218, 137.6219482, -12.9878054, -0.066804
0.0039062, -0.3803711, -1.2329102, -27.5, 138.2926788, -10.2439022, -0.0587472
0.0517578, -0.3945312, -1.1767578, -23.5975609, 141.4024353, -10.7926836, -0.0500191
0.0800781, -0.4111328, -1.0634766, -16.5243912, 150.3048859, -14.8170738, -0.0372625
0.0483398, -0.4121094, -1.0415039, -12.7439032, 154.4512177, -17.3780499, -0.0238346
-0.0585938, -0.3876953, -1.0805664, -7.7439027, 158.7804871, -20.2439022, -0.011078
-0.1088867, -0.3637695, -1.0917969, -6.4024391, 158.2926941, -20.9756107, -0.0124208
-0.1508789, -0.3071289, -1.0327148, -6.7073174, 154.8170776, -21.0365868, -0.0151064
-0.1469727, -0.2910156, -0.9589844, -7.1341467, 153.4146423, -21.5243912, -0.0157778
-0.1357422, -0.2729492, -0.8266602, -7.0731707, 151.1585388, -24.1463413, -0.0198062
-0.1635742, -0.269043, -0.828125, -6.7073174, 150.36586, -25.1829281, -0.0248417
-0.1801758, -0.2529297, -0.8808594, -6.7073174, 148.4146423, -24.5121956, -0.027863
-0.1835938, -0.1811523, -1.0092773, -10.4878054, 145.6707306, -21.3414631, -0.0305486
-0.1616211, -0.137207, -1.0664062, -13.1097565, 144.6341553, -19.5121956, -0.0352483
-0.0864258, -0.0712891, -1.1079102, -20.3658543, 144.0243988, -17.3780499, -0.0332341
-0.0380859, -0.0678711, -1.105957, -24.8170738, 144.0853729, -16.4634151, -0.0285344
0.0585938, -0.112793, -1.0507812, -31.7682934, 142.9268341, -14.9390249, -0.03122
0.0991211, -0.1513672, -1.012207, -34.3292694, 141.7073212, -14.3902445, -0.0285344
0.1352539, -0.2177734, -0.9555664, -36.7682953, 139.2682953, -13.4146347, -0.0218204
0.1318359, -0.2363281, -0.9477539, -36.8902435, 138.8414612, -13.2926836, -0.0224918
0.0883789, -0.2329102, -0.9765625, -35.8536606, 139.8780518, -13.780488, -0.021149
0.0273438, -0.1918945, -1.1000977, -36.341465, 140.6707306, -13.4756098, -0.0164492
0.0019531, -0.1674805, -1.2133789, -39.8780479, 140.8536682, -12.2560978, -0.0184634
-0.0029297, -0.144043, -1.4516602, -47.9268303, 137.3170776, -9.3902445, -0.0204776
0.03125, -0.1518555, -1.5146484, -52.7439041, 135.1219482, -6.7682929, -0.0248417
0.1948242, -0.2167969, -1.4150391, -60.5487823, 133.3536682, -1.7682927, -0.0231632
0.2915039, -0.2705078, -1.2514648, -61.1585388, 135.5487823, -1.0365853, -0.0265202
0.3964844, -0.3662109, -0.8989258, -52.9878044, 144.146347, -5.670732, -0.027863
0.3632812, -0.3950195, -0.7705078, -44.9390259, 149.3292694, -9.7560978, -0.0271916
0.1630859, -0.3959961, -0.737793, -27.1341476, 154.0243988, -17.0121956, -0.0248417
0.034668, -0.3764648, -0.8222656, -20.5487804, 151.8292694, -18.4146347, -0.0224918
-0.1552734, -0.3188477, -1.0541992, -16.280489, 141.7073212, -16.4634151, -0.027863
-0.1464844, -0.2651367, -1.1494141, -18.5975609, 135.9146423, -14.1463413, -0.0298772
-0.0732422, -0.2602539, -1.1132812, -24.5121956, 128.5975647, -11.1585369, -0.0339055
0.1132812, -0.2827148, -0.9438477, -25.3658543, 128.1707306, -12.6829271, -0.0386053
0.184082, -0.309082, -0.8540039, -22.439024, 130.0609741, -14.6951227, -0.0409552
0.237793, -0.3398438, -0.7949219, -12.5, 132.0731812, -18.5975609, -0.0436408
0.2226562, -0.3300781, -0.8569336, -7.3170733, 132.3170776, -19.6951218, -0.0426337
0.1586914, -0.2553711, -1.1411133, -0.3048781, 130.9756165, -17.6219521, -0.0419623
0.1391602, -0.1967773, -1.309082, -0.1829268, 129.8170776, -15.2439032, -0.0379339
0.1811523, -0.1079102, -1.5512695, -6.7682929, 128.7195129, -9.2073174, -0.03122
0.2329102, -0.0732422, -1.5854492, -12.560976, 129.146347, -6.7073174, -0.0271916
0.3779297, -0.046875, -1.4604492, -23.9634151, 133.6585388, -3.6585367, -0.0365911
0.4697266, -0.0517578, -1.1518555, -27.9268303, 138.1707306, -3.5365853, -0.0480049
0.4658203, -0.0498047, -0.9853516, -30.6707325, 148.4146423, -7.9878049, -0.0486763
0.3178711, -0.0566406, -0.7832031, -29.6951218, 153.8414612, -13.841464, -0.0352483
0.1958008, -0.0664062, -0.7734375, -29.2073174, 152.0121918, -15.6707325, -0.0251774
-0.019043, -0.1147461, -0.8935547, -33.4756088, 138.8414612, -14.5121956, -0.0151064
-0.0727539, -0.1606445, -0.96875, -36.8902435, 129.6951294, -11.9512196, -0.0137636
-0.0161133, -0.2832031, -1.0551758, -43.2926826, 112.2561035, -5.5487804, -0.0124208
0.081543, -0.340332, -1.0229492, -44.4512215, 107.5609818, -3.1707318, -0.0124208
0.2915039, -0.4233398, -0.8637695, -38.841465, 107.3170776, -3.6585367, -0.0137636
0.3798828, -0.4458008, -0.7929688, -32.9878044, 111.5243912, -6.1585369, -0.011078
0.4291992, -0.4291992, -0.7700195, -18.6585369, 121.9512253, -14.0853662, -0.0083925
0.3388672, -0.3500977, -0.9404297, -12.7439032, 125.5487823, -17.6829281, -0.0137636
0.2871094, -0.3144531, -1.0664062, -7.4390244, 125.1219559, -21.5243912, -0.0083925
0.2490234, -0.2783203, -1.2885742, -11.0365858, 116.0975647, -20.3048782, -0.0030213
0.2724609, -0.2739258, -1.3632812, -14.0853662, 111.0365906, -18.2317085, -0.0124208
0.3803711, -0.2636719, -1.4082031, -18.5975609, 105.4268341, -14.1463413, -0.0218204
0.4511719, -0.25, -1.3842773, -18.9024391, 106.4634171, -12.8658543, -0.0359197
0.5620117, -0.2026367, -1.2558594, -14.5731707, 118.0487823, -12.6829271, -0.0513619
0.5766602, -0.1767578, -1.1806641, -11.341464, 126.1585388, -13.5975609, -0.06009
0.4824219, -0.1376953, -1.0849609, -4.0853658, 140, -16.9512196, -0.0651255
0.3930664, -0.1269531, -1.0859375, -2.0121951, 143.0487823, -17.439024, -0.0691539
0.2207031, -0.1064453, -1.1928711, -3.2926829, 138.8414612, -15, -0.0728466
0.1699219, -0.0737305, -1.293457, -7.3780489, 134.4512177, -12.1951218, -0.0741894
0.2119141, -0.0639648, -1.2890625, -19.6341476, 126.2804871, -6.4634147, -0.0835889
0.3613281, -0.0913086, -1.1743164, -31.5243912, 123.7195129, -4.5121951, -0.0929885
0.4306641, -0.125, -1.0874023, -35.3658562, 124.146347, -4.9390244, -0.1013809
0.5024414, -0.1987305, -0.9277344, -36.7682953, 126.4024429, -6.4634147, -0.115816
0.5004883, -0.21875, -0.8759766, -35.3048782, 127.86586, -7.3780489, -0.1171588
0.4287109, -0.2119141, -0.8686523, -29.6951218, 129.5731812, -7.6829271, -0.119173
0.3808594, -0.1982422, -0.9150391, -26.6463413, 129.2073212, -7.5609756, -0.1185016
0.3217773, -0.199707, -1.0410156, -23.8414631, 125.5487823, -5.7317076, -0.1238727
0.3344727, -0.2128906, -1.0795898, -24.8170738, 122.5, -4.2682929, -0.1161517
0.4091797, -0.2641602, -1.0722656, -28.2926826, 116.9512253, -2.6219513, -0.1010452
0.4941406, -0.3125, -1.0283203, -29.5121956, 115.9756088, -2.6219513, -0.0825818
0.5249023, -0.324707, -0.9995117, -28.1707325, 116.3414688, -4.3292685, -0.0621042
0.5512695, -0.3208008, -0.9233398, -22.9878063, 119.5121994, -7.3780489, -0.0433051
0.5444336, -0.3129883, -0.8881836, -19.8170738, 121.1585388, -9.8170738, -0.0433051
0.4785156, -0.2856445, -0.8613281, -12.6829271, 122.7439041, -13.4146347, -0.0621042
0.4350586, -0.284668, -0.8759766, -10, 121.8292694, -14.3292685, -0.070161
0.3671875, -0.2675781, -0.9277344, -7.5, 117.1951218, -14.4512196, -0.0607614
0.3569336, -0.2626953, -0.9389648, -7.4390244, 114.2073212, -14.0853662, -0.0527047
0.3945312, -0.2504883, -0.9145508, -8.5365858, 109.4512253, -13.780488, -0.0352483
0.421875, -0.2456055, -0.8886719, -9.2682924, 108.4756088, -14.5731707, -0.0271916
0.4702148, -0.234375, -0.8579102, -8.2317076, 108.0487823, -16.5243912, -0.0292058
0.4921875, -0.2045898, -0.9042969, -6.2195125, 107.9878082, -18.7195129, -0.0325628
0.4912109, -0.1889648, -0.9394531, -5.609756, 107.1951218, -19.3292694, -0.0328985
0.4946289, -0.1655273, -0.9970703, -6.6463418, 105.18293, -19.6341476, -0.0406195
0.5058594, -0.15625, -1.0073242, -7.4390244, 104.2073212, -19.3292694, -0.0453193
0.5239258, -0.1484375, -1, -9.3292685, 104.0853653, -19.4512196, -0.0466621
0.5258789, -0.1411133, -1.0175781, -9.8780489, 104.146347, -19.8170738, -0.0513619
0.5141602, -0.1479492, -1.1743164, -11.8292685, 103.6585388, -19.2073174, -0.0540475
0.5068359, -0.1552734, -1.2817383, -13.4146347, 102.4390259, -17.9878044, -0.0580758
0.5488281, -0.1875, -1.4663086, -20.1829281, 99.6341476, -13.2926836, -0.056733
0.590332, -0.2006836, -1.5161133, -24.1463413, 98.9634171, -11.0975609, -0.0547189
0.7163086, -0.2285156, -1.5161133, -30.5487804, 102.5609818, -7.9878049, -0.0553902
0.8295898, -0.2475586, -1.3813477, -31.8902454, 114.3292694, -8.2317076, -0.0594186
0.8598633, -0.2514648, -1.2666016, -30.4878063, 122.4390259, -9.1463413, -0.070161
0.8110352, -0.246582, -1.0043945, -23.5975609, 138.7195129, -13.2317076, -0.0688182
0.7421875, -0.2338867, -0.90625, -19.6951218, 145.0609741, -15.4878054, -0.0681468
0.5209961, -0.2001953, -0.8188477, -12.9268293, 150.36586, -18.9024391, -0.0621042
0.40625, -0.1889648, -0.8276367, -11.5243902, 148.3536682, -18.9634151, -0.0513619
0.2543945, -0.1875, -0.8867188, -14.3902445, 137.0121918, -16.7073174, -0.0500191
0.237793, -0.2006836, -0.9165039, -18.1097565, 129.0853729, -15.2439032, -0.0520333
0.315918, -0.2470703, -0.925293, -25.7926826, 115.2439041, -12.0731707, -0.0463264
0.3920898, -0.2592773, -0.894043, -27.5, 111.1585388, -11.4634151, -0.0379339
0.5595703, -0.2514648, -0.8188477, -26.2195129, 111.8902435, -11.8902445, -0.0352483
0.6645508, -0.2172852, -0.8066406, -20.060976, 118.7804871, -14.5121956, -0.0466621
0.6831055, -0.2011719, -0.8432617, -16.8292694, 121.5243912, -15.6097565, -0.056733
0.6674805, -0.1948242, -0.9628906, -14.6951227, 121.4024429, -15.9146347, -0.0553902
0.652832, -0.1977539, -1.0068359, -15.4268293, 118.9024429, -14.8780489, -0.0594186
0.668457, -0.2163086, -1, -18.4146347, 113.5365906, -12.6219511, -0.0500191
0.6850586, -0.2255859, -0.9477539, -19.4512196, 111.8292694, -12.1341467, -0.0332341
0.7094727, -0.2329102, -0.8173828, -16.4024391, 113.1707306, -13.780488, -0.017792
0.6918945, -0.2314453, -0.7739258, -13.5975609, 115.2439041, -15.3658543, -0.011078
0.6137695, -0.2070312, -0.8017578, -8.2926826, 118.5975647, -18.3536587, -0.0124208
0.5610352, -0.184082, -0.8598633, -7.3170733, 118.3536606, -18.8414631, -0.011078
0.503418, -0.1538086, -0.9794922, -9.3292685, 114.0853653, -17.8658543, -0.0090639
0.5493164, -0.1518555, -1.0058594, -14.5731707, 107.4390259, -16.2195129, -0.0003357
0.6000977, -0.1586914, -0.9814453, -16.8902435, 104.8780518, -15.9756098, 0.0003357
0.6938477, -0.1767578, -0.902832, -17.9878044, 103.9024429, -16.280489, -0.0043641
0.7250977, -0.1875, -0.8710938, -17.0731716, 105.4878082, -16.8292694, -0.0070497
0.7392578, -0.1782227, -0.8388672, -13.6585369, 111.0365906, -17.0121956, -0.0030213
0.722168, -0.1640625, -0.8530273, -11.7682934, 113.6585388, -17.0731716, -0.0050355
0.6625977, -0.1206055, -0.9477539, -11.219512, 115.6707306, -16.6463413, -0.0043641
0.6411133, -0.109375, -1.0166016, -12.2560978, 114.5731735, -15.8536587, -0.0003357
0.6450195, -0.1113281, -1.1123047, -18.7195129, 108.2926865, -13.7195129, -0.0010071
0.6733398, -0.1352539, -1.1181641, -22.1951218, 104.9390259, -12.8048782, -0.0043641
0.7641602, -0.1777344, -1.0791016, -27.5, 101.2195129, -11.1585369, -0.0036927
0.8300781, -0.1899414, -1.0678711, -27.8658543, 104.6341476, -10.6707315, -0.0043641
0.8388672, -0.184082, -1.0966797, -26.5243912, 108.0487823, -10.3048782, -0.0083925
0.8417969, -0.1704102, -1.1416016, -23.4756107, 114.8780518, -10.060976, -0.0208133
0.840332, -0.1777344, -1.1269531, -23.0487804, 117.5609818, -9.8170738, -0.0271916
0.8491211, -0.1948242, -1.003418, -22.3170738, 120.5487823, -9.0243902, -0.0372625
0.8476562, -0.2104492, -0.9140625, -21.1585369, 121.646347, -8.841464, -0.0406195
0.7963867, -0.2324219, -0.7866211, -16.3414631, 123.1097565, -9.2682924, -0.0396124
0.7529297, -0.2241211, -0.7602539, -13.4146347, 123.8414688, -9.6951218, -0.0392767
0.6635742, -0.1669922, -0.7631836, -9.9390249, 124.5121994, -10.5487804, -0.0433051
0.6259766, -0.1220703, -0.7675781, -9.3902445, 124.0243912, -10.7317076, -0.0500191
0.5981445, -0.043457, -0.7607422, -12.4390249, 121.7073212, -11.4634151, -0.0527047
0.621582, -0.0073242, -0.7714844, -18.4146347, 115.2439041, -12.3170738, -0.0533761
0.6484375, -0.0102539, -0.7871094, -21.8902435, 110.6707306, -12.3170738, -0.0604257
0.7177734, -0.0532227, -0.8188477, -28.5365868, 101.0975647, -11.5853662, -0.0715038
0.7612305, -0.090332, -0.8164062, -30.4878063, 97.1341476, -11.0975609, -0.0728466
0.84375, -0.171875, -0.7729492, -29.1463413, 92.1341476, -9.0853662, -0.0688182
0.8696289, -0.2128906, -0.7407227, -25.7926826, 91.5853653, -8.9024391, -0.0681468
0.8886719, -0.2783203, -0.7124023, -16.280489, 93.7804871, -8.6585369, -0.0681468
0.8730469, -0.2983398, -0.7290039, -11.8902445, 95.6097565, -8.9024391, -0.0674754
0.8251953, -0.2983398, -0.8217773, -5.4878049, 98.7804871, -9.6951218, -0.0621042
0.8017578, -0.2817383, -0.8745117, -4.6951222, 99.4512253, -10.6097565, -0.0674754
0.7827148, -0.237793, -0.9301758, -6.8292685, 97.68293, -13.1707315, -0.0678111
0.8183594, -0.2084961, -0.8623047, -9.8170738, 95.9756088, -16.0975609, -0.0637827
0.8398438, -0.2026367, -0.8120117, -10.2439022, 95.2439041, -17.3780499, -0.0621042
0.8632812, -0.1850586, -0.730957, -7.7439027, 95.6707306, -19.1463413, -0.0688182
0.8569336, -0.1738281, -0.7182617, -5.7926831, 96.3414688, -19.6341476, -0.0691539
0.815918, -0.1494141, -0.7358398, -1.5853659, 97.0731735, -19.8170738, -0.066804
0.7993164, -0.1352539, -0.7543945, -0.3048781, 96.4024429, -19.3292694, -0.0973526
0.7749023, -0.1166992, -0.7861328, -0.2439024, 92.0731735, -18.5365849, -0.1077592
0.7734375, -0.1191406, -0.7905273, -0.9756098, 89.7560959, -18.1097565, -0.0960098
0.7861328, -0.1206055, -0.7875977, -2.6829269, 85.18293, -17.6829281, -0.0688182
0.7978516, -0.1225586, -0.7836914, -2.804878, 84.146347, -17.560976, -0.0359197
0.8232422, -0.1235352, -0.7666016, -2.3170731, 84.0853653, -17.9878044, -0.011078
0.8291016, -0.1264648, -0.762207, -0.5487805, 85.4268341, -18.4756107, 0.0010071
0.8242188, -0.1298828, -0.7597656, 0, 86.2195129, -18.8414631, 0.0130922
0.8217773, -0.1352539, -0.7666016, 1.097561, 86.3414688, -19.6341476, 0.0181277
0.8100586, -0.1484375, -0.7788086, 1.1585366, 85.4878082, -19.3292694, 0.0104067
0.8046875, -0.1679688, -0.8261719, 0.1829268, 84.2073212, -19.0243912, 0.0006714
0.8071289, -0.1679688, -0.8569336, -0.3048781, 83.5975647, -18.780489, -0.0077211
0.8164062, -0.1552734, -0.9360352, -1.8902439, 85.4878082, -18.2926826, -0.0164492
0.8276367, -0.1435547, -0.9750977, -2.6829269, 86.7682953, -18.1097565, -0.0248417
0.8613281, -0.1176758, -1.027832, -4.6341462, 90.4878082, -18.5365849, -0.0298772
0.878418, -0.1176758, -1.0195312, -6.1585369, 92.3780518, -19.1463413, -0.0285344
0.9106445, -0.1376953, -0.9487305, -8.6585369, 96.4634171, -19.2682934, -0.0258488
0.9082031, -0.159668, -0.8759766, -10.9756098, 101.2195129, -19.5731716, -0.03122
0.8881836, -0.1669922, -0.8740234, -11.7682934, 102.9878082, -19.2682934, -0.0298772
0.8320312, -0.1577148, -0.9165039, -14.5121956, 105.8536606, -18.2926826, -0.0352483
0.8081055, -0.1430664, -0.9360352, -16.2195129, 106.5853653, -18.1097565, -0.0365911
0.7983398, -0.1210938, -0.9204102, -19.4512196, 106.9512253, -18.1097565, -0.0399481
0.8085938, -0.1269531, -0.8725586, -20.7926826, 107.2561035, -18.4756107, -0.0486763
0.8466797, -0.1464844, -0.7182617, -20.9146347, 108.4756088, -18.9024391, -0.0513619
0.8623047, -0.1586914, -0.6337891, -20.2439022, 109.4512253, -18.9634151, -0.0446479
0.8637695, -0.1674805, -0.5, -17.2560978, 111.1585388, -19.8170738, -0.0433051
0.8208008, -0.1655273, -0.46875, -15.5487804, 111.0365906, -20.1829281, -0.0607614
0.7880859, -0.1601562, -0.4941406, -12.9268293, 107.5, -20.7926826, -0.0654612
0.7373047, -0.1567383, -0.5800781, -12.1341467, 100.6097565, -19.939024, -0.0614328
0.734375, -0.1474609, -0.6210938, -12.5, 96.8292694, -18.5365849, -0.0580758
0.7944336, -0.1318359, -0.6523438, -12.560976, 91.1585388, -17.1951218, -0.0513619
0.8334961, -0.1225586, -0.6547852, -11.8292685, 89.9390259, -17.1341476, -0.049012
0.8930664, -0.1113281, -0.6445312, -9.7560978, 90.18293, -17.5, -0.0446479
0.9111328, -0.1103516, -0.6445312, -8.0487804, 91.1585388, -17.8658543, -0.0406195
0.9072266, -0.1015625, -0.6572266, -5.9146342, 92.4390259, -17.3780499, -0.0419623
0.8999023, -0.0932617, -0.6660156, -5.4268293, 92.6219559, -16.4024391, -0.0426337
0.8706055, -0.0878906, -0.6582031, -4.2682929, 91.8292694, -15.4268293, -0.0446479
0.8334961, -0.0913086, -0.6459961, -3.9024391, 90.9756088, -14.6341467, -0.0530404
0.8217773, -0.097168, -0.6381836, -2.7439024, 89.4512253, -13.2317076, -0.0661326
0.8203125, -0.1025391, -0.6318359, -1.8292683, 88.4146347, -12.6219511, -0.0755322
0.8242188, -0.109375, -0.6279297, -1.6463414, 87.5609741, -12.9268293, -0.0849317
0.8520508, -0.1245117, -0.6333008, -1.2195122, 85.9756088, -13.1097565, -0.0916457
0.8720703, -0.1376953, -0.6391602, -1.4634147, 85.1219559, -13.4146347, -0.1010452
0.9072266, -0.1513672, -0.6616211, -1.8902439, 83.5975647, -13.841464, -0.1054093
0.9282227, -0.1513672, -0.6772461, -2.3170731, 83.4756088, -13.9024391, -0.1121233
0.9682617, -0.1459961, -0.703125, -2.4390244, 84.5121994, -13.4146347, -0.1117876
0.9814453, -0.140625, -0.7070312, -2.3170731, 85.4268341, -13.3536587, -0.0983597
1.0014648, -0.1289062, -0.6953125, -1.5853659, 88.1097565, -13.2926836, -0.0802319
0.9970703, -0.1152344, -0.6806641, -0.9146342, 89.3902435, -13.1707315, -0.0580758
0.987793, -0.1123047, -0.6811523, -0.9756098, 91.4634171, -13.5365858, -0.0379339
0.9624023, -0.105957, -0.6762695, -1.7073171, 91.8902435, -13.1097565, -0.0218204
0.9516602, -0.1152344, -0.6679688, -2.195122, 91.646347, -13.0487804, -0.0140993
0.9472656, -0.137207, -0.6479492, -3.1707318, 90.4878082, -13.4146347, -0.017792
0.9462891, -0.1455078, -0.6425781, -3.4756098, 90.1219559, -13.5365858, -0.0258488
0.9418945, -0.1513672, -0.6660156, -4.0853658, 90.18293, -13.4756098, -0.0365911
0.9399414, -0.1435547, -0.6850586, -4.4512196, 90.4268341, -13.5975609, -0.0473335
0.9418945, -0.1171875, -0.706543, -6.280488, 92.0731735, -13.4146347, -0.0436408
0.9536133, -0.1035156, -0.6948242, -6.7682929, 93.1707306, -13.7195129, -0.0446479
0.9750977, -0.0952148, -0.6503906, -7.4390244, 93.9024429, -15.4268293, -0.0500191
0.9716797, -0.1210938, -0.5947266, -7.0121951, 93.9024429, -16.1585369, -0.0553902
0.9672852, -0.137207, -0.5664062, -6.6463418, 93.2926865, -16.0365849, -0.0553902
0.9428711, -0.1503906, -0.4946289, -5.4268293, 93.4146347, -14.3902445, -0.0543832
0.9316406, -0.1455078, -0.4619141, -4.1463413, 93.7804871, -13.841464, -0.0503548
0.9116211, -0.1235352, -0.4506836, -1.2804878, 94.0853653, -14.2682934, -0.0513619
0.8979492, -0.1044922, -0.4824219, -0.9146342, 92.9878082, -14.8780489, -0.0513619
0.8925781, -0.0708008, -0.5795898, -2.5609756, 88.1707306, -15.6707325, -0.0594186
0.9086914, -0.0639648, -0.6181641, -5, 85.2439041, -15.4878054, -0.0674754
0.9716797, -0.0610352, -0.6274414, -9.1463413, 80.6097565, -15.6707325, -0.0654612
1.0112305, -0.0678711, -0.609375, -10.5487804, 80.0609741, -15.3658543, -0.0513619
1.0673828, -0.0922852, -0.5488281, -9.5121956, 80.3048782, -15.8536587, -0.0359197
1.0537109, -0.1098633, -0.5107422, -8.1097565, 81.4634171, -15.4878054, -0.024506
1.0341797, -0.1147461, -0.5014648, -5, 83.5365906, -14.2073174, -0.0315557
0.9794922, -0.1054688, -0.4858398, -3.9634147, 83.6585388, -12.0731707, -0.03122
0.9536133, -0.0932617, -0.4775391, -3.4756098, 83.2317123, -11.1585369, -0.0275273
0.9296875, -0.0668945, -0.4609375, -4.0243902, 80.5487823, -10.8536587, -0.0271916
0.9243164, -0.0585938, -0.456543, -4.390244, 78.5365906, -10.9146347, -0.0325628
0.9360352, -0.0512695, -0.4741211, -6.0365853, 73.5365906, -11.8292685, -0.0379339
0.9506836, -0.0576172, -0.4926758, -6.890244, 70.6707306, -11.8902445, -0.027863
0.9790039, -0.0839844, -0.5273438, -8.719512, 67.1341476, -11.1585369, -0.0124208
0.9951172, -0.0913086, -0.5332031, -9.0243902, 66.5243912, -10.4268293, 0.0023499
1.0214844, -0.1010742, -0.5234375, -8.4756098, 66.8902435, -9.5121956, 0.0104067
1.0322266, -0.090332, -0.5117188, -7.6829271, 67.7439041, -9.3902445, 0.0184634
1.0288086, -0.0849609, -0.5117188, -6.4024391, 69.3902435, -9.4512196, 0.0087282
1.019043, -0.074707, -0.5244141, -6.5853658, 68.8414688, -9.8780489, 0.0016785
1.0170898, -0.0776367, -0.5273438, -7.5, 67.8048782, -9.7560978, -0.0043641
1.0131836, -0.0712891, -0.5258789, -10.060976, 65.3658524, -9.8170738, -0.0164492
1.0185547, -0.0742188, -0.5185547, -10.6097565, 64.2682953, -9.2682924, -0.0238346
1.0322266, -0.081543, -0.4970703, -10.4878054, 62.8658562, -8.841464, -0.0271916
1.046875, -0.0849609, -0.4848633, -9.7560978, 62.3780518, -8.719512, -0.024506
1.0473633, -0.0957031, -0.4736328, -8.5365858, 62.0121956, -8.9024391, -0.03122
1.0458984, -0.1005859, -0.4702148, -8.1097565, 62.0731735, -9.0853662, -0.0392767
1.0356445, -0.1147461, -0.4628906, -7.9268293, 61.1585388, -8.9024391, -0.0412909
1.0239258, -0.1152344, -0.4711914, -8.1707315, 60.2439041, -8.780488, -0.0503548
1.0224609, -0.1137695, -0.4833984, -8.4146347, 58.7195129, -8.9634151, -0.0584115
1.0146484, -0.1074219, -0.5087891, -8.841464, 57.1341476, -8.9024391, -0.0661326
1.0175781, -0.0996094, -0.5175781, -8.9634151, 56.5243912, -8.5975609, -0.0741894
1.0244141, -0.0917969, -0.5161133, -8.5975609, 56.4024391, -9.2073174, -0.0782177
1.0268555, -0.0859375, -0.5087891, -8.6585369, 56.341465, -9.5121956, -0.0775463
1.0224609, -0.0820312, -0.4970703, -7.9878049, 56.8292694, -9.5121956, -0.0788891
1.0185547, -0.0844727, -0.4863281, -8.1097565, 56.7682953, -9.2682924, -0.073518
0.996582, -0.0917969, -0.4589844, -7.9268293, 57.0731735, -8.841464, -0.0681468
0.9858398, -0.0932617, -0.4462891, -8.2926826, 57.0121956, -8.5365858, -0.0688182
0.9560547, -0.0874023, -0.4477539, -9.0243902, 55.7926826, -7.9268293, -0.0688182
0.934082, -0.0712891, -0.4731445, -10.6707315, 54.7560997, -7.3170733, -0.0661326
0.9238281, -0.0625, -0.4873047, -11.4024391, 53.7804909, -6.9512196, -0.0637827
0.9306641, -0.0463867, -0.4873047, -12.5, 52.7439041, -6.4634147, -0.063447
