Application:, Trigno Discover (1.6.5)
Date/Time:, 05/02/2025 09:54:28
Collection Length (seconds):, 28.809
wrist (81457), , , , , , bicep (81139)
sensor mode: 609, , , , , , sensor mode: 40
ACC X (G), ACC Y (G), ACC Z (G), GYRO X (deg/s), GYRO Y (deg/s), GYRO Z (deg/s), EMG 1 (mV)
370.3704 Hz, 370.3704 Hz, 370.3704 Hz, 370.3704 Hz, 370.3704 Hz, 370.3704 Hz, 2148.1481 Hz
0.9682617, -0.2856445, -0.2817383, -11.8902445, -6.9512196, 4.4512196, -0.13579
0.9702148, -0.2817383, -0.2709961, -11.0365858, -6.7682929, 4.2073174, -0.1183337
0.972168, -0.2680664, -0.2573242, -9.9390249, -5.9146342, 3.6585367, -0.0911421
0.9750977, -0.2597656, -0.253418, -9.6341467, -5.9146342, 2.9878049, -0.0592508
0.9692383, -0.2485352, -0.2460938, -9.4512196, -6.5243902, 2.2560976, -0.0209812
0.9663086, -0.2456055, -0.2602539, -9.8780489, -6.5853658, 2.0731707, -0.002182
0.9619141, -0.2504883, -0.2661133, -10.9146347, -7.3170733, 1.8902439, 0.0115816
0.9506836, -0.2504883, -0.2797852, -11.5243902, -7.4390244, 2.0731707, 0.0260166
0.9506836, -0.2480469, -0.2827148, -11.8902445, -7.8658538, 2.804878, 0.0370947
0.9575195, -0.2421875, -0.2885742, -11.8902445, -7.9268293, 2.804878, 0.0370947
0.9633789, -0.2363281, -0.2895508, -11.5853662, -7.9268293, 2.804878, 0.0345769
0.9667969, -0.2324219, -0.2827148, -11.4024391, -7.6829271, 2.804878, 0.0374304
0.9707031, -0.2319336, -0.2807617, -11.5243902, -7.1341467, 2.6219513, 0.0323949
0.9692383, -0.2231445, -0.2646484, -11.7073174, -6.4024391, 2.6219513, 0.0193027
0.9672852, -0.2163086, -0.2558594, -11.9512196, -6.4634147, 2.3170731, 0.0092317
0.9570312, -0.2128906, -0.2543945, -12.6219511, -7.1951222, 1.8902439, 0.0023499
0.9414062, -0.2163086, -0.2768555, -13.3536587, -7.3780489, 2.2560976, -0.0417945
0.9316406, -0.2270508, -0.2895508, -14.5731707, -8.3536587, 3.0487804, -0.0914778
0.934082, -0.2402344, -0.3051758, -15, -8.4756098, 3.3536587, -0.1077592
0.9355469, -0.2446289, -0.2983398, -15.3658543, -8.2317076, 3.9634147, -0.1243763
0.9389648, -0.2441406, -0.28125, -15.1829271, -7.8048782, 4.0853658, -0.1384756
0.9453125, -0.2373047, -0.2680664, -13.841464, -6.5243902, 3.7804878, -0.1411612
0.9541016, -0.2260742, -0.246582, -13.1097565, -6.0975609, 3.5365853, -0.1294118
0.9545898, -0.2275391, -0.2456055, -12.560976, -5.7926831, 2.7439024, -0.1072557
0.9394531, -0.2358398, -0.2646484, -13.9024391, -6.5243902, 2.4390244, -0.0807355
0.9335938, -0.2387695, -0.2749023, -14.3902445, -6.890244, 2.5609756, -0.0609293
0.9355469, -0.2583008, -0.2871094, -15.4268293, -8.0487804, 3.2926829, -0.0485084
0.9477539, -0.2675781, -0.2841797, -15, -8.5975609, 3.2926829, -0.04448
0.9575195, -0.2724609, -0.2773438, -13.4756098, -8.4146347, 3.0487804, -0.0639506
0.9663086, -0.2709961, -0.2705078, -12.8658543, -8.2926826, 2.9878049, -0.0814069
0.9633789, -0.2695312, -0.2768555, -12.2560978, -7.2560978, 2.5, -0.085771
0.9541016, -0.2524414, -0.2836914, -11.8902445, -6.9512196, 2.5, -0.0797284
0.9516602, -0.237793, -0.284668, -11.6463413, -6.2195125, 3.1097562, -0.0609293
0.9526367, -0.2070312, -0.2749023, -11.5243902, -6.4634147, 3.3536587, -0.0310521
0.9511719, -0.1962891, -0.2739258, -11.4634151, -6.7682929, 3.9024391, -0.0028534
0.9521484, -0.1928711, -0.2670898, -12.8658543, -7.2560978, 3.9634147, -0.0065461
0.9506836, -0.2001953, -0.2670898, -13.7195129, -7.4390244, 3.8414636, -0.0377661
0.9384766, -0.2124023, -0.2739258, -16.3414631, -7.5609756, 4.0243902, -0.0955062
0.9321289, -0.2236328, -0.2612305, -17.2560978, -7.8658538, 4.2073174, -0.1331044
0.9267578, -0.2329102, -0.2519531, -18.2317085, -8.719512, 4.6951222, -0.142504
0.9296875, -0.237793, -0.2407227, -17.9878044, -9.1463413, 4.6951222, -0.1294118
0.9282227, -0.2416992, -0.2392578, -16.6463413, -10.3658543, 4.9390244, -0.0914778
0.9321289, -0.25, -0.2480469, -15.9756098, -10.6707315, 5.1219511, -0.0431373
0.9350586, -0.2509766, -0.2543945, -15.2439032, -11.219512, 4.8170733, 0.0070497
0.9375, -0.253418, -0.2612305, -15.3048782, -11.341464, 5.1829271, 0.0616007
0.9389648, -0.2573242, -0.2612305, -15, -11.4634151, 5.5487804, 0.0971847
0.9462891, -0.2573242, -0.2548828, -14.3902445, -11.7073174, 5.4268293, 0.1143053
0.9516602, -0.2504883, -0.2563477, -14.4512196, -11.6463413, 5.5487804, 0.124712
0.9614258, -0.2426758, -0.2597656, -13.4146347, -11.8902445, 5.0609756, 0.1188373
0.9599609, -0.2392578, -0.265625, -13.9634151, -12.0731707, 5.0609756, 0.1096056
0.9589844, -0.237793, -0.2714844, -14.5731707, -12.3780489, 4.6951222, 0.1010452
0.9511719, -0.2441406, -0.2817383, -14.8170738, -12.2560978, 5.2439027, 0.0931563
0.9428711, -0.2436523, -0.2822266, -15.3658543, -12.1341467, 5.609756, 0.0829175
0.9472656, -0.2519531, -0.284668, -15.4878054, -11.8902445, 5.5487804, 0.0654612
0.9477539, -0.2543945, -0.2890625, -14.9390249, -10.7926836, 5.4878049, 0.0433051
0.9477539, -0.2470703, -0.2875977, -14.5121956, -10.6707315, 5.2439027, 0.030045
0.9516602, -0.2451172, -0.2890625, -13.4756098, -10.1219511, 4.4512196, 0.0166171
0.9516602, -0.2456055, -0.2875977, -13.6585369, -9.8780489, 4.2682929, 0.0008392
0.9521484, -0.2485352, -0.2866211, -14.0243902, -9.5731707, 4.2682929, 0.0058747
0.9550781, -0.2563477, -0.2749023, -14.2073174, -9.4512196, 4.2073174, -0.0005035
0.9506836, -0.2651367, -0.2719727, -14.2073174, -9.2073174, 4.1463413, -0.0068818
0.9467773, -0.2607422, -0.2680664, -13.9024391, -8.9634151, 4.390244, -0.0142672
0.9404297, -0.2519531, -0.2709961, -13.4756098, -8.6585369, 4.4512196, -0.0293736
0.9453125, -0.2397461, -0.2714844, -12.7439032, -8.4756098, 4.6951222, -0.0505226
0.9560547, -0.2192383, -0.2666016, -12.3780489, -8.9024391, 4.4512196, -0.0585794
0.9594727, -0.2138672, -0.262207, -12.5, -9.5121956, 4.4512196, -0.0558938
0.9667969, -0.2275391, -0.2587891, -13.3536587, -10, 3.9024391, -0.0518654
0.9658203, -0.237793, -0.2573242, -15.1829271, -9.9390249, 3.6585367, -0.0599222
0.9482422, -0.2553711, -0.2602539, -16.0975609, -9.8780489, 3.9024391, -0.0659648
0.9404297, -0.262207, -0.2602539, -15.6707325, -9.8780489, 4.3292685, -0.0622721
0.9272461, -0.2739258, -0.2636719, -14.7560978, -10.3048782, 3.9024391, -0.0565652
0.9282227, -0.2753906, -0.2773438, -13.841464, -10.6097565, 4.1463413, -0.0569009
0.925293, -0.2734375, -0.2773438, -11.9512196, -10.7317076, 3.9024391, -0.0290379
0.9399414, -0.2705078, -0.2783203, -11.0975609, -10.5487804, 3.6585367, 0.0075532
0.9477539, -0.2641602, -0.2773438, -10.3048782, -10.1829271, 3.2317073, 0.0394446
0.956543, -0.2524414, -0.2807617, -10.1829271, -9.8780489, 3.0487804, 0.0696574
0.9609375, -0.2441406, -0.2797852, -10.4268293, -9.8780489, 2.3170731, 0.0830854
0.9638672, -0.2495117, -0.2792969, -10.7926836, -9.9390249, 2.3780489, 0.0834211
0.9604492, -0.2431641, -0.2758789, -11.1585369, -10.1219511, 2.5609756, 0.0810712
0.9614258, -0.2470703, -0.2729492, -11.5243902, -10.7926836, 2.9268293, 0.0797284
0.9628906, -0.2460938, -0.265625, -11.5853662, -11.280488, 2.804878, 0.0693217
0.9614258, -0.2558594, -0.2495117, -11.7682934, -11.9512196, 2.6829269, 0.0616007
0.9550781, -0.2666016, -0.2431641, -11.8902445, -12.4390249, 2.9268293, 0.0532082
0.9448242, -0.2675781, -0.2446289, -12.0121956, -13.1097565, 2.4390244, 0.0350805
0.9389648, -0.2749023, -0.2495117, -11.5853662, -13.5365858, 2.3780489, 0.0124208
0.9389648, -0.2768555, -0.2539062, -11.0975609, -14.5121956, 2.5609756, -0.0015106
0.9399414, -0.2749023, -0.2617188, -10.8536587, -15.2439032, 2.3780489, -0.0127565
0.9487305, -0.2709961, -0.269043, -10.8536587, -15.8536587, 2.5609756, -0.0149386
0.9614258, -0.2646484, -0.284668, -10.6707315, -15.9756098, 2.1341465, -0.008896
0.9648438, -0.2583008, -0.2895508, -11.0365858, -15.7926836, 1.8902439, -0.0149386
0.9692383, -0.2509766, -0.2851562, -12.3780489, -15.2439032, 1.6463414, -0.0179599
0.9702148, -0.2475586, -0.2749023, -12.7439032, -15.1829271, 1.5853659, -0.01561
0.9702148, -0.2358398, -0.2485352, -13.2317076, -15.4268293, 1.5243902, -0.0149386
0.9511719, -0.2412109, -0.2412109, -13.4146347, -15.6097565, 1.0365853, -0.0179599
0.9428711, -0.2431641, -0.2451172, -13.841464, -15.9756098, 1.402439, -0.0229953
0.9365234, -0.2456055, -0.2543945, -14.3292685, -16.280489, 1.6463414, -0.04448
0.9311523, -0.2460938, -0.2587891, -14.9390249, -16.8902435, 2.6219513, -0.0528725
0.9306641, -0.2382812, -0.265625, -15.3658543, -17.1341476, 2.9268293, -0.0532082
0.9331055, -0.2333984, -0.2680664, -15.7317076, -17.439024, 3.1097562, -0.057908
0.9501953, -0.2270508, -0.269043, -15.5487804, -17.7439022, 3.1097562, -0.0555581
0.9541016, -0.2290039, -0.2700195, -15.6707325, -17.9268303, 3.1707318, -0.0538796
0.9658203, -0.2314453, -0.2734375, -16.2195129, -18.0487804, 2.9878049, -0.0475013
0.9711914, -0.2348633, -0.2768555, -16.4024391, -17.5, 2.9878049, -0.0290379
0.9667969, -0.2397461, -0.2866211, -17.5, -17.1341476, 3.6585367, -0.012253
0.9589844, -0.2397461, -0.2963867, -17.5, -17.0121956, 4.0853658, 0.0003357
0.9594727, -0.2416992, -0.3032227, -17.3780499, -16.7073174, 4.0853658, 0.0058747
0.9672852, -0.2441406, -0.3105469, -16.9512196, -16.6463413, 4.390244, 0.0011749
0.9692383, -0.246582, -0.3085938, -16.280489, -16.280489, 4.2073174, -0.0001678
0.9711914, -0.2529297, -0.2983398, -16.2195129, -15.9146347, 4.5731707, 0.0010071
0.9711914, -0.2519531, -0.2919922, -15.7317076, -14.4512196, 4.0243902, -0.0035248
0.9716797, -0.2617188, -0.2749023, -15.3658543, -13.9024391, 3.9634147, -0.0041962
0.9677734, -0.2578125, -0.2700195, -14.7560978, -12.7439032, 3.2317073, -0.0152743
0.9619141, -0.2548828, -0.2729492, -13.7195129, -12.5, 2.8658538, -0.0317235
0.9614258, -0.2558594, -0.2871094, -13.3536587, -12.8658543, 2.9268293, -0.0552224
0.9575195, -0.2597656, -0.2949219, -13.2317076, -13.0487804, 2.4390244, -0.0710002
0.9506836, -0.269043, -0.3110352, -13.4146347, -13.0487804, 2.5, -0.0822461
0.9521484, -0.2709961, -0.3164062, -13.780488, -12.560976, 2.0121951, -0.0847639
0.9575195, -0.2822266, -0.3051758, -13.6585369, -12.0121956, 1.9512196, -0.0760357
0.9594727, -0.284668, -0.2973633, -13.0487804, -10.9756098, 1.5243902, -0.0807355
0.9560547, -0.2836914, -0.2822266, -12.3170738, -10.5487804, 0.9756098, -0.0780499
0.9560547, -0.2841797, -0.2719727, -10.9146347, -10.1219511, 0.6097561, -0.0565652
0.9477539, -0.2763672, -0.265625, -10.4878054, -9.8170738, 0.4878049, -0.035584
0.9404297, -0.2724609, -0.2709961, -10.2439022, -9.1463413, 0.3048781, -0.0112459
0.925293, -0.2548828, -0.2871094, -11.9512196, -9.6341467, 0.9146342, -0.0130922
0.9189453, -0.2426758, -0.3081055, -12.8048782, -9.8780489, 1.2195122, -0.0317235
0.9208984, -0.2431641, -0.3134766, -14.6341467, -10.1829271, 1.7682927, -0.0374304
0.9326172, -0.2402344, -0.3110352, -15.3658543, -10.1219511, 2.0731707, -0.0340734
0.9414062, -0.2382812, -0.3051758, -15.2439032, -9.8170738, 2.0731707, -0.0458228
0.949707, -0.2421875, -0.3022461, -15.2439032, -9.0853662, 1.7073171, -0.0720073
0.949707, -0.2436523, -0.3017578, -16.1585369, -8.2317076, 1.2804878, -0.0780499
0.9467773, -0.2441406, -0.2895508, -16.4024391, -7.9878049, 1.402439, -0.0592508
0.9384766, -0.2436523, -0.2792969, -16.7682934, -8.2317076, 1.7682927, -0.0411231
0.9282227, -0.2451172, -0.2563477, -16.8902435, -8.4146347, 1.8292683, -0.0159457
0.918457, -0.2480469, -0.2441406, -16.5853653, -8.2317076, 2.195122, 0.0095674
0.8994141, -0.2456055, -0.2290039, -16.4024391, -8.5365858, 2.2560976, 0.0428016
0.8833008, -0.2480469, -0.2241211, -16.2195129, -9.0243902, 1.8902439, 0.0710002
0.8798828, -0.2553711, -0.2270508, -15.9146347, -10.8536587, 1.4634147, 0.0871138
0.8754883, -0.2617188, -0.2363281, -15.6097565, -11.7073174, 1.6463414, 0.0931563
0.8808594, -0.2670898, -0.2426758, -15.4268293, -13.780488, 1.5853659, 0.0814069
0.8867188, -0.2768555, -0.2553711, -15.4268293, -14.5121956, 1.5243902, 0.0501869
0.8920898, -0.2802734, -0.2617188, -14.0853662, -14.6951227, 1.8292683, 0.0265202
0.9042969, -0.2758789, -0.269043, -13.4146347, -14.8780489, 2.0121951, 0.0078889
0.9052734, -0.2709961, -0.265625, -11.7073174, -14.6341467, 1.2804878, 0.0018463
0.9121094, -0.2597656, -0.2641602, -10.9756098, -14.5731707, 1.1585366, -0.0008392
0.9101562, -0.2543945, -0.2675781, -10.5487804, -14.2073174, 0.1829268, -0.0048676
0.9018555, -0.2519531, -0.2768555, -11.7682934, -13.6585369, 0.0609756, -0.012253
0.8911133, -0.2446289, -0.2739258, -12.7439032, -13.4146347, 0.3048781, -0.0169528
0.8916016, -0.2480469, -0.2763672, -13.841464, -13.1707315, 1.3414634, -0.0229953
0.8896484, -0.2480469, -0.2836914, -14.0853662, -13.1097565, 1.5243902, -0.0303807
0.8896484, -0.246582, -0.2841797, -13.9634151, -13.6585369, 2.195122, -0.0488441
0.8935547, -0.2436523, -0.2783203, -13.9024391, -14.0853662, 2.195122, -0.0733501
0.8950195, -0.2470703, -0.2705078, -13.9024391, -14.6341467, 2.2560976, -0.0626078
0.9052734, -0.2504883, -0.2568359, -13.841464, -14.9390249, 2.3170731, -0.0599222
0.9047852, -0.2548828, -0.253418, -14.2073174, -15.4878054, 2.5, -0.0525368
0.9042969, -0.2583008, -0.2563477, -14.4512196, -15.6707325, 2.6219513, -0.0379339
0.9013672, -0.2636719, -0.2587891, -14.1463413, -16.0975609, 2.6219513, -0.0127565
0.9003906, -0.2592773, -0.2578125, -13.4756098, -17.0731716, 2.5609756, 0.0226596
0.9013672, -0.2558594, -0.2592773, -12.9878054, -17.5, 2.5609756, 0.0548867
0.9042969, -0.2563477, -0.2602539, -12.0121956, -18.1097565, 2.4390244, 0.0803998
0.9111328, -0.2602539, -0.2729492, -12.3170738, -18.0487804, 2.2560976, 0.0951705
0.9077148, -0.2597656, -0.2758789, -12.560976, -18.0487804, 2.0121951, 0.1079271
0.9038086, -0.2607422, -0.2915039, -12.9878054, -17.6219521, 1.7682927, 0.1106126
0.9057617, -0.2578125, -0.2929688, -13.5975609, -17.3170738, 1.5853659, 0.1089342
0.909668, -0.2592773, -0.2890625, -13.3536587, -17.3780499, 1.5243902, 0.0884565
0.909668, -0.2573242, -0.2861328, -13.5365858, -17.6219521, 1.0365853, 0.0466621
0.9169922, -0.265625, -0.2700195, -13.841464, -17.8658543, 0.4878049, 0.008896
0.9145508, -0.2758789, -0.2626953, -13.7195129, -17.5, -0.0609756, 0.0010071
0.909668, -0.2836914, -0.2475586, -14.2073174, -17.2560978, -0.4878049, 0.0157778
0.8959961, -0.2871094, -0.2504883, -14.0853662, -17.1341476, -0.7317073, 0.0468299
0.8857422, -0.28125, -0.253418, -13.2926836, -17.0731716, -0.6097561, 0.0696574
0.8696289, -0.269043, -0.2724609, -12.8048782, -17.560976, -0.4268293, 0.0840925
0.8706055, -0.2573242, -0.2836914, -12.3780489, -18.3536587, 0.2439024, 0.0837568
0.8769531, -0.2373047, -0.3022461, -12.6829271, -18.4146347, 0.7926829, 0.0710002
0.8793945, -0.2280273, -0.309082, -13.9024391, -18.3536587, 1.2195122, 0.043473
0.8886719, -0.2055664, -0.3212891, -15.1219511, -17.9268303, 1.2195122, 0.0203098
0.8925781, -0.2041016, -0.3320312, -16.7682934, -16.8902435, 1.6463414, 0.0025177
0.9038086, -0.2055664, -0.3349609, -18.5975609, -16.4634151, 1.6463414, -0.0182956
0.9101562, -0.2128906, -0.3325195, -19.7560978, -16.4024391, 1.7682927, -0.047837
0.9165039, -0.2299805, -0.3193359, -20.7317085, -15.9756098, 1.9512196, -0.0673075
0.9189453, -0.2485352, -0.3037109, -21.2195129, -15.9146347, 1.7073171, -0.0867781
0.9174805, -0.2548828, -0.3022461, -20.6707325, -15.6097565, 0.9756098, -0.1015488
0.9101562, -0.265625, -0.2924805, -20.3658543, -15, 1.2195122, -0.0950027
0.9042969, -0.2666016, -0.2895508, -19.4512196, -15.1829271, 1.3414634, -0.0938277
0.8911133, -0.265625, -0.277832, -19.0243912, -15.3658543, 1.6463414, -0.121355
0.8916016, -0.2558594, -0.2729492, -18.5365849, -15.3048782, 2.0731707, -0.1441825
0.8837891, -0.2436523, -0.2709961, -18.5975609, -15.6097565, 2.4390244, -0.1527428
0.8847656, -0.2397461, -0.2709961, -19.2073174, -16.5853653, 3.1097562, -0.1707027
0.8886719, -0.2407227, -0.2739258, -19.939024, -17.3170738, 3.3536587, -0.1930266
0.8964844, -0.2509766, -0.2773438, -20, -18.1097565, 3.2926829, -0.2103151
0.9125977, -0.2744141, -0.2744141, -19.2073174, -18.9634151, 3.1707318, -0.2230716
0.9248047, -0.2866211, -0.2739258, -18.780489, -18.8414631, 3.1097562, -0.2351568
0.925293, -0.2866211, -0.2719727, -16.5853653, -18.4146347, 2.7439024, -0.2207218
0.9208984, -0.2856445, -0.2792969, -15.6097565, -17.7439022, 2.9268293, -0.1918517
0.9199219, -0.2832031, -0.2856445, -14.2073174, -17.2560978, 2.6829269, -0.1505608
0.9072266, -0.2861328, -0.296875, -13.6585369, -17.1341476, 2.6829269, -0.103563
0.9077148, -0.2875977, -0.3076172, -12.9268293, -17.3780499, 2.5609756, -0.0594186
0.9033203, -0.2841797, -0.3193359, -12.9878054, -17.1341476, 2.6219513, -0.0263523
0.9091797, -0.28125, -0.3232422, -12.4390249, -16.6463413, 2.5609756, 0.0038605
0.9111328, -0.2744141, -0.3271484, -11.9512196, -15.7317076, 2.1341465, 0.0290379
0.9155273, -0.2646484, -0.3310547, -11.5853662, -15.3658543, 2.0731707, 0.0414588
0.9238281, -0.2446289, -0.324707, -10.6707315, -14.5731707, 1.9512196, 0.0424659
0.9306641, -0.237793, -0.324707, -10.8536587, -14.2073174, 1.6463414, 0.0495155
0.9277344, -0.2382812, -0.3208008, -11.5243902, -13.780488, 1.7682927, 0.057908
0.9238281, -0.2436523, -0.3046875, -12.4390249, -13.5975609, 1.6463414, 0.0669718
0.925293, -0.2504883, -0.3017578, -13.4756098, -13.5365858, 1.7073171, 0.0619364
0.9194336, -0.2651367, -0.2958984, -14.2073174, -13.5975609, 1.5853659, 0.0518654
0.9155273, -0.2714844, -0.2973633, -15.3048782, -14.1463413, 1.3414634, 0.0387732
0.9038086, -0.2744141, -0.3149414, -15.7317076, -14.3292685, 1.4634147, 0.0354162
0.9038086, -0.2773438, -0.3300781, -16.1585369, -14.2073174, 2.3780489, 0.0166171
0.9086914, -0.2724609, -0.3427734, -15.4878054, -13.9634151, 3.6585367, 0.0035248
0.9160156, -0.2651367, -0.3486328, -14.7560978, -13.5975609, 4.2682929, -0.0099031
0.934082, -0.253418, -0.3417969, -13.5365858, -12.560976, 4.6341462, -0.0263523
0.9536133, -0.2358398, -0.3325195, -13.1707315, -12.0121956, 4.6341462, -0.0424659
0.9555664, -0.2294922, -0.3300781, -13.6585369, -10.3048782, 4.5731707, -0.0555581
0.9487305, -0.2231445, -0.3266602, -14.2682934, -10.1829271, 4.6341462, -0.0622721
0.9458008, -0.2197266, -0.3251953, -15.9146347, -9.6341467, 4.6341462, -0.0632792
0.925293, -0.2197266, -0.3393555, -17.0121956, -10, 5.0609756, -0.0678111
0.9272461, -0.2202148, -0.3427734, -18.3536587, -10.6707315, 5.9146342, -0.0636149
0.9321289, -0.2338867, -0.3369141, -18.780489, -10.7926836, 6.3414636, -0.0498512
0.9345703, -0.2426758, -0.3295898, -19.0853672, -10.8536587, 6.3414636, -0.0569009
0.9453125, -0.2724609, -0.3232422, -19.0243912, -10.1829271, 5.9756098, -0.063447
0.9472656, -0.284668, -0.315918, -18.780489, -9.6341467, 5.9146342, -0.0673075
0.9404297, -0.2949219, -0.2988281, -17.9878044, -9.1463413, 5.1219511, -0.0782177
0.9311523, -0.2988281, -0.2880859, -17.439024, -9.3902445, 4.8780489, -0.0706645
0.9262695, -0.2929688, -0.2822266, -16.3414631, -9.6341467, 4.7560978, -0.0574044
0.9091797, -0.2890625, -0.293457, -15.7926836, -9.8780489, 4.9390244, -0.0412909
0.9047852, -0.2866211, -0.3051758, -15.1829271, -10.1829271, 5.3658538, -0.0327306
0.8994141, -0.2734375, -0.3325195, -15.1219511, -10.3048782, 5.7926831, -0.0364233
0.9003906, -0.2700195, -0.3427734, -15.2439032, -10.6707315, 6.0365853, -0.0379339
0.918457, -0.2568359, -0.3515625, -14.9390249, -11.0975609, 5.8536587, -0.0342412
0.9350586, -0.2583008, -0.3481445, -15.7926836, -11.4024391, 5.4268293, -0.0276951
0.949707, -0.2666016, -0.3222656, -16.280489, -11.219512, 5.3048782, -0.0323949
0.9589844, -0.2739258, -0.3110352, -16.7073174, -11.219512, 5.0609756, -0.0357519
0.9667969, -0.2841797, -0.296875, -17.2560978, -11.1585369, 4.6341462, -0.0350805
0.9477539, -0.284668, -0.315918, -17.3780499, -11.280488, 4.9390244, -0.0384375
0.9418945, -0.2768555, -0.3291016, -17.439024, -12.1341467, 5.609756, -0.0276951
0.9331055, -0.2646484, -0.3505859, -17.1951218, -12.7439032, 6.6463418, -0.0256809
0.9389648, -0.2583008, -0.3569336, -16.7682934, -13.9024391, 7.8658538, -0.0276951
0.9575195, -0.2480469, -0.3583984, -16.8292694, -14.1463413, 8.1097565, -0.0276951
0.9624023, -0.2363281, -0.3618164, -17.8658543, -13.4756098, 8.2926826, -0.0273594
0.965332, -0.2265625, -0.3696289, -18.5365849, -12.8658543, 8.0487804, -0.0256809
0.965332, -0.2265625, -0.3618164, -19.8780499, -12.560976, 7.6829271, -0.024506
0.9536133, -0.2172852, -0.3330078, -20.4268303, -12.8048782, 7.6219516, -0.0250095
0.9511719, -0.2202148, -0.3198242, -20.6707325, -13.3536587, 8.1097565, -0.0446479
0.9321289, -0.230957, -0.2983398, -21.5853672, -13.7195129, 8.5975609, -0.0699931
0.8974609, -0.2436523, -0.3066406, -22.0121956, -13.9024391, 8.9024391, -0.0911421
0.8862305, -0.2539062, -0.3046875, -22.8658543, -14.6951227, 9.4512196, -0.0918135
0.8642578, -0.2695312, -0.3022461, -22.6219521, -15.4878054, 9.8780489, -0.0921492
0.8657227, -0.277832, -0.2944336, -22.439024, -17.3780499, 10.6097565, -0.0874495
0.8852539, -0.2856445, -0.2773438, -21.7073174, -18.5365849, 10.5487804, -0.0706645
0.8950195, -0.2895508, -0.2758789, -20.3048782, -20, 10.1829271, -0.0491798
0.9135742, -0.2915039, -0.2880859, -19.7560978, -20.9146347, 9.6951218, -0.0280308
0.9233398, -0.2929688, -0.3022461, -19.1463413, -22.3170738, 9.5121956, -0.0162814
0.9404297, -0.2905273, -0.3388672, -19.3902435, -23.8414631, 9.9390249, -0.0172885
0.9438477, -0.2890625, -0.3554688, -19.3902435, -24.6341476, 10.7317076, 0.0038605
0.9487305, -0.2685547, -0.3735352, -19.4512196, -25.3048782, 12.0731707, -0.0001678
0.9560547, -0.2485352, -0.3828125, -19.3902435, -24.9390259, 12.6829271, 0.0092317
0.9604492, -0.234375, -0.3779297, -20, -25, 14.0243902, 0.0119173
0.965332, -0.2167969, -0.3598633, -20.6097565, -25.1219521, 14.3292685, 0.0065461
0.9638672, -0.2124023, -0.3544922, -22.9878063, -25.7317085, 14.5731707, -0.0256809
0.9638672, -0.2041016, -0.3452148, -24.2073174, -26.280489, 14.4512196, -0.0569009
0.9633789, -0.2124023, -0.347168, -27.1341476, -28.7195129, 14.5731707, -0.0757
0.9667969, -0.2392578, -0.362793, -28.4146347, -29.8780499, 14.6341467, -0.0918135
0.9643555, -0.2504883, -0.3740234, -30.6707325, -31.8902454, 15.3048782, -0.1062486
0.9584961, -0.2744141, -0.4003906, -32.6219521, -33.1097565, 15.7317076, -0.1042344
0.9575195, -0.2880859, -0.4116211, -32.9878044, -33.6585388, 16.2195129, -0.0803998
0.9604492, -0.3076172, -0.4272461, -32.5609779, -32.9268303, 16.7682934, -0.0532082
0.9555664, -0.3125, -0.4208984, -32.1951218, -32.8658562, 17.3780499, -0.0129244
0.9545898, -0.3061523, -0.4072266, -30.3658543, -32.2560997, 17.3170738, 0.0176242
0.9467773, -0.2958984, -0.3745117, -29.7560978, -31.8292694, 17.1951218, 0.0394446
0.9438477, -0.2915039, -0.3554688, -29.1463413, -31.7073174, 16.7073174, 0.0589151
0.9282227, -0.2841797, -0.3457031, -28.7195129, -31.7682934, 16.6463413, 0.0750286
0.9189453, -0.2802734, -0.3422852, -29.2682934, -33.7195129, 16.5243912, 0.082414
0.9248047, -0.2875977, -0.3632812, -29.5121956, -35.0609779, 16.280489, 0.0773785
0.925293, -0.293457, -0.3759766, -30.1219521, -38.0487823, 16.2195129, 0.0693217
0.9443359, -0.3071289, -0.4135742, -29.8170738, -39.2073174, 16.3414631, 0.04448
0.9575195, -0.3222656, -0.4404297, -29.8780499, -39.3902435, 16.5243912, 0.0169528
0.9648438, -0.3203125, -0.4453125, -29.2073174, -39.0853653, 16.4024391, 0.0082246
0.9736328, -0.3212891, -0.4282227, -28.2317085, -38.4756088, 16.9512196, -0.0135958
0.9741211, -0.3100586, -0.418457, -27.4390259, -37.8048782, 17.1341476, -0.0354162
0.9667969, -0.28125, -0.4116211, -27.4390259, -37.7439041, 17.1951218, -0.0508583
0.9545898, -0.2680664, -0.4077148, -27.9878063, -38.5975609, 17.9268303, -0.0538796
0.9365234, -0.265625, -0.3999023, -28.841465, -39.6951218, 17.8658543, -0.0481727
0.9331055, -0.2724609, -0.3916016, -31.341465, -42.6219521, 17.9268303, -0.0441444
0.9189453, -0.2963867, -0.387207, -32.3170738, -44.0853653, 17.8658543, -0.0582437
0.9082031, -0.3066406, -0.3896484, -33.5975609, -47.0121956, 17.9878044, -0.0663005
0.8881836, -0.3325195, -0.4057617, -32.6219521, -48.4146347, 18.4146347, -0.0639506
0.8725586, -0.3369141, -0.4272461, -31.7073174, -49.0853653, 18.9024391, -0.0471656
0.8730469, -0.3300781, -0.4389648, -29.5731716, -49.9390259, 20.3048782, -0.0320592
0.8891602, -0.3105469, -0.465332, -29.0243912, -50.4878044, 21.0365868, -0.0433051
0.9047852, -0.300293, -0.4726562, -28.3536587, -51.0365868, 21.4634151, -0.051194
0.9282227, -0.2705078, -0.4770508, -28.6585369, -51.341465, 21.6463413, -0.0412909
0.9438477, -0.2607422, -0.4741211, -30.1219521, -52.4390259, 21.8902435, -0.018967
0.9550781, -0.2407227, -0.4575195, -31.4024391, -52.8048782, 21.9512196, 0.0223239
0.953125, -0.2431641, -0.4472656, -33.7804871, -54.4512215, 22.0121956, 0.068986
0.9438477, -0.2480469, -0.4248047, -34.9390259, -55.5487823, 22.2560978, 0.112459
0.9379883, -0.2587891, -0.4160156, -37.0731697, -59.0243912, 22.9878063, 0.1354543
0.9165039, -0.2744141, -0.4091797, -38.9024391, -62.0731735, 23.5975609, 0.1337758
0.8964844, -0.3017578, -0.4316406, -39.5731735, -63.4756126, 23.9024391, 0.1200122
0.8847656, -0.3071289, -0.4482422, -39.7560997, -65.7317123, 24.6341476, 0.1003738
0.8735352, -0.3193359, -0.4897461, -39.6951218, -66.7073212, 25, 0.082414
0.8735352, -0.3198242, -0.5063477, -39.3902435, -68.2317123, 25.6707325, 0.0639506
0.8925781, -0.3208008, -0.5351562, -39.2682953, -69.1463394, 26.0975609, 0.0508583
0.9077148, -0.324707, -0.5385742, -38.9024391, -68.7804871, 26.9512196, 0.0381018
0.9345703, -0.3154297, -0.5205078, -38.7195129, -68.2317123, 27.1951218, 0.0287022
0.9487305, -0.3139648, -0.5117188, -39.0243912, -68.2926865, 26.5853672, 0.0193027
0.9594727, -0.300293, -0.4975586, -39.2073174, -68.5975647, 26.2195129, -0.0001678
0.9550781, -0.2958984, -0.4926758, -39.6341476, -69.8170776, 26.1585369, -0.0216526
0.9384766, -0.3012695, -0.4824219, -40.1829262, -72.4390259, 26.1585369, -0.0354162
0.9150391, -0.3178711, -0.4765625, -40.3658562, -73.8414688, 26.4024391, -0.0458228
0.9038086, -0.3256836, -0.4775391, -41.0365868, -76.2804871, 27.1951218, -0.0471656
0.8930664, -0.3369141, -0.4833984, -40.6097565, -77.4390259, 27.6219521, -0.0397803
0.8896484, -0.3447266, -0.4902344, -39.9390259, -79.2073212, 27.3170738, -0.0424659
0.8793945, -0.3491211, -0.4980469, -39.0243912, -80.3658524, 27.1951218, -0.0485084
0.8803711, -0.3452148, -0.5043945, -37.7439041, -82.1951218, 26.5853672, -0.0532082
0.8789062, -0.3476562, -0.527832, -37.3780479, -82.6219559, 26.3414631, -0.0716716
0.8779297, -0.347168, -0.5483398, -36.5243912, -83.7195129, 26.1585369, -0.0884565
0.8735352, -0.3476562, -0.5883789, -36.8292694, -84.5731735, 25.8536587, -0.0904707
0.8735352, -0.3583984, -0.5981445, -36.6463432, -85.2439041, 25.9756107, -0.1072557
0.8994141, -0.3798828, -0.59375, -36.4634171, -86.0365906, 25.6707325, -0.1223621
0.9135742, -0.3974609, -0.5634766, -36.0975609, -86.0975647, 25.3048782, -0.1297475
0.9228516, -0.4013672, -0.5419922, -34.6951218, -85.7926865, 24.3292694, -0.1210193
0.9135742, -0.3896484, -0.512207, -33.6585388, -85.9756088, 23.7195129, -0.1287404
0.902832, -0.3793945, -0.5141602, -31.6463413, -86.9512253, 23.1097565, -0.1327687
0.8764648, -0.3476562, -0.546875, -30.7926846, -88.2926865, 23.1707325, -0.1156481
0.8735352, -0.3369141, -0.5712891, -29.8170738, -91.4024429, 23.780489, -0.0981918
0.8686523, -0.3286133, -0.6225586, -29.8170738, -92.68293, 24.0853672, -0.079057
0.8764648, -0.3300781, -0.6420898, -30.4268303, -93.9634171, 24.4512196, -0.0552224
0.9013672, -0.3378906, -0.6538086, -31.2195129, -93.7195129, 24.4512196, -0.0240024
0.9150391, -0.3378906, -0.6552734, -31.341465, -93.2926865, 24.1463413, -0.0015106
0.9291992, -0.3320312, -0.6557617, -31.341465, -91.8292694, 23.7195129, 0.0231632
0.9272461, -0.3208008, -0.6669922, -31.5243912, -91.5853653, 23.5975609, 0.0345769
0.9213867, -0.3120117, -0.6772461, -32.2560997, -91.2804871, 23.7195129, 0.0213169
0.9057617, -0.3066406, -0.6884766, -32.6829262, -91.2195129, 24.2682934, 0.012253
0.9033203, -0.3032227, -0.6894531, -33.6585388, -91.2195129, 25.1829281, -0.0062104
0.9023438, -0.3129883, -0.6650391, -34.1463432, -91.3414688, 25.7926826, -0.01561
0.9023438, -0.3198242, -0.6542969, -35.3048782, -90.6097565, 26.0365868, -0.0340734
0.8999023, -0.3413086, -0.6572266, -35.6707344, -90.6097565, 25.9146347, -0.0424659
0.894043, -0.3481445, -0.668457, -36.1585388, -90.9146347, 25.9146347, -0.0290379
0.8813477, -0.3613281, -0.6845703, -36.2804871, -91.3414688, 26.0975609, -0.0062104
0.8813477, -0.3681641, -0.6894531, -36.5243912, -91.646347, 26.280489, 0.0159457
0.8798828, -0.3706055, -0.7016602, -36.2804871, -91.4634171, 26.8902454, 0.0357519
0.8789062, -0.362793, -0.7104492, -35.8536606, -90.18293, 27.1341476, 0.0488441
0.8730469, -0.3491211, -0.7148438, -35.4878044, -88.6585388, 27.5, 0.0632792
0.8632812, -0.3374023, -0.7177734, -35.5487823, -88.0487823, 27.6829281, 0.068986
0.8647461, -0.3339844, -0.7089844, -36.2195129, -88.0487823, 27.9268303, 0.0710002
0.8608398, -0.3408203, -0.671875, -37.1341476, -88.3536606, 27.560976, 0.0726787
0.8540039, -0.3466797, -0.652832, -37.9878044, -89.146347, 27.6219521, 0.0733501
0.8417969, -0.3491211, -0.6386719, -38.4756088, -89.0243912, 27.6219521, 0.0733501
0.8330078, -0.3510742, -0.640625, -38.3536606, -90.5487823, 28.0487804, 0.0639506
0.8071289, -0.3530273, -0.6635742, -37.9268303, -93.0487823, 28.4146347, 0.0407874
0.796875, -0.3500977, -0.6772461, -37.8658562, -94.0243912, 28.780489, 0.026688
0.7949219, -0.3481445, -0.7167969, -37.8658562, -95.2439041, 30.060976, 0.0132601
0.8066406, -0.3364258, -0.7392578, -38.0487823, -95.5487823, 30.1829281, -0.0125887
0.815918, -0.3374023, -0.7407227, -38.5975609, -95.3658524, 30.6097565, -0.0552224
0.8466797, -0.3432617, -0.737793, -38.4756088, -95.4878082, 30.3048782, -0.103563
0.8569336, -0.3515625, -0.7329102, -38.7195129, -95.18293, 30.060976, -0.1743954
0.8564453, -0.3564453, -0.7167969, -38.4146347, -95, 30.2439022, -0.2453956
0.8608398, -0.3574219, -0.7011719, -37.0121956, -94.8170776, 30, -0.2932326
0.8530273, -0.3647461, -0.6699219, -36.2195129, -94.7561035, 29.5121956, -0.2903792
0.8393555, -0.3706055, -0.65625, -34.5121956, -95.4268341, 28.780489, -0.2378424
0.7993164, -0.3989258, -0.6567383, -33.7195129, -96.5243912, 27.9268303, -0.1381399
0.7817383, -0.4140625, -0.6708984, -33.2317085, -97.3780518, 27.8048782, -0.0250095
0.7519531, -0.4287109, -0.7075195, -32.2560997, -99.6951218, 28.2317085, 0.0555581
0.7441406, -0.4287109, -0.7407227, -31.5853672, -100.7926865, 28.1707325, 0.1119554
0.7553711, -0.4257812, -0.7563477, -30, -102.0731735, 27.6829281, 0.1475395
0.7851562, -0.4150391, -0.7617188, -29.0853672, -102.3780518, 27.3780499, 0.1341115
0.7973633, -0.4091797, -0.7529297, -27.9878063, -102.1341476, 26.3414631, 0.1038987
0.8149414, -0.3886719, -0.7412109, -27.6829281, -101.8292694, 25.3048782, 0.0703288
0.824707, -0.3720703, -0.7358398, -27.4390259, -101.4024429, 25, 0.0548867
0.8168945, -0.3579102, -0.7407227, -27.3170738, -101.7073212, 24.7560978, 0.0419623
0.8071289, -0.3530273, -0.7543945, -27.2560978, -102.5609818, 25, 0.0184634
0.7924805, -0.3540039, -0.769043, -27.9268303, -104.2073212, 26.1585369, 0.0095674
0.7880859, -0.3598633, -0.7695312, -28.4146347, -104.8780518, 26.5243912, -0.0072175
0.7832031, -0.3652344, -0.7514648, -28.3536587, -105.6097565, 27.1341476, -0.0041962
0.765625, -0.3481445, -0.737793, -28.1097565, -105.6097565, 27.1951218, 0.0102388
0.7548828, -0.3388672, -0.7495117, -27.6219521, -105.8536606, 27.3170738, 0.0203098
0.734375, -0.3081055, -0.7880859, -27.3780499, -106.0975647, 27.9878063, 0.0258488
0.7314453, -0.296875, -0.809082, -28.1707325, -107.9878082, 29.6341476, 0.0325628
0.7475586, -0.2861328, -0.8496094, -29.3902454, -108.9634171, 30.5487804, 0.0428016
0.7636719, -0.2890625, -0.8608398, -31.8902454, -110.0609818, 32.3780479, 0.0451514
0.8012695, -0.3144531, -0.862793, -33.4756088, -110.4268341, 33.3536606, 0.0386053
0.8188477, -0.3320312, -0.8496094, -35.7926826, -109.3902435, 34.1463432, 0.0152743
0.8452148, -0.3579102, -0.8007812, -35.8536606, -108.1097565, 34.3902435, 0.0011749
0.8461914, -0.3662109, -0.769043, -35.4268303, -107.3170776, 34.2073174, -0.0003357
0.8129883, -0.3735352, -0.7265625, -33.7195129, -106.7682953, 34.1463432, -0.0176242
0.7563477, -0.3632812, -0.7373047, -33.2317085, -107.1341476, 34.0853653, -0.0391089
0.7231445, -0.3569336, -0.765625, -31.8902454, -108.5975647, 34.7560997, -0.051194
0.6772461, -0.3320312, -0.8339844, -31.5853672, -109.5731735, 35.5487823, -0.0639506
0.6699219, -0.3203125, -0.8618164, -32.0121956, -111.8292694, 37.1951218, -0.0609293
0.6943359, -0.3105469, -0.8789062, -32.8048782, -112.7439041, 37.5, -0.0547189
0.7197266, -0.3188477, -0.8686523, -34.0853653, -112.8048782, 38.5365868, -0.0594186
0.7768555, -0.3564453, -0.8198242, -34.4512215, -112.3780518, 38.1097565, -0.057908
0.7949219, -0.3818359, -0.8061523, -35.4878044, -110.8536606, 37.6829262, -0.096849
0.8095703, -0.4111328, -0.784668, -35.6707344, -110.7926865, 37.7439041, -0.1579461
0.796875, -0.4189453, -0.7866211, -35.6097565, -111.2804871, 37.8658562, -0.1989014
0.7636719, -0.4033203, -0.8027344, -34.2682953, -112.3170776, 37.4390259, -0.2353246
0.7299805, -0.3769531, -0.8232422, -33.5975609, -112.86586, 37.4390259, -0.2445563
0.722168, -0.359375, -0.831543, -33.5365868, -113.5975647, 36.8292694, -0.2217288
0.7050781, -0.3222656, -0.8422852, -34.0243912, -113.7804871, 36.5853653, -0.1586175
0.7021484, -0.3095703, -0.8369141, -36.1585388, -114.5121994, 35.8536606, -0.0642863
0.706543, -0.3066406, -0.8095703, -37.2560997, -115, 35.5487823, 0.0223239
0.703125, -0.3188477, -0.8139648, -39.2682953, -116.5243912, 35.9146347, 0.0720073
0.7016602, -0.3383789, -0.8637695, -40, -117.2561035, 36.4024391, 0.0871138
0.6962891, -0.3505859, -0.8945312, -40.6707344, -118.9024429, 37.9878044, 0.0904707
0.7124023, -0.3735352, -0.918457, -41.0365868, -120.1219559, 39.2682953, 0.072343
0.7314453, -0.3886719, -0.9091797, -40.4878044, -119.8170776, 39.5731735, 0.0599222
0.75, -0.409668, -0.8676758, -40.0609779, -117.3780518, 39.0243912, 0.0642863
0.746582, -0.418457, -0.855957, -38.841465, -115.6097565, 38.4146347, 0.0757
0.7275391, -0.4086914, -0.8701172, -37.6219521, -114.3902435, 37.1341476, 0.082414
0.6933594, -0.3925781, -0.9140625, -36.6463432, -115.1219559, 36.8902435, 0.0871138
0.6845703, -0.3842773, -0.9233398, -35.9756088, -117.7439041, 37.0731697, 0.0874495
0.6982422, -0.3818359, -0.8974609, -35.3048782, -118.5365906, 36.9512215, 0.0703288
0.7109375, -0.3867188, -0.8779297, -34.7560997, -118.4146347, 36.7682953, 0.0522011
0.7143555, -0.4057617, -0.862793, -34.2073174, -117.4390259, 36.4024391, 0.04448
0.7041016, -0.4169922, -0.8769531, -33.1097565, -115.5487823, 35.6707344, 0.0303807
0.6782227, -0.4135742, -0.9047852, -31.2195129, -116.4634171, 35.6097565, 0.023331
0.6708984, -0.4067383, -0.9038086, -30.1219521, -117.0731735, 36.0975609, 0.0090639
0.6660156, -0.3930664, -0.8896484, -28.1097565, -117.8048782, 35.7317085, -0.0340734
0.6557617, -0.3798828, -0.8862305, -27.1951218, -117.3780518, 35.2439041, -0.096849
0.6430664, -0.3769531, -0.8979492, -26.9512196, -116.4024429, 34.3292694, -0.1260548
0.6176758, -0.359375, -0.9375, -27.1951218, -116.3414688, 34.7560997, -0.1270619
0.6108398, -0.3452148, -0.9570312, -28.9024391, -117.2561035, 35.9146347, -0.1183337
0.6152344, -0.3129883, -0.9594727, -29.7560978, -118.4146347, 36.0365868, -0.1149767
0.6230469, -0.3007812, -0.9399414, -31.4634151, -118.9024429, 36.2804871, -0.1079271
0.6357422, -0.3032227, -0.9057617, -32.0121956, -118.4146347, 36.1585388, -0.10692
0.6391602, -0.3081055, -0.8989258, -33.9634171, -117.9268341, 36.7682953, -0.1129625
0.6347656, -0.328125, -0.9077148, -36.0365868, -118.9024429, 37.7439041, -0.142504
0.6274414, -0.3427734, -0.9106445, -36.4024391, -120.0609818, 38.5365868, -0.1708705
0.6152344, -0.3818359, -0.925293, -37.1341476, -122.2561035, 39.5121956, -0.1898375
0.5957031, -0.4145508, -0.9306641, -36.5853653, -122.5609818, 39.6951218, -0.163653
0.5864258, -0.4228516, -0.9355469, -34.5731697, -121.5853653, 40.4878044, -0.0854353
0.5766602, -0.4282227, -0.9375, -33.2926826, -120.9756088, 40.5487823, 0.0011749
0.5732422, -0.4257812, -0.9360352, -30.9146347, -120.4268341, 39.8170738, 0.082414
0.5688477, -0.4013672, -0.9550781, -29.6951218, -120.4268341, 39.3292694, 0.1592889
0.5639648, -0.390625, -0.9711914, -28.3536587, -120.4878082, 38.4756088, 0.2077974
0.5649414, -0.3935547, -0.9931641, -28.2926826, -120.6707382, 38.2926826, 0.2079652
0.5688477, -0.4052734, -0.9897461, -27.9268303, -120.9756088, 39.3292694, 0.170367
0.5859375, -0.4238281, -0.9526367, -26.6463413, -120.18293, 39.6341476, 0.1361257
0.5878906, -0.4213867, -0.9443359, -25.6707325, -118.8414688, 39.1463432, 0.1253834
0.5732422, -0.4072266, -0.9584961, -23.0487804, -117.4390259, 38.2926826, 0.1216907
0.5415039, -0.3701172, -0.9858398, -22.0731716, -117.68293, 37.9268303, 0.1166552
0.5268555, -0.3544922, -1.0048828, -22.3780499, -118.5975647, 38.4146347, 0.0985275
0.5175781, -0.3364258, -1.0263672, -23.1097565, -118.6585388, 38.5975609, 0.0770428
0.5175781, -0.3320312, -1.0292969, -25.8536587, -118.6585388, 38.9024391, 0.0649577
0.5288086, -0.3349609, -1.0112305, -26.8292694, -118.5975647, 39.2682953, 0.0622721
0.5395508, -0.3364258, -1.0014648, -27.8658543, -118.2926865, 39.6951218, 0.0555581
0.5439453, -0.331543, -1.0078125, -28.1097565, -117.8048782, 39.7560997, 0.0428016
0.5405273, -0.3334961, -1.0234375, -29.2682934, -117.3170776, 40.7926826, 0.0330663
0.5395508, -0.340332, -1.0444336, -30.8536587, -118.2317123, 42.3170738, 0.0310521
0.546875, -0.3608398, -1.0249023, -31.8902454, -118.5365906, 42.9268303, 0.0290379
0.5551758, -0.375, -0.9975586, -32.4390259, -117.5609818, 43.3536606, 0.0213169
0.5415039, -0.3969727, -0.9492188, -32.1341476, -116.4634171, 43.4146347, -0.0025177
0.5214844, -0.4067383, -0.9418945, -30.9756107, -114.5121994, 42.3170738, -0.0481727
0.4604492, -0.4165039, -0.9492188, -30.7926846, -114.6951218, 41.9512215, -0.0666361
0.4375, -0.4150391, -0.9619141, -28.9024391, -116.5853653, 42.0731735, -0.0797284
0.4018555, -0.4003906, -1.0019531, -28.1707325, -117.8048782, 42.3170738, -0.0810712
0.3989258, -0.3837891, -1.0234375, -27.0731716, -119.8780518, 42.3170738, -0.0810712
0.4233398, -0.3608398, -1.0532227, -27.1341476, -120.18293, 42.1951218, -0.0713359
0.4443359, -0.3510742, -1.0454102, -27.0731716, -120.4878082, 42.0731735, -0.064622
0.4887695, -0.3525391, -1.0166016, -27.2560978, -118.5365906, 41.7073174, -0.0481727
0.5073242, -0.3857422, -0.9853516, -27.5, -117.0121994, 41.5853653, -0.018967
0.5014648, -0.4130859, -0.9814453, -27.0731716, -115.2439041, 42.2560997, 0.0048676
0.4716797, -0.4555664, -0.9873047, -26.280489, -115.0609818, 43.1097565, 0.0146029
0.4506836, -0.4677734, -0.9990234, -23.6585369, -115.2439041, 43.9634171, 0.0297093
0.4125977, -0.4492188, -1.0263672, -22.1951218, -115.4878082, 43.5365868, 0.0347448
0.4067383, -0.4296875, -1.0283203, -19.2073174, -115.7317123, 41.5853653, 0.040116
0.3886719, -0.3876953, -1.019043, -17.9878044, -116.2195129, 40.2439041, 0.042298
0.3862305, -0.3701172, -1.0043945, -18.5975609, -116.0975647, 37.3170738, 0.0431373
0.3857422, -0.3544922, -0.9697266, -19.5121956, -115.9146347, 36.4634171, 0.021149
0.3823242, -0.3481445, -0.9594727, -22.0731716, -116.0975647, 35.8536606, -0.0139315
0.3564453, -0.3588867, -0.9677734, -24.7560978, -117.86586, 36.7073174, -0.0518654
0.324707, -0.3637695, -1.0004883, -25.3048782, -119.0853653, 37.8048782, -0.0780499
0.3188477, -0.3603516, -1.0166016, -25.1829281, -121.3414688, 39.0243912, -0.0911421
0.331543, -0.3466797, -1.0307617, -25, -122.0731735, 39.0243912, -0.0929885
0.3417969, -0.3476562, -1.027832, -23.9634151, -122.7439041, 38.6585388, -0.0928206
0.3657227, -0.3798828, -1.0297852, -24.1463413, -122.7439041, 38.7195129, -0.0830854
0.3735352, -0.4018555, -1.0415039, -25.4878063, -122.3170776, 39.3902435, -0.0528725
0.3823242, -0.418457, -1.078125, -26.280489, -122.1341476, 39.8780479, -0.0243381
0.3745117, -0.4145508, -1.0961914, -27.0121956, -122.1951218, 40.5487823, -0.0166171
0.3774414, -0.3779297, -1.0932617, -26.5243912, -122.0731735, 40.3048782, -0.0176242
0.3823242, -0.3598633, -1.0766602, -25.4878063, -120.3048782, 38.7195129, -0.0162814
0.3735352, -0.3217773, -1.0424805, -25.5487804, -117.4390259, 36.7073174, -0.0350805
0.3388672, -0.3339844, -1.0458984, -26.4634151, -116.5243912, 36.5853653, -0.1018845
0.324707, -0.3564453, -1.0610352, -28.6585369, -117.0121994, 37.8658562, -0.1633173
0.3144531, -0.4311523, -1.0805664, -29.2682934, -118.4146347, 39.2073174, -0.2472419
0.3222656, -0.4663086, -1.0820312, -27.6829281, -120.4268341, 41.0365868, -0.2999466
0.34375, -0.5043945, -1.0708008, -26.0975609, -121.0365906, 41.0975609, -0.3241169
0.3510742, -0.5063477, -1.0581055, -21.6463413, -118.2926865, 39.5121956, -0.3419089
0.3481445, -0.4814453, -1.0488281, -19.7560978, -116.4634171, 38.1097565, -0.3385519
0.3305664, -0.4462891, -1.0429688, -17.439024, -112.8048782, 34.5731697, -0.3029679
0.2832031, -0.3779297, -1.0166016, -17.439024, -112.5609818, 32.1951218, -0.2505989
0.2670898, -0.3530273, -1.0043945, -18.3536587, -113.9024429, 31.4024391, -0.1942016
0.2416992, -0.3354492, -0.9960938, -20.8536587, -117.0121994, 31.4634151, -0.1566033
0.222168, -0.3637695, -1.0214844, -21.7682934, -118.8414688, 32.2560997, -0.1062486
0.2163086, -0.387207, -1.0307617, -22.9268303, -121.3414688, 35.1219521, -0.061265
0.2250977, -0.4306641, -1.0141602, -22.5, -122.1951218, 36.4634171, -0.0307164
0.2358398, -0.4404297, -0.9936523, -19.0243912, -122.3170776, 37.1341476, -0.0097353
0.2495117, -0.4326172, -0.9609375, -16.8902435, -121.5853653, 36.5853653, -0.0015106
0.2373047, -0.4199219, -0.9643555, -13.5975609, -120.18293, 34.6341476, 0.0198062
0.2026367, -0.3881836, -1.0004883, -12.7439032, -120.4878082, 34.3902435, 0.0421302
0.1845703, -0.3691406, -1.0195312, -13.841464, -121.8902435, 34.6951218, 0.0428016
0.1674805, -0.3134766, -1.0654297, -16.0975609, -123.7195129, 35, 0.0414588
0.1640625, -0.2919922, -1.09375, -17.8658543, -125.0609818, 35, 0.0582437
0.1733398, -0.2822266, -1.128418, -21.6463413, -127.0121994, 36.2804871, 0.0904707
0.2241211, -0.3095703, -1.1079102, -23.3536587, -127.8048782, 37.8048782, 0.1359579
0.25, -0.3271484, -1.0834961, -25.9146347, -126.5243912, 39.8170738, 0.178088
0.2744141, -0.3466797, -1.0541992, -26.4634151, -124.9390259, 40.7317085, 0.2183719
0.2631836, -0.3530273, -1.0571289, -26.8902454, -121.0365906, 41.0975609, 0.2311284
0.2216797, -0.3759766, -1.0849609, -26.8292694, -119.8780518, 41.4634171, 0.2210575
0.2045898, -0.3867188, -1.0878906, -26.0975609, -120.2439041, 42.3170738, 0.1943694
0.1948242, -0.4086914, -1.0595703, -25.2439022, -120.8536606, 42.6829262, 0.1545892
0.1923828, -0.418457, -1.0351562, -23.1097565, -121.1585388, 42.2560997, 0.1203479
0.1689453, -0.4125977, -1.0410156, -21.4634151, -118.7804871, 40.4268303, 0.1013809
0.1499023, -0.3984375, -1.0610352, -21.2195129, -117.8048782, 39.8780479, 0.0683146
0.1103516, -0.3530273, -1.1142578, -21.8292694, -117.9268341, 40.3658562, 0.0381018
0.1079102, -0.2944336, -1.1220703, -22.5, -118.5975647, 40.1219521, 0.0263523
0.1274414, -0.2700195, -1.1103516, -25, -119.0243912, 39.1463432, 0.0137636
0.1533203, -0.2753906, -1.0859375, -26.7682934, -119.0243912, 38.841465, -0.0062104
0.1640625, -0.2978516, -1.081543, -31.0365868, -118.4756088, 39.5731735, -0.0182956
0.1791992, -0.3706055, -1.09375, -33.0487823, -118.2926865, 41.0975609, -0.0219883
0.1835938, -0.4086914, -1.0888672, -34.0853653, -117.7439041, 44.3902435, -0.0417945
0.2011719, -0.4677734, -1.0361328, -32.6219521, -117.3780518, 45.1219521, -0.0575723
0.2026367, -0.4853516, -0.9921875, -27.7439022, -114.8170776, 43.841465, -0.0661326
0.1640625, -0.4790039, -0.9375, -22.3170738, -110.36586, 39.3292694, -0.068986
0.1162109, -0.453125, -0.9414062, -20.4268303, -108.9024429, 37.1951218, -0.0740215
0.0200195, -0.375, -0.9990234, -19.2682934, -109.3902435, 34.3902435, -0.10692
-0.0253906, -0.3032227, -1.0014648, -19.7560978, -112.0731735, 34.2073174, -0.1285725
-0.015625, -0.2851562, -0.9755859, -21.2195129, -118.7195129, 33.3536606, -0.1384756
0.0214844, -0.2958984, -0.9458008, -22.9268303, -121.2804871, 32.8658562, -0.1384756
0.03125, -0.3183594, -0.96875, -26.3414631, -122.68293, 32.8658562, -0.1307546
0.0292969, -0.3793945, -1.0625, -27.7439022, -122.5609818, 34.3902435, -0.1196765
0.0375977, -0.3964844, -1.0952148, -28.1707325, -124.3292694, 37.9268303, -0.0961776
0.0966797, -0.3916016, -1.0732422, -26.5853672, -125.18293, 39.4512215, -0.0773785
0.1264648, -0.3779297, -1.0356445, -22.1951218, -123.2317123, 38.1097565, -0.0609293
0.1489258, -0.3369141, -0.9926758, -20.3658543, -118.1097565, 34.2073174, -0.043473
0.1318359, -0.3212891, -0.9990234, -20.9756107, -116.0975647, 32.9268303, -0.0310521
0.0693359, -0.3056641, -1.0351562, -24.8780499, -117.3170776, 33.4756088, -0.0256809
0.0249023, -0.300293, -1.0874023, -27.1341476, -119.6951218, 34.7560997, -0.023331
0.0112305, -0.2978516, -1.1210938, -30.3658543, -123.9634171, 37.0121956, -0.0115816
0.0117188, -0.2856445, -1.1621094, -31.280489, -125, 38.2926826, -0.0028534
0.0268555, -0.2773438, -1.1518555, -31.5243912, -124.8170776, 40.1219521, -0.0028534
0.081543, -0.2827148, -1.078125, -31.2195129, -124.0853653, 40.4268303, -0.0115816
0.1064453, -0.2949219, -1.043457, -32.1341476, -121.5243912, 40.3048782, -0.008896
0.1074219, -0.3227539, -1.0307617, -32.9878044, -120.18293, 39.7560997, -0.0062104
0.0839844, -0.3349609, -1.0429688, -35, -119.8170776, 41.0975609, -0.0038605
0.0327148, -0.3491211, -1.0664062, -34.3902435, -120.7926865, 42.9878044, 0.0005035
0.0161133, -0.3544922, -1.0610352, -33.1097565, -121.0365906, 43.1097565, -0.0070497
0.0024414, -0.3583984, -1.0517578, -29.6341476, -120.6707382, 41.7682953, -0.012253
-0.0214844, -0.3632812, -1.0693359, -28.5975609, -119.8170776, 40.9756088, -0.0041962
-0.0302734, -0.3647461, -1.0878906, -29.3292694, -118.9634171, 39.8780479, -0.0048676
-0.0371094, -0.3505859, -1.0957031, -30, -119.0243912, 39.8780479, -0.0073854
-0.0292969, -0.3408203, -1.0888672, -31.1585369, -119.7561035, 39.5731735, -0.0196384
0.0019531, -0.3081055, -1.043457, -31.0365868, -119.5121994, 38.5975609, -0.0303807
0.0063477, -0.2944336, -1.0180664, -31.0975609, -118.4756088, 36.341465, -0.0307164
-0.0004883, -0.3007812, -0.9609375, -31.341465, -117.5609818, 35.1219521, -0.0350805
-0.0161133, -0.3144531, -0.9418945, -32.1951218, -116.5853653, 35, -0.0377661
-0.0703125, -0.3510742, -0.9394531, -32.7439041, -116.7073212, 36.341465, -0.0451514
-0.09375, -0.3637695, -0.9550781, -32.1951218, -117.1951218, 36.8902435, -0.0565652
-0.137207, -0.3701172, -1.012207, -29.6341476, -118.8414688, 36.8292694, -0.057908
-0.1455078, -0.3603516, -1.0429688, -27.6829281, -119.146347, 36.5243912, -0.0565652
-0.1293945, -0.3554688, -1.0307617, -24.8780499, -120.6707382, 34.8170738, -0.0488441
-0.0869141, -0.3500977, -0.984375, -24.8170738, -120.7317123, 33.5975609, -0.0424659
-0.0742188, -0.3442383, -0.9780273, -25.9146347, -119.3902435, 31.5243912, -0.0350805
-0.0756836, -0.3212891, -1.0029297, -27.2560978, -118.5975647, 31.280489, -0.0250095
-0.0888672, -0.3051758, -1.0283203, -28.780489, -118.5365906, 32.0731697, -0.0229953
-0.0820312, -0.2700195, -1.043457, -29.0243912, -119.2682953, 33.1097565, -0.027863
-0.0708008, -0.2592773, -1.0292969, -28.0487804, -120.6097565, 33.6585388, -0.0352483
-0.0522461, -0.2543945, -1.0004883, -27.4390259, -118.5365906, 32.9878044, -0.0417945
-0.0595703, -0.2626953, -1.0058594, -28.0487804, -116.9512253, 33.1707306, -0.0317235
-0.0991211, -0.293457, -1.046875, -28.9634151, -114.5731735, 36.0365868, -0.0381018
-0.1147461, -0.3208008, -1.0761719, -29.3902454, -115.0609818, 37.9268303, -0.0411231
-0.1088867, -0.3193359, -1.081543, -28.841465, -115.7926865, 40.2439041, -0.0344091
-0.0849609, -0.3017578, -1.0776367, -28.2317085, -115.7317123, 40.2439041, -0.0310521
-0.0786133, -0.2900391, -1.0634766, -27.1951218, -112.9268341, 38.4146347, -0.0313878
-0.0791016, -0.2705078, -1.0380859, -27.6829281, -111.3414688, 37.4390259, -0.0438087
-0.0917969, -0.2626953, -1.0283203, -30.6707325, -109.9390259, 36.2804871, -0.054551
-0.1171875, -0.2729492, -1.0063477, -31.9512196, -109.6951218, 36.1585388, -0.0693217
-0.128418, -0.2807617, -1.003418, -35, -110.6097565, 37.2560997, -0.0931563
-0.1464844, -0.2958984, -1.0302734, -35.6707344, -111.8902435, 39.0853653, -0.1441825
-0.1572266, -0.3071289, -1.0507812, -35.6707344, -112.1341476, 39.7560997, -0.2096437
-0.1533203, -0.3178711, -1.0825195, -34.9390259, -111.646347, 40.7926826, -0.2858473
-0.1274414, -0.3203125, -1.0771484, -34.6951218, -111.1585388, 40.7926826, -0.3244526
-0.1123047, -0.3105469, -1.0561523, -35.1219521, -108.8414688, 39.4512215, -0.3063249
-0.0927734, -0.284668, -0.9970703, -35.5487823, -106.8292694, 38.4756088, -0.2234073
-0.0996094, -0.2705078, -0.9624023, -37.1951218, -103.6585388, 35.9756088, -0.0918135
-0.1376953, -0.2646484, -0.9072266, -38.1707344, -102.6219559, 34.9390259, 0.0454871
-0.1616211, -0.2709961, -0.8945312, -39.5121956, -103.2317123, 34.2073174, 0.156939
-0.2353516, -0.2910156, -0.9145508, -39.8780479, -104.0243912, 34.5731697, 0.2173648
-0.2617188, -0.2949219, -0.9345703, -39.5121956, -106.0365906, 36.0365868, 0.2252537
-0.2871094, -0.2983398, -0.9560547, -38.7195129, -109.3292694, 36.6463432, 0.1978943
-0.2792969, -0.2949219, -0.9467773, -38.1097565, -110.4878082, 36.2804871, 0.1676814
-0.2568359, -0.2729492, -0.9125977, -37.6219521, -111.4024429, 33.7195129, 0.1428397
-0.2495117, -0.2524414, -0.8901367, -37.5609779, -110.6097565, 32.2560997, 0.1250477
-0.2529297, -0.2480469, -0.8984375, -37.8658562, -110, 31.341465, 0.1092699
-0.2705078, -0.2602539, -0.9467773, -37.8658562, -110.2439041, 31.8902454, 0.0835889
-0.2783203, -0.2666016, -0.9921875, -37.6219521, -111.5853653, 34.0853653, 0.0656291
-0.2705078, -0.2890625, -1.0610352, -36.9512215, -112.0121994, 35.6707344, 0.0575723
-0.246582, -0.2993164, -1.0634766, -34.5731697, -112.2561035, 38.6585388, 0.0486763
-0.1762695, -0.3066406, -0.9882812, -33.1097565, -111.7682953, 38.9634171, 0.0397803
-0.1499023, -0.3051758, -0.9321289, -30.5487804, -107.0731735, 35.9756088, 0.0313878
-0.1542969, -0.2871094, -0.8847656, -30.9756107, -101.0365906, 30.6707325, 0.0292058
-0.1889648, -0.2719727, -0.9111328, -32.6829262, -99.2073212, 29.3292694, 0.0213169
-0.2836914, -0.2504883, -0.9775391, -35.7926826, -101.646347, 29.5731716, 0.0139315
-0.3291016, -0.2543945, -0.9975586, -36.8902435, -104.5121994, 31.0975609, 0.0048676
-0.3232422, -0.2636719, -0.9897461, -36.4024391, -109.2682953, 32.8658562, -0.0203098
-0.2978516, -0.2773438, -0.9716797, -35.1829262, -109.5121994, 33.0487823, -0.0498512
-0.2880859, -0.2851562, -0.9707031, -34.0243912, -106.646347, 33.1097565, -0.0713359
-0.2724609, -0.2783203, -0.9506836, -33.4146347, -105, 32.9878044, -0.0881209
-0.2705078, -0.262207, -0.9360352, -33.1707306, -102.2561035, 32.0121956, -0.0941634
-0.269043, -0.2119141, -0.9179688, -33.4146347, -101.5853653, 31.0975609, -0.0854353
-0.2792969, -0.1933594, -0.9238281, -35.3048782, -101.646347, 28.6585369, -0.0679789
-0.3071289, -0.1777344, -0.9624023, -38.4146347, -103.1097565, 28.3536587, -0.0493477
-0.3188477, -0.2041016, -1.0087891, -40.0609779, -104.146347, 29.3902454, -0.027863
-0.3061523, -0.2250977, -1.0087891, -42.1951218, -104.9390259, 32.4390259, 0.0038605
-0.2607422, -0.2641602, -0.9462891, -42.4390259, -104.8780518, 33.1097565, 0.0196384
-0.237793, -0.2700195, -0.8989258, -41.5853653, -101.646347, 32.4390259, -0.0010071
-0.2299805, -0.2456055, -0.8105469, -40.9756088, -99.4512253, 31.280489, -0.0491798
-0.2563477, -0.2197266, -0.7749023, -40.7317085, -94.5121994, 26.7073174, -0.1018845
-0.3500977, -0.1713867, -0.7509766, -41.4024391, -93.4756088, 24.7560978, -0.1555962
-0.4082031, -0.1591797, -0.7768555, -43.2926826, -95.6097565, 23.3536587, -0.1660029
-0.5092773, -0.168457, -0.8852539, -45.2439041, -98.0487823, 24.6341476, -0.161471
-0.5327148, -0.1904297, -0.9414062, -47.3780518, -104.7561035, 30.1219521, -0.1238727
-0.5014648, -0.2485352, -0.96875, -45.4878044, -111.5853653, 36.4024391, -0.0706645
-0.3745117, -0.2993164, -0.8828125, -42.8048782, -113.0487823, 37.4390259, -0.0297093
-0.3144531, -0.3022461, -0.8447266, -37.6219521, -108.7195129, 35, 0.0062104
-0.2773438, -0.2734375, -0.840332, -36.0975609, -103.8414688, 32.3780479, 0.0307164
-0.2993164, -0.2539062, -0.8662109, -36.341465, -96.9512253, 27.8048782, 0.0381018
-0.3583984, -0.2285156, -0.9199219, -37.3780479, -97.1341476, 26.8902454, 0.0323949
-0.3740234, -0.2241211, -0.9453125, -39.5731735, -101.7073212, 27.9268303, 0.0223239
-0.3920898, -0.2158203, -0.9936523, -40.3048782, -103.8414688, 28.9634151, 0.0240024
-0.3881836, -0.2148438, -1.0039062, -39.8170738, -104.7561035, 31.341465, 0.0303807
-0.362793, -0.2094727, -0.9575195, -39.0853653, -103.7195129, 32.4390259, 0.0547189
-0.3413086, -0.2070312, -0.90625, -36.7073174, -98.5365906, 31.8902454, 0.0797284
-0.3183594, -0.1958008, -0.8237305, -37.3170738, -92.6219559, 28.4146347, 0.0911421
-0.3793945, -0.1796875, -0.8344727, -38.7195129, -90.9146347, 26.8902454, 0.1005417
-0.4169922, -0.1733398, -0.8579102, -43.2317085, -92.4390259, 26.2195129, 0.0938277
-0.4770508, -0.1708984, -0.8911133, -44.9390259, -95.7317123, 27.1341476, 0.0693217
-0.4902344, -0.1816406, -0.8989258, -46.7682953, -102.5, 29.7560978, 0.0535439
-0.4736328, -0.2060547, -0.902832, -47.0731735, -104.5121994, 30.6097565, 0.0186313
-0.4599609, -0.2138672, -0.8989258, -45.7317085, -104.4512253, 32.6829262, -0.0102388
-0.425293, -0.203125, -0.8735352, -45.0609779, -102.6219559, 32.6219521, -0.0260166
-0.4130859, -0.1948242, -0.8540039, -44.6341476, -98.3536606, 31.341465, -0.0464942
-0.4082031, -0.1630859, -0.8144531, -45.0609779, -97.3780518, 29.9390259, -0.0978561
-0.4165039, -0.1489258, -0.8061523, -47.9268303, -97.0121994, 27.2560978, -0.156939
-0.4628906, -0.1313477, -0.8154297, -52.7439041, -98.5365906, 26.5853672, -0.2116579
-0.5083008, -0.1274414, -0.8662109, -54.8170738, -99.5121994, 27.4390259, -0.254963
-0.5229492, -0.128418, -0.8930664, -57.3780518, -102.6219559, 30.5487804, -0.2586557
-0.5107422, -0.1342773, -0.9042969, -57.5, -103.9024429, 32.0731697, -0.2224002
-0.4916992, -0.140625, -0.8833008, -56.9512215, -103.9024429, 33.4756088, -0.1566033
-0.4448242, -0.1640625, -0.7978516, -56.5853653, -102.7439041, 33.2317085, -0.0726787
-0.4321289, -0.1787109, -0.7446289, -56.0975609, -98.7804871, 31.5243912, 0.0090639
-0.4414062, -0.2163086, -0.671875, -55.9146347, -96.8292694, 30.1219521, 0.0622721
-0.472168, -0.2294922, -0.6743164, -55, -95.18293, 27.9268303, 0.1079271
-0.5610352, -0.2368164, -0.7446289, -53.2926826, -97.6219559, 27.3170738, 0.124712
-0.5986328, -0.2324219, -0.7758789, -52.0121956, -99.6951218, 27.8658543, 0.1327687
-0.6240234, -0.2368164, -0.7988281, -48.0487823, -105, 28.2317085, 0.1399863
-0.6030273, -0.237793, -0.7895508, -46.341465, -106.5853653, 27.5, 0.1364614
-0.5810547, -0.2363281, -0.7807617, -43.1097565, -107.0121994, 25.4268303, 0.1327687
-0.5561523, -0.2236328, -0.7680664, -42.0121956, -106.7682953, 24.0243912, 0.1176623
-0.5483398, -0.2124023, -0.7675781, -41.2804871, -105.9146347, 21.7682934, 0.0921492
-0.5444336, -0.1845703, -0.784668, -40.7926826, -106.2195129, 20.3658543, 0.0652934
-0.5512695, -0.1708984, -0.8027344, -40.9756088, -106.8902435, 19.0853672, 0.0468299
-0.5527344, -0.1557617, -0.8325195, -40.5487823, -107.8658524, 19.1463413, 0.0323949
-0.550293, -0.1572266, -0.8515625, -39.6341476, -108.2317123, 21.0975609, 0.0186313
-0.5444336, -0.1445312, -0.9082031, -39.2682953, -106.5243912, 23.3536587, 0.0172885
-0.5356445, -0.1367188, -0.9316406, -38.9634171, -105.5487823, 24.2073174, 0.0287022
-0.496582, -0.1240234, -0.9130859, -38.7195129, -103.2926865, 25.7317085, 0.036759
-0.4541016, -0.1132812, -0.8364258, -38.9024391, -101.2804871, 25.4878063, 0.0305486
-0.4492188, -0.1035156, -0.8139648, -40.1829262, -95.8536606, 23.6585369, 0.0250095
-0.4848633, -0.0859375, -0.8305664, -41.8902435, -93.2317123, 22.8658543, 0.012253
-0.5126953, -0.0810547, -0.8496094, -45.7926826, -91.4634171, 23.1097565, 0.0132601
-0.5522461, -0.0976562, -0.8647461, -47.5609779, -92.5, 23.9024391, 0.0146029
-0.5576172, -0.109375, -0.8681641, -50.3658562, -95.4878082, 26.5243912, 0.0052033
-0.5576172, -0.1196289, -0.8681641, -51.5243912, -96.2195129, 27.560976, 0.0028534
-0.5566406, -0.1132812, -0.8666992, -52.0731735, -94.3902435, 29.3902454, 0.0005035
-0.5478516, -0.1147461, -0.859375, -52.1951218, -91.4024429, 30.2439022, -0.0023499
-0.5390625, -0.1196289, -0.8383789, -51.9512215, -90.0609741, 30.2439022, 0.0030213
-0.5249023, -0.1381836, -0.7734375, -53.2317085, -87.8048782, 28.9024391, 0.0025177
-0.5322266, -0.1450195, -0.7128906, -53.9634171, -86.5853653, 27.9878063, -0.0115816
-0.5498047, -0.1352539, -0.6977539, -55.8536606, -84.5731735, 26.0975609, -0.0149386
-0.609375, -0.105957, -0.6782227, -56.4634171, -84.3902435, 25.3048782, -0.012253
-0.6381836, -0.0942383, -0.6738281, -56.7682953, -85.9756088, 24.5121956, -0.0216526
-0.6943359, -0.09375, -0.6694336, -56.7073174, -87.1341476, 24.4512196, -0.0357519
-0.7089844, -0.1015625, -0.6679688, -56.4024391, -90.4878082, 25.3658543, -0.0424659
-0.7080078, -0.1445312, -0.6665039, -56.4024391, -92.2561035, 26.4634151, -0.0421302
-0.7001953, -0.1650391, -0.668457, -55.9146347, -95.1219559, 28.0487804, -0.0344091
-0.6650391, -0.1918945, -0.6733398, -54.9390259, -96.3414688, 27.8048782, -0.01561
-0.6518555, -0.190918, -0.6865234, -54.6341476, -95.8536606, 26.7682934, -0.0095674
-0.6342773, -0.1640625, -0.722168, -53.6585388, -95.4268341, 23.5365868, -0.0041962
-0.6225586, -0.1367188, -0.7387695, -53.2926826, -95.2439041, 22.2560978, -0.0052033
-0.6171875, -0.1347656, -0.7353516, -52.8048782, -95.2439041, 20.7317085, -0.0062104
-0.6035156, -0.1381836, -0.7294922, -52.1951218, -94.8170776, 20.3048782, -0.0169528
-0.5986328, -0.140625, -0.7392578, -51.0975609, -92.8048782, 20.7926826, -0.0216526
-0.5986328, -0.1494141, -0.7719727, -49.8780518, -91.5243912, 21.5243912, -0.0238346
-0.5947266, -0.1542969, -0.78125, -47.0121956, -89.4512253, 23.780489, -0.0203098
-0.5712891, -0.1435547, -0.7753906, -45.0609779, -87.9878082, 24.8780499, -0.0132601
-0.5615234, -0.1269531, -0.7651367, -42.8048782, -83.1707306, 24.5121956, -0.0102388
-0.5688477, -0.0869141, -0.7612305, -42.3780479, -77.5609741, 22.0121956, -0.0129244
-0.5761719, -0.0766602, -0.7563477, -42.8048782, -76.0365906, 21.2195129, -0.0105745
-0.6015625, -0.0708008, -0.7451172, -44.5731735, -75.6097565, 21.4024391, -0.0182956
-0.6137695, -0.0776367, -0.7353516, -45.2439041, -76.1585388, 21.8292694, -0.0250095
-0.6123047, -0.0805664, -0.7324219, -46.2804871, -76.0975647, 23.4146347, -0.0270237
-0.6157227, -0.0805664, -0.7211914, -46.2804871, -75.5487823, 23.7195129, -0.0270237
-0.6123047, -0.0795898, -0.7133789, -47.1951218, -73.6585388, 24.0243912, -0.0246738
-0.6157227, -0.0908203, -0.6879883, -46.8292694, -72.6219559, 23.5975609, -0.0377661
-0.6210938, -0.1040039, -0.6791992, -47.3780518, -71.2195129, 23.4756107, -0.0500191
-0.625, -0.1206055, -0.6552734, -47.2560997, -71.0975647, 23.5365868, -0.0666361
-0.6225586, -0.1206055, -0.6469727, -46.8292694, -70.6707306, 23.6585369, -0.0834211
-0.6303711, -0.0986328, -0.644043, -45.9756126, -68.5365906, 23.1097565, -0.1230335
-0.6411133, -0.0878906, -0.6542969, -46.0365868, -67.3780518, 22.560976, -0.188159
-0.6621094, -0.0610352, -0.6621094, -47.2560997, -65.7317123, 21.1585369, -0.237171
-0.6669922, -0.0458984, -0.6308594, -48.2317085, -65.2439041, 20.8536587, -0.3210956
-0.6630859, -0.0561523, -0.5898438, -49.9390259, -65.18293, 20.4878044, -0.4110628
-0.6621094, -0.0893555, -0.515625, -50.1829262, -65.18293, 20.3048782, -0.424155
-0.6699219, -0.1049805, -0.5004883, -50.4878044, -64.8170776, 19.939024, -0.381857
-0.7026367, -0.1186523, -0.515625, -50, -65, 20.060976, -0.3093462
-0.722168, -0.109375, -0.546875, -47.3170738, -67.0121994, 20.4878044, -0.2124971
-0.7460938, -0.0883789, -0.6259766, -45.1829262, -68.7804871, 20.6707325, -0.1025559
-0.7382812, -0.0703125, -0.6611328, -42.4390259, -71.6463394, 21.8902435, 0.0149386
-0.7045898, -0.0527344, -0.7026367, -41.7073174, -71.7682953, 22.8658543, 0.0995346
-0.6733398, -0.0522461, -0.7011719, -41.7682953, -70.6707306, 22.6829281, 0.16701
-0.6186523, -0.0766602, -0.6557617, -41.9512215, -67.3780518, 22.0121956, 0.2066224
-0.5883789, -0.105957, -0.5961914, -41.6463432, -65.8536606, 21.0365868, 0.2260929
-0.5825195, -0.1103516, -0.5751953, -39.5731735, -62.3780518, 19.8170738, 0.2240787
-0.6132812, -0.0957031, -0.5771484, -38.4756088, -60.6707344, 19.3902435, 0.2170291
-0.6411133, -0.081543, -0.5966797, -36.0365868, -57.9878044, 19.5121956, 0.19823
-0.6948242, -0.0263672, -0.6586914, -35.1829262, -57.68293, 19.6951218, 0.1821164
-0.7143555, 0, -0.6870117, -35.2439041, -57.0731735, 20.6707325, 0.152575
-0.722168, 0.0175781, -0.6987305, -35.9756088, -57.3780518, 21.7682934, 0.1164874
-0.7080078, 0.0073242, -0.6762695, -37.9878044, -57.1951218, 23.1097565, 0.0642863
-0.6591797, -0.0268555, -0.6054688, -39.6341476, -55.7926826, 24.0243912, 0.0151064
-0.6430664, -0.0410156, -0.578125, -40.8536606, -54.3292694, 23.5365868, -0.0166171
-0.6401367, -0.0615234, -0.5507812, -41.8292694, -52.3170738, 22.1341476, -0.0337377
-0.6655273, -0.0537109, -0.5268555, -41.8902435, -51.9512215, 21.8292694, -0.0481727
-0.6757812, -0.0405273, -0.5200195, -40.7926826, -52.2560997, 21.280489, -0.0471656
-0.7084961, -0.0219727, -0.5356445, -40.4268303, -52.3170738, 21.2195129, -0.0438087
-0.7270508, -0.0161133, -0.5610352, -41.1585388, -52.2560997, 21.5853672, -0.0417945
-0.753418, -0.027832, -0.6088867, -42.1341476, -52.5609779, 22.560976, -0.0411231
-0.7519531, -0.0449219, -0.6132812, -42.8658562, -55.0609779, 24.6951218, -0.0560616
-0.7109375, -0.0732422, -0.5844727, -42.6219521, -55.9146347, 25.4878063, -0.068986
-0.6821289, -0.0712891, -0.5566406, -41.0365868, -55, 24.8170738, -0.0763714
-0.6484375, -0.0605469, -0.4912109, -39.8170738, -50.9146347, 21.5853672, -0.0780499
-0.6586914, -0.0610352, -0.4643555, -39.5121956, -48.6585388, 20.1829281, -0.0763714
-0.6987305, -0.0424805, -0.465332, -39.8780479, -46.8902435, 18.1097565, -0.054551
-0.762207, -0.0361328, -0.5205078, -40, -47.6829262, 18.1707325, -0.01561
-0.7871094, -0.0322266, -0.5405273, -40.5487823, -51.6463432, 19.6341476, 0.0166171
-0.7924805, -0.0322266, -0.5336914, -39.8780479, -53.841465, 20.3048782, 0.0441444
-0.7705078, -0.0380859, -0.5048828, -37.1951218, -56.0365868, 21.0365868, 0.0595865
-0.7407227, -0.046875, -0.4584961, -36.2195129, -55.5487823, 20.4268303, 0.0599222
-0.7402344, -0.0483398, -0.4624023, -34.6341476, -53.7804909, 19.4512196, 0.0522011
-0.7568359, -0.0546875, -0.5, -34.1463432, -53.7195129, 19.2073174, 0.036759
-0.7631836, -0.0522461, -0.5229492, -32.0121956, -56.2804909, 20, 0.0280308
-0.7509766, -0.0400391, -0.574707, -30.1219521, -58.4146347, 21.280489, 0.0253452
-0.7402344, -0.0302734, -0.5966797, -29.5121956, -58.0487823, 21.280489, 0.0137636
-0.7099609, -0.0151367, -0.6069336, -29.7560978, -55.6707344, 21.1585369, -0.0030213
-0.6894531, -0.03125, -0.5708008, -30.060976, -54.0853653, 20.7317085, -0.0344091
-0.6831055, -0.0473633, -0.5458984, -29.8170738, -51.8902435, 20.2439022, -0.0767071
-0.6772461, -0.0629883, -0.5146484, -29.2682934, -50.9756126, 20.060976, -0.1055772
-0.6835938, -0.0620117, -0.5126953, -27.7439022, -48.841465, 18.9634151, -0.1428397
-0.7109375, -0.0507812, -0.5185547, -26.7682934, -47.9268303, 18.9024391, -0.1596246
-0.7236328, -0.0322266, -0.5209961, -25.5487804, -46.2195129, 18.3536587, -0.1532464
-0.7363281, 0.0073242, -0.5268555, -25.5487804, -44.9390259, 18.0487804, -0.1307546
-0.7456055, 0.015625, -0.5371094, -27.7439022, -42.2560997, 17.6219521, -0.1065843
-0.765625, -0.0131836, -0.5385742, -30.6707325, -42.0731735, 17.3780499, -0.0961776
-0.7646484, -0.0410156, -0.5224609, -31.280489, -43.1707344, 17.9268303, -0.110277
-0.7416992, -0.0761719, -0.4731445, -30.9756107, -45.0609779, 17.9878044, -0.1488823
-0.7158203, -0.0742188, -0.4160156, -30.1219521, -43.7804871, 17.2560978, -0.1693599
-0.7158203, -0.0566406, -0.4038086, -28.780489, -39.6951218, 14.3902445, -0.1666743
-0.7480469, -0.0253906, -0.394043, -28.1707325, -37.9268303, 12.5, -0.1337758
-0.7705078, -0.0195312, -0.3994141, -28.4146347, -36.8292694, 10.4878054, -0.0562295
-0.8188477, -0.0219727, -0.4262695, -28.841465, -37.5, 10.7317076, 0.0347448
-0.8300781, -0.0200195, -0.4482422, -29.8170738, -39.6951218, 11.7073174, 0.0924849
-0.8291016, -0.0146484, -0.4848633, -30.6707325, -40.6097565, 11.8902445, 0.1159838
-0.8139648, -0.0136719, -0.4853516, -30.5487804, -41.8902435, 11.9512196, 0.117998
-0.7700195, -0.019043, -0.4472656, -30.4268303, -39.0243912, 11.7073174, 0.1030594
-0.7319336, -0.0258789, -0.4165039, -31.4024391, -35.1829262, 11.4634151, 0.0770428
-0.7431641, -0.0336914, -0.394043, -32.3780479, -28.5365868, 10.9146347, 0.0642863
-0.8037109, -0.0390625, -0.3823242, -30.5487804, -29.8780499, 9.6951218, 0.0740215
-0.8349609, -0.0390625, -0.4013672, -25.3658543, -37.2560997, 8.4756098, 0.0696574
-0.8554688, -0.0454102, -0.4702148, -22.2560978, -40.4268303, 9.5121956, 0.0602579
-0.8466797, -0.0473633, -0.4960938, -19.2073174, -42.4390259, 12.8048782, 0.0404517
-0.8056641, -0.0478516, -0.4711914, -17.9878044, -41.4024391, 13.9024391, 0.0072175
-0.7866211, -0.034668, -0.4301758, -15.9146347, -37.0731697, 12.7439032, -0.0431373
-0.7832031, 0.0029297, -0.3847656, -14.9390249, -34.8780479, 11.0975609, -0.0632792
-0.8017578, 0.0214844, -0.3984375, -14.8780489, -31.9512196, 8.2317076, -0.079057
-0.8525391, 0.0366211, -0.4482422, -15.9146347, -34.1463432, 9.5121956, -0.0908064
-0.8496094, 0.0258789, -0.4575195, -15.9756098, -35.7317085, 10.4878054, -0.0810712
-0.8271484, 0.0229492, -0.4545898, -15.3048782, -36.5853653, 12.560976, -0.0716716
-0.7817383, 0.0327148, -0.4731445, -15.6097565, -35.0609779, 12.5, -0.0421302
-0.7744141, 0.0439453, -0.484375, -16.7682934, -30.9756107, 11.0365858, -0.0139315
-0.7646484, 0.034668, -0.4716797, -17.9268303, -29.8780499, 10.4268293, 0.0011749
-0.7539062, 0.0131836, -0.4428711, -18.2926826, -28.5365868, 10, 0.01561
-0.7416992, -0.0307617, -0.3774414, -17.5, -27.6219521, 10.2439022, 0.030045
-0.7382812, -0.0351562, -0.3598633, -15.4878054, -23.8414631, 9.6341467, 0.033402
-0.7592773, -0.0097656, -0.3857422, -14.5121956, -21.4634151, 8.4146347, 0.0347448
-0.7851562, 0.0131836, -0.4179688, -15.1829271, -18.0487804, 6.4634147, 0.0372625
-0.8310547, 0.0449219, -0.4438477, -17.1951218, -18.3536587, 5.7926831, 0.0359197
-0.8232422, 0.0463867, -0.378418, -18.0487804, -19.2682934, 6.0975609, 0.0381018
-0.8061523, 0.0371094, -0.3300781, -17.8658543, -18.9024391, 5.7317076, 0.0293736
-0.7890625, 0.0146484, -0.2827148, -17.5, -18.0487804, 5.1829271, 0.0213169
-0.793457, 0.0014648, -0.2856445, -16.5243912, -15.6707325, 4.3292685, 0.0142672
-0.8129883, -0.0043945, -0.3286133, -15.9146347, -15.6707325, 3.5975611, 0.0115816
-0.8164062, -0.0039062, -0.3515625, -14.8170738, -17.0731716, 3.2317073, -0.0015106
-0.8071289, 0.0273438, -0.3745117, -14.5121956, -17.6219521, 3.0487804, -0.0256809
-0.7910156, 0.0366211, -0.3745117, -12.9878054, -17.3170738, 2.3780489, -0.0451514
-0.7680664, 0.0517578, -0.3598633, -12.6829271, -15.7926836, 2.5, -0.0760357
-0.7583008, 0.0527344, -0.3535156, -12.5, -12.3170738, 2.0121951, -0.1237049
-0.7470703, 0.0439453, -0.3383789, -12.6829271, -9.5121956, 1.1585366, -0.1720455
-0.7592773, 0.034668, -0.3349609, -12.2560978, -8.5365858, 0.9146342, -0.1999084
-0.7641602, 0.0249023, -0.3461914, -11.4634151, -7.3780489, 0.5487805, -0.2099794
-0.7705078, 0.0039062, -0.3701172, -10.5487804, -7.4390244, 0.9146342, -0.2183719
-0.7631836, 0.0073242, -0.3876953, -8.4756098, -6.1585369, 1.4634147, -0.2177005
-0.7504883, 0.0151367, -0.4121094, -7.5609756, -4.8170733, 1.402439, -0.1854734
-0.7416992, 0.0180664, -0.4067383, -5.9756098, -1.8292683, 0, -0.1331044
-0.71875, 0.0234375, -0.3520508, -5.1829271, -0.4268293, -0.7317073, -0.0788891
-0.7094727, 0.0288086, -0.3154297, -3.5975611, 3.1707318, -2.7439024, -0.026688
-0.7207031, 0.0371094, -0.3081055, -3.4756098, 5.1219511, -3.9634147, 0.0208133
-0.7460938, 0.0424805, -0.3452148, -5, 8.2926826, -5.609756, 0.0495155
-0.7758789, 0.0517578, -0.4326172, -7.1951222, 7.4390244, -5.5487804, 0.0693217
-0.762207, 0.0478516, -0.4404297, -7.9268293, 6.2195125, -5.1829271, 0.0847639
-0.734375, 0.0454102, -0.4116211, -6.9512196, 5.5487804, -4.8170733, 0.079057
-0.6811523, 0.0268555, -0.3349609, -5.7317076, 7.3170733, -4.9390244, 0.0582437
-0.6660156, 0.0219727, -0.3139648, -3.2317073, 13.7195129, -6.8292685, 0.0438087
-0.6811523, 0.0024414, -0.3310547, -2.3780489, 16.6463413, -7.6219516, 0.0240024
-0.703125, -0.0097656, -0.3583984, -1.1585366, 19.4512196, -8.1707315, 0.0256809
-0.7236328, -0.0244141, -0.3989258, -0.2439024, 19.3292694, -7.7439027, 0.0347448
-0.7260742, -0.0263672, -0.3984375, 2.6219513, 19.1463413, -7.1341467, 0.0441444
-0.7041016, -0.0039062, -0.3691406, 7.3780489, 21.3414631, -7.5609756, 0.0649577
-0.6987305, 0.0097656, -0.3652344, 9.3292685, 23.9024391, -7.9268293, 0.0782177
-0.6977539, 0.0332031, -0.390625, 10.6707315, 28.5975609, -9.4512196, 0.0649577
-0.7050781, 0.0478516, -0.4023438, 10.060976, 30, -9.6951218, 0.0471656
-0.703125, 0.0483398, -0.3896484, 8.2926826, 30.7317085, -10.1829271, 0.030045
-0.6982422, 0.0483398, -0.3447266, 7.8658538, 30.9756107, -10.6097565, 0.0065461
-0.6918945, 0.0410156, -0.3325195, 7.1951222, 31.8902454, -12.0121956, -0.0169528
-0.6943359, 0.0205078, -0.355957, 7.6219516, 32.8658562, -12.5, -0.0323949
-0.7006836, 0.0087891, -0.3837891, 8.1707315, 34.0853653, -12.8658543, -0.0518654
-0.6972656, 0.0126953, -0.4399414, 8.5975609, 34.3902435, -12.560976, -0.0626078
-0.6831055, 0.0224609, -0.456543, 9.1463413, 34.5121956, -12.6219511, -0.0757
-0.6499023, 0.0478516, -0.4365234, 9.8170738, 36.9512215, -13.4756098, -0.0874495
-0.6357422, 0.0522461, -0.4057617, 9.8780489, 39.2073174, -14.0243902, -0.0985275
-0.6220703, 0.0532227, -0.3603516, 10.3048782, 44.6341476, -15.4268293, -0.093492
-0.6455078, 0.0478516, -0.359375, 10.1219511, 47.0121956, -15.9756098, -0.100206
-0.6591797, 0.0439453, -0.3686523, 9.1463413, 49.3292694, -16.4024391, -0.1317617
-0.690918, 0.0327148, -0.390625, 8.6585369, 49.5121956, -16.4024391, -0.1592889
-0.7045898, 0.0214844, -0.4072266, 7.4390244, 48.7195129, -16.8902435, -0.1817807
-0.7060547, -0.0043945, -0.4433594, 6.7682929, 47.8658562, -16.4024391, -0.1807736
-0.6977539, -0.0112305, -0.4648438, 8.1707315, 46.8902435, -14.3902445, -0.1626459
-0.6635742, -0.0180664, -0.5126953, 9.7560978, 46.9512215, -13.4146347, -0.1332723
-0.6342773, -0.0087891, -0.5263672, 14.1463413, 48.6585388, -12.9268293, -0.1012131
-0.5810547, -0.0004883, -0.515625, 17.8658543, 54.1463432, -13.2317076, -0.0574044
-0.5517578, 0.0039062, -0.4936523, 19.0243912, 57.7439041, -13.9024391, -0.0209812
-0.534668, 0.0039062, -0.4589844, 18.9024391, 65.2439041, -15.8536587, 0.0092317
-0.5639648, 0.0224609, -0.46875, 18.3536587, 68.7804871, -16.6463413, 0.0280308
-0.5830078, 0.0375977, -0.4868164, 15.9756098, 72.9268341, -17.0121956, 0.040116
-0.6323242, 0.0639648, -0.5307617, 14.8170738, 73.2926865, -16.5853653, 0.0421302
-0.6508789, 0.0649414, -0.5439453, 13.6585369, 73.2317123, -15.8536587, 0.0352483
-0.6455078, 0.0458984, -0.5390625, 13.5975609, 72.8658524, -15.1219511, 0.0354162
-0.6342773, 0.0229492, -0.53125, 13.5365858, 73.3536606, -13.4146347, 0.03122
-0.6079102, -0.0263672, -0.5214844, 14.0243902, 74.2073212, -13.0487804, 0.0172885
-0.5898438, -0.0493164, -0.5205078, 15.4268293, 76.4634171, -13.3536587, 0.0139315
-0.5771484, -0.0766602, -0.5136719, 17.8658543, 79.0243912, -14.1463413, 0.0031891
-0.574707, -0.0751953, -0.5107422, 19.2073174, 80.18293, -14.7560978, -0.0078889
-0.5751953, -0.0512695, -0.4995117, 22.0121956, 82.6219559, -16.280489, -0.0115816
-0.5927734, -0.0131836, -0.4941406, 23.1707325, 83.7195129, -17.3170738, -0.014435
-0.6044922, -0.0048828, -0.4995117, 24.0853672, 85.3658524, -18.4756107, -0.0226596
-0.6245117, -0.0073242, -0.5087891, 23.6585369, 85.7317123, -18.780489, -0.030045
-0.6328125, -0.0166016, -0.5058594, 22.1951218, 85.6707306, -19.2073174, -0.0461585
-0.6391602, -0.0361328, -0.4628906, 21.4024391, 85.18293, -19.2073174, -0.0686503
-0.6347656, -0.0537109, -0.434082, 22.8048782, 83.4756088, -21.1585369, -0.1079271
-0.6323242, -0.0800781, -0.3994141, 23.9634151, 82.7439041, -22.560976, -0.1555962
-0.6425781, -0.0913086, -0.4121094, 26.0365868, 80.7317123, -25.2439022, -0.1896696
-0.6601562, -0.0922852, -0.4672852, 25.6097565, 78.7195129, -26.7682934, -0.2123293
-0.6694336, -0.0825195, -0.487793, 25.3048782, 77.1341476, -26.8902454, -0.2720836
-0.6635742, -0.0419922, -0.4804688, 25.2439022, 74.4512177, -27.4390259, -0.2989395
-0.6347656, 0.0200195, -0.46875, 25.4878063, 73.4756088, -28.3536587, -0.269398
-0.6303711, 0.046875, -0.5004883, 23.8414631, 74.6951218, -30.1219521, -0.2324712
-0.6396484, 0.0737305, -0.625, 21.2195129, 76.2804871, -30.2439022, -0.1837949
-0.640625, 0.081543, -0.6772461, 13.9024391, 77.1341476, -27.2560978, -0.0961776
-0.6010742, 0.0874023, -0.7358398, 10.8536587, 76.5243912, -24.8780499, -0.0015106
-0.5644531, 0.0849609, -0.7382812, 7.0121951, 76.2804871, -21.5243912, 0.0837568
-0.4829102, 0.0551758, -0.7231445, 7.2560978, 77.2560959, -20.6097565, 0.1388113
-0.4404297, 0.019043, -0.7270508, 10.7926836, 82.2560959, -18.5975609, 0.1660029
-0.3876953, -0.0371094, -0.7255859, 15.7926836, 89.6951218, -16.4634151, 0.1844663
-0.3696289, -0.0581055, -0.7202148, 17.8658543, 94.0853653, -15.3658543, 0.1965515
-0.3525391, -0.081543, -0.6791992, 20.8536587, 104.3902435, -14.6951227, 0.2012512
-0.3828125, -0.1005859, -0.6455078, 21.8902435, 109.8780518, -15.060976, 0.1931945
-0.4199219, -0.1137695, -0.6435547, 22.3170738, 117.4390259, -17.0121956, 0.1824521
-0.5146484, -0.1494141, -0.668457, 22.1341476, 119.2073212, -18.1097565, 0.1488823
-0.5605469, -0.1645508, -0.6811523, 22.3170738, 118.2317123, -19.6341476, 0.1062486
-0.6206055, -0.1831055, -0.6870117, 23.2926826, 116.646347, -19.939024, 0.0728466
-0.6357422, -0.1723633, -0.6772461, 26.4634151, 112.9268341, -21.9512196, 0.0414588
-0.6328125, -0.1577148, -0.6464844, 28.3536587, 111.5853653, -22.8658543, 0.0250095
-0.6254883, -0.1479492, -0.6230469, 31.1585369, 110.1219559, -27.560976, 0.0146029
-0.6020508, -0.1391602, -0.5830078, 32.6219521, 109.0243912, -32.3780479, 0.0031891
-0.5922852, -0.144043, -0.5712891, 32.7439041, 107.6219559, -34.8170738, -0.0015106
-0.5800781, -0.1586914, -0.5874023, 32.5609779, 103.4756088, -38.9634171, -0.0193027
-0.5771484, -0.1772461, -0.6469727, 32.0731697, 100.7926865, -39.8780479, -0.0421302
-0.5673828, -0.1850586, -0.6816406, 31.9512196, 96.5853653, -41.0975609, -0.0649577
-0.5439453, -0.1831055, -0.7504883, 32.3170738, 95, -40.8536606, -0.0911421
-0.5327148, -0.1655273, -0.7709961, 35.3658562, 95, -39.9390259, -0.1082628
-0.4926758, -0.0986328, -0.7705078, 37.2560997, 96.646347, -39.5121956, -0.1089342
-0.4707031, -0.0581055, -0.7451172, 41.1585388, 102.1341476, -38.841465, -0.0918135
-0.4482422, 0.0039062, -0.6899414, 42.5609779, 105.3658524, -38.9634171, -0.0693217
-0.449707, 0.027832, -0.6713867, 43.4756126, 110.7926865, -39.9390259, -0.0391089
-0.4833984, 0.0249023, -0.675293, 40.9146347, 113.0487823, -38.7195129, -0.005539
-0.512207, 0.0083008, -0.6958008, 38.4146347, 112.4390259, -37.0121956, 0.0172885
-0.5742188, -0.0424805, -0.746582, 32.2560997, 109.6951218, -32.5609779, 0.0213169
-0.6005859, -0.0825195, -0.7910156, 30.1219521, 107.8048782, -29.8780499, 0.0166171
-0.5981445, -0.0922852, -0.8051758, 27.6829281, 104.6341476, -25.7926826, -0.0099031
-0.5703125, -0.1191406, -0.8305664, 27.5, 103.7195129, -24.6951218, -0.0787213
-0.5473633, -0.1347656, -0.8417969, 26.8292694, 104.0243912, -23.4146347, -0.1359579
-0.496582, -0.1708984, -0.8486328, 26.4024391, 104.8170776, -22.8658543, -0.1421683
-0.4736328, -0.1855469, -0.8457031, 26.0365868, 107.1341476, -22.8658543, -0.093492
-0.4365234, -0.2290039, -0.8857422, 25.6097565, 108.7195129, -23.1097565, 0.0124208
-0.4199219, -0.2460938, -0.9331055, 24.5731716, 111.2804871, -24.3292694, 0.1273976
-0.4086914, -0.2626953, -1.0664062, 23.4756107, 114.7561035, -24.8780499, 0.2103151
-0.4013672, -0.2626953, -1.1147461, 23.4756107, 116.7073212, -24.6951218, 0.2596628
-0.355957, -0.2431641, -1.0883789, 23.3536587, 121.1585388, -24.6341476, 0.2546273
-0.2905273, -0.1967773, -0.9311523, 23.9634151, 124.0853653, -25.4268303, 0.2171969
-0.2734375, -0.159668, -0.8452148, 24.5731716, 132.0731812, -28.9024391, 0.1522393
-0.3168945, -0.0776367, -0.7094727, 24.0853672, 136.8292694, -31.5243912, 0.0847639
-0.3808594, -0.0385742, -0.6743164, 20.4268303, 143.1097565, -37.4390259, 0.0323949
-0.5571289, 0.012207, -0.6567383, 16.9512196, 142.7439117, -39.0243912, -0.0099031
-0.6416016, 0.015625, -0.6713867, 8.780488, 133.1097565, -39.5121956, -0.0464942
-0.7553711, -0.015625, -0.7392578, 4.6341462, 125.36586, -38.3536606, -0.0622721
-0.7797852, -0.0522461, -0.78125, -2.6829269, 109.4512253, -35, -0.0809033
-0.7524414, -0.1376953, -0.8520508, -6.4634147, 98.1097565, -31.4024391, -0.0864424
-0.7094727, -0.1855469, -0.8647461, -6.280488, 94.6341476, -30.1219521, -0.0740215
-0.581543, -0.2763672, -0.8310547, -3.2317073, 92.0731735, -28.5365868, -0.0565652
-0.4575195, -0.3232422, -0.7895508, -0.5487805, 93.1707306, -28.5365868, -0.0283665
-0.4067383, -0.3178711, -0.7890625, 4.6341462, 97.6219559, -30.1829281, 0.0011749
-0.3676758, -0.2739258, -0.8374023, 6.7682929, 100.3658524, -31.5853672, 0.0297093
-0.3637695, -0.2441406, -0.8833008, 9.4512196, 103.9634171, -33.9024391, 0.040116
-0.3823242, -0.1811523, -1.015625, 10, 104.3902435, -34.6341476, 0.0454871
-0.3901367, -0.1679688, -1.0957031, 8.841464, 104.0243912, -34.2682953, 0.0508583
-0.3779297, -0.1772461, -1.2197266, 7.7439027, 103.7195129, -33.1097565, 0.0466621
-0.3486328, -0.2148438, -1.2324219, 6.1585369, 105.9146347, -28.6585369, 0.0397803
-0.2802734, -0.3012695, -1.1459961, 9.0243902, 113.1097565, -24.1463413, 0.0327306
-0.2397461, -0.3349609, -1.0664062, 12.3170738, 118.3536606, -22.6829281, 0.0219883
-0.184082, -0.3598633, -0.8979492, 20.1829281, 130.8536682, -23.4146347, 0.0095674
-0.2275391, -0.3276367, -0.8222656, 23.2926826, 136.646347, -25.5487804, 0.0035248
-0.2929688, -0.2998047, -0.8227539, 26.9512196, 141.8902435, -31.9512196, 0.0038605
-0.4438477, -0.222168, -0.8608398, 27.3170738, 140.9146423, -34.5121956, 0.0105745
-0.5214844, -0.1845703, -0.8920898, 24.8780499, 134.2682953, -38.1097565, -0.002182
-0.6240234, -0.1132812, -0.9414062, 21.7073174, 130.6097565, -37.8048782, -0.0283665
-0.6411133, -0.0859375, -0.9677734, 16.6463413, 122.1341476, -35.1829262, -0.0565652
-0.6040039, -0.0839844, -0.972168, 14.6951227, 118.9634171, -34.2073174, -0.0807355
-0.5600586, -0.105957, -0.9609375, 11.219512, 115.0609818, -32.4390259, -0.0822461
-0.4379883, -0.1762695, -0.9213867, 7.9268293, 113.3536606, -31.8902454, -0.0780499
-0.3364258, -0.2426758, -0.9047852, 6.280488, 113.1097565, -31.6463413, -0.0887922
-0.2963867, -0.2631836, -0.9208984, 3.3536587, 112.5, -31.8292694, -0.1109483
-0.2426758, -0.2597656, -1.0175781, 2.3170731, 112.2561035, -32.0121956, -0.1143053
-0.2319336, -0.246582, -1.078125, 0.4878049, 110.6707306, -31.341465, -0.1122911
-0.2050781, -0.2124023, -1.1367188, -0.9146342, 110.4878082, -30.6097565, -0.1351186
-0.1796875, -0.1972656, -1.1103516, -2.6829269, 111.4024429, -29.4512196, -0.1438468
-0.1342773, -0.1733398, -0.9550781, -3.4146342, 113.2317123, -29.0853672, -0.1351186
-0.1274414, -0.1660156, -0.8847656, -4.6341462, 119.5121994, -30.7926846, -0.1210193
-0.1748047, -0.1567383, -0.8730469, -5.0609756, 122.3780518, -32.5, -0.115816
-0.2358398, -0.1625977, -0.9443359, -8.719512, 122.68293, -35.3048782, -0.0955062
-0.3496094, -0.2021484, -1.1499023, -14.2073174, 113.2317123, -33.7195129, -0.0686503
-0.3706055, -0.2792969, -1.2900391, -16.0365849, 107.2561035, -30.9756107, -0.0337377
-0.3374023, -0.3261719, -1.2915039, -16.6463413, 98.7195129, -23.8414631, -0.0142672
-0.1918945, -0.4150391, -1.1933594, -14.5731707, 98.9634171, -20.4878044, -0.0229953
-0.1079102, -0.4438477, -1.1176758, -6.5243902, 110.36586, -17.5, -0.0193027
0.0078125, -0.4423828, -0.9682617, -1.8292683, 119.7561035, -18.5365849, -0.018967
0.0175781, -0.421875, -0.9150391, 7.3170733, 136.5243988, -24.7560978, -0.0203098
-0.0483398, -0.3359375, -0.8583984, 10.7317076, 140.4268341, -29.3902454, -0.0421302
-0.1201172, -0.2832031, -0.859375, 14.6341467, 138.1097565, -37.8048782, -0.0626078
-0.2758789, -0.1982422, -0.9116211, 14.6341467, 133.7195129, -40.7317085, -0.0713359
-0.3461914, -0.171875, -0.9589844, 12.0121956, 122.86586, -40.3658562, -0.0715038
-0.4335938, -0.1577148, -1.050293, 7.8658538, 113.4756088, -34.8170738, -0.0991989
-0.4150391, -0.190918, -1.1044922, 5.9756098, 110.2439041, -30.7926846, -0.1284047
-0.3706055, -0.2197266, -1.1074219, 5.0609756, 107.0121994, -23.3536587, -0.1683528
-0.2275391, -0.2758789, -1.0942383, 5.3048782, 107.1951218, -21.0975609, -0.194873
-0.1479492, -0.300293, -1.0913086, 8.1097565, 110.0609818, -19.8780499, -0.1841306
-0.0297852, -0.3349609, -1.0732422, 9.6341467, 112.7439041, -20.3658543, -0.1660029
0.0078125, -0.3461914, -1.0498047, 12.7439032, 117.3170776, -21.7682934, -0.1143053
0.0483398, -0.3325195, -0.9682617, 14.0853662, 119.4512253, -22.5, -0.0377661
0.0463867, -0.2983398, -0.9360352, 16.280489, 123.2317123, -24.5121956, 0.0164492
-0.0200195, -0.1860352, -0.9042969, 16.8292694, 124.8780518, -25.9756107, 0.0574044
-0.0800781, -0.1225586, -0.9130859, 16.5243912, 124.9390259, -28.2317085, 0.0944991
-0.2075195, -0.0400391, -0.9492188, 12.2560978, 118.9024429, -28.780489, 0.1196765
-0.2973633, -0.0356445, -0.9887695, 8.0487804, 113.7195129, -27.3780499, 0.1300832
-0.3120117, -0.0673828, -0.9985352, -1.2195122, 102.6219559, -23.0487804, 0.1488823
-0.2851562, -0.1582031, -0.9858398, -5.609756, 97.68293, -20.6707325, 0.1421683
-0.2543945, -0.2026367, -0.9663086, -12.1341467, 91.5243912, -17.2560978, 0.1156481
-0.1801758, -0.2587891, -0.9091797, -13.6585369, 90.0609741, -16.7682934, 0.0956741
-0.1484375, -0.2641602, -0.8769531, -13.2317076, 89.3292694, -18.5975609, 0.0730144
-0.1103516, -0.25, -0.8154297, -11.9512196, 89.3292694, -20.3048782, 0.040116
-0.1083984, -0.2333984, -0.7998047, -9.7560978, 87.68293, -25, 0.0008392
-0.1337891, -0.2080078, -0.8295898, -9.0243902, 83.8414688, -27.6829281, -0.0219883
-0.1474609, -0.2036133, -0.9008789, -9.3902445, 81.0975647, -28.2926826, -0.0535439
-0.1713867, -0.2158203, -1.1669922, -12.8048782, 77.3780518, -25.2439022, -0.0773785
-0.1494141, -0.2807617, -1.440918, -14.3902445, 76.4024429, -22.1951218, -0.0991989
-0.1074219, -0.3334961, -1.4960938, -14.5731707, 75.4268341, -14.0243902, -0.1050736
0.0654297, -0.4633789, -1.4213867, -12.2560978, 76.7073212, -10.1219511, -0.1084306
0.1728516, -0.5209961, -1.3164062, -2.7439024, 89.2682953, -5.4268293, -0.0944991
0.3569336, -0.5737305, -1.1044922, 3.4146342, 101.0975647, -5.3048782, -0.0686503
0.3886719, -0.574707, -1.03125, 16.3414631, 130.36586, -11.0975609, -0.079057
0.3364258, -0.5205078, -0.9580078, 22.6829281, 142.5609741, -16.2195129, -0.1257191
0.2607422, -0.4731445, -0.9555664, 33.841465, 151.2804871, -28.3536587, -0.1438468
0.0683594, -0.3554688, -0.9833984, 39.5121956, 142.5609741, -37.8658562, -0.1895018
-0.0273438, -0.2885742, -1.0058594, 40.2439041, 135.6707306, -40.5487823, -0.2364996
-0.1865234, -0.1577148, -1.0415039, 36.7682953, 126.1585388, -41.7682953, -0.2395209
-0.2714844, -0.0610352, -1.0932617, 33.841465, 124.146347, -39.9390259, -0.2217288
-0.2817383, -0.0351562, -1.1386719, 24.9390259, 123.1707382, -33.9024391, -0.1777523
-0.2226562, -0.0385742, -1.2353516, 19.3902435, 122.9268341, -30.060976, -0.1173266
-0.1591797, -0.0639648, -1.2661133, 7.9878049, 120.9146347, -23.6585369, -0.079057
0.0039062, -0.1376953, -1.2353516, 2.9878049, 119.8780518, -21.4634151, -0.0703288
0.09375, -0.1723633, -1.1772461, -4.2073174, 119.9390259, -18.7195129, -0.0619364
0.2529297, -0.2294922, -0.9833984, -6.0975609, 121.8902435, -18.1097565, -0.018967
0.300293, -0.2441406, -0.8876953, -5.5487804, 127.9268341, -19.0243912, 0.0795605
0.2929688, -0.2392578, -0.7504883, -2.5, 132.86586, -22.439024, 0.2083009
0.2333984, -0.2280273, -0.7314453, -0.8536586, 132.8048859, -24.0243912, 0.3341878
0.0507812, -0.1782227, -0.7929688, 0.5487805, 126.0365906, -25.7926826, 0.4221408
-0.1411133, -0.1430664, -0.9389648, 0.3658537, 120.4878082, -25.1219521, 0.4412757
-0.2041016, -0.1416016, -1.0151367, -2.6219513, 108.2317123, -20.060976, 0.4127413
-0.2304688, -0.1791992, -1.1425781, -5.3658538, 103.4146347, -16.4024391, 0.3546654
-0.1884766, -0.215332, -1.1860352, -11.8902445, 96.7682953, -8.719512, 0.2764477
-0.0375977, -0.3237305, -1.1801758, -14.2073174, 95.3048782, -5.9146342, 0.199237
0.0566406, -0.3725586, -1.1367188, -16.3414631, 95.7926865, -3.5975611, 0.1008774
0.2368164, -0.4414062, -1.03125, -15, 98.2926865, -4.0853658, 0.0209812
0.2983398, -0.4536133, -0.9902344, -9.0243902, 105.9756088, -7.6829271, -0.0498512
0.3496094, -0.4526367, -0.9711914, 0.4268293, 113.0487823, -12.9268293, -0.1075914
0.3427734, -0.4428711, -0.9912109, 5.1829271, 114.5731735, -15.1829271, -0.1270619
0.2783203, -0.4155273, -1.0625, 12.7439032, 114.3902435, -18.1707325, -0.1015488
0.1992188, -0.3720703, -1.1494141, 15.2439032, 114.0853653, -18.780489, -0.0746929
0.1655273, -0.3481445, -1.1816406, 17.9268303, 114.6951218, -18.2317085, -0.057908
0.1230469, -0.2880859, -1.21875, 17.9878044, 116.2195129, -17.6219521, -0.0518654
0.125, -0.2612305, -1.2060547, 17.7439022, 120.4268341, -16.0365849, -0.064622
0.1606445, -0.2431641, -1.1274414, 16.8902435, 121.9512253, -15.8536587, -0.0710002
0.1787109, -0.2460938, -1.0698242, 14.8170738, 124.7561035, -16.0365849, -0.0605936
0.2070312, -0.2753906, -0.9824219, 13.841464, 125.18293, -16.8902435, -0.0485084
0.2045898, -0.2866211, -0.9726562, 11.8292685, 124.8170776, -18.4146347, -0.0243381
0.1728516, -0.3012695, -1.0302734, 10.3048782, 120.9146347, -19.3292694, 0.0070497
0.1523438, -0.3105469, -1.0761719, 10.4878054, 117.9268341, -19.0853672, 0.026688
0.1430664, -0.324707, -1.1298828, 11.219512, 111.0975647, -17.1341476, 0.0508583
0.1923828, -0.3452148, -1.0913086, 11.8292685, 109.2682953, -15.9146347, 0.0602579
0.2329102, -0.3544922, -1.0473633, 12.7439032, 110.7317123, -14.3902445, 0.0616007
0.2915039, -0.347168, -0.9873047, 13.2317076, 113.6585388, -14.0853662, 0.0699931
0.3007812, -0.3369141, -0.9858398, 14.9390249, 120.0609818, -16.2195129, 0.0730144
0.2661133, -0.3139648, -1.0429688, 15.3658543, 121.4024429, -17.6829281, 0.0609293
0.2490234, -0.2958984, -1.0683594, 16.2195129, 118.9634171, -19.6341476, 0.0535439
0.2299805, -0.2460938, -1.0566406, 15.6707325, 116.4634171, -20.060976, 0.0481727
0.2304688, -0.2182617, -1.0087891, 14.6951227, 113.2317123, -20.4268303, 0.0347448
0.2363281, -0.1616211, -0.9111328, 12.3780489, 114.5121994, -21.2195129, 0.0250095
0.2216797, -0.1469727, -0.8984375, 10.8536587, 116.2195129, -21.4634151, 0.0072175
0.1640625, -0.1572266, -0.96875, 6.3414636, 115.9756088, -21.3414631, -0.0041962
0.1166992, -0.2324219, -1.0654297, 3.5975611, 112.5609818, -20.2439022, -0.0146029
0.1235352, -0.2875977, -1.0844727, -0.7317073, 102.5609818, -16.2195129, -0.0206455
0.2070312, -0.4082031, -1.0649414, -2.0731707, 98.0487823, -14.0853662, -0.0297093
0.2646484, -0.4584961, -1.0512695, -0.3048781, 96.5853653, -10.7926836, -0.0273594
0.3588867, -0.5112305, -1.0483398, 2.3170731, 99.2073212, -9.9390249, -0.0297093
0.3901367, -0.5151367, -1.0537109, 11.280488, 107.3780518, -11.8292685, -0.0421302
0.421875, -0.5, -1.0649414, 16.2195129, 110.4268341, -13.5975609, -0.0555581
0.4287109, -0.4819336, -1.0625, 24.3292694, 113.2317123, -17.8048782, -0.0720073
0.4262695, -0.4428711, -1.0341797, 28.9024391, 113.1707306, -21.9512196, -0.0762036
0.4189453, -0.421875, -1.0092773, 29.9390259, 113.2317123, -23.8414631, -0.0800641
0.3808594, -0.3657227, -0.9536133, 30.9756107, 113.7195129, -26.9512196, -0.082414
0.3212891, -0.296875, -0.9277344, 31.1585369, 114.146347, -28.3536587, -0.0928206
0.2797852, -0.2626953, -0.9433594, 30.7317085, 113.1707306, -30.1829281, -0.1374685
0.2006836, -0.2089844, -1.0332031, 30.5487804, 111.7682953, -29.9390259, -0.1767453
0.1767578, -0.1987305, -1.1010742, 29.1463413, 108.4756088, -26.7073174, -0.1975586
0.1962891, -0.2148438, -1.2216797, 27.560976, 106.9512253, -23.4756107, -0.2130007
0.2368164, -0.2314453, -1.2587891, 22.9878063, 106.0975647, -16.2195129, -0.2076295
0.3803711, -0.2578125, -1.246582, 20.3658543, 107.8658524, -12.9268293, -0.1827878
0.4599609, -0.2646484, -1.1933594, 16.2195129, 115.2439041, -9.8170738, -0.1720455
0.5961914, -0.2387695, -1.0297852, 13.6585369, 124.146347, -13.4756098, -0.1807736
0.6298828, -0.215332, -0.9526367, 12.3170738, 127.86586, -16.7682934, -0.2130007
0.5869141, -0.1831055, -0.8813477, 8.6585369, 131.0975647, -23.1097565, -0.2425422
0.4482422, -0.1733398, -0.96875, 5.609756, 129.6341553, -24.2682934, -0.2472419
0.3720703, -0.1801758, -1.0366211, -2.5, 122.1951218, -23.2317085, -0.2284428
0.2763672, -0.2382812, -1.1464844, -7.0121951, 117.9268341, -20.4878044, -0.1921874
0.2724609, -0.2802734, -1.1640625, -12.9268293, 111.2195129, -14.4512196, -0.1378042
0.3442383, -0.3842773, -1.1088867, -14.2682934, 109.8170776, -11.5243902, -0.0641184
0.4013672, -0.4296875, -1.065918, -13.4146347, 113.0487823, -9.2682924, 0.0075532
0.5009766, -0.4746094, -0.9921875, -11.4634151, 116.7682953, -10.4268293, 0.064622
0.5273438, -0.4726562, -0.9638672, -6.7682929, 124.2682953, -15.6707325, 0.0904707
0.5341797, -0.4291992, -0.8920898, -2.2560976, 124.6951218, -22.0121956, 0.110277
0.5136719, -0.3984375, -0.84375, -0.7317073, 122.68293, -25.060976, 0.1215229
0.4638672, -0.3461914, -0.7475586, 0.7317073, 116.7073212, -29.2073174, 0.1354543
0.3691406, -0.3110352, -0.7197266, 1.1585366, 113.7195129, -30.1219521, 0.1512322
0.3154297, -0.2924805, -0.7470703, 0.6097561, 108.1707306, -30.4878063, 0.1554284
0.2177734, -0.2714844, -0.8813477, -0.1219512, 105, -29.5121956, 0.1421683
0.1923828, -0.2685547, -0.9604492, -1.2804878, 98.4146347, -25.4878063, 0.1156481
0.2338867, -0.2895508, -1.0537109, -1.7073171, 95.0609741, -22.7439022, 0.0924849
0.3017578, -0.3095703, -1.065918, -0.3048781, 91.0975647, -17.439024, 0.0649577
0.4794922, -0.3710938, -1.0483398, 1.6463414, 91.5853653, -15.4878054, 0.0448157
0.5585938, -0.4023438, -1.0380859, 6.7073174, 97.8048782, -14.1463413, 0.0421302
0.6782227, -0.4448242, -1.0229492, 11.9512196, 107.0121994, -14.7560978, 0.0433051
0.7075195, -0.4482422, -1.03125, 13.9024391, 110.7317123, -16.2195129, 0.0528725
0.706543, -0.4370117, -1.0825195, 16.4024391, 116.0365906, -19.2682934, 0.054551
0.6606445, -0.4277344, -1.1333008, 16.5243912, 117.3780518, -20.4268303, 0.0562295
0.6352539, -0.4208984, -1.1469727, 15.3658543, 118.9024429, -21.8902435, 0.0525368
0.6020508, -0.3828125, -1.0952148, 15.060976, 119.9390259, -22.1951218, 0.0421302
0.5917969, -0.3598633, -1.0283203, 15.4878054, 123.1707382, -24.2073174, 0.0394446
0.5751953, -0.2895508, -0.8681641, 16.4634151, 124.9390259, -25.6097565, 0.0359197
0.5517578, -0.2583008, -0.8144531, 18.5365849, 128.5365906, -28.6585369, 0.0276951
0.4677734, -0.2021484, -0.8320312, 18.4756107, 129.146347, -29.8780499, 0.0112459
0.4091797, -0.1923828, -0.8974609, 14.0853662, 126.0975647, -29.2073174, -0.0102388
0.3500977, -0.2182617, -1.0351562, 5.0609756, 116.3414688, -24.5731716, -0.0283665
0.3613281, -0.2529297, -1.0620117, 0.8536586, 110.9756088, -21.4024391, -0.0412909
0.4716797, -0.3320312, -1.0024414, -3.9024391, 105.6707306, -16.8292694, -0.0733501
0.6132812, -0.3730469, -0.8608398, -3.7195122, 106.2195129, -16.5853653, -0.1096056
0.6577148, -0.3681641, -0.7988281, -0.2439024, 112.1951218, -19.3292694, -0.142504
0.65625, -0.3164062, -0.746582, 1.9512196, 115.4878082, -21.6463413, -0.1485466
0.6166992, -0.2802734, -0.7529297, 3.5975611, 116.5853653, -26.4024391, -0.1589532
0.5131836, -0.2192383, -0.8212891, 2.804878, 114.2073212, -27.3780499, -0.1834592
0.4672852, -0.2016602, -0.8798828, -3.4146342, 106.2195129, -26.1585369, -0.184802
0.4326172, -0.2099609, -0.9980469, -7.7439027, 102.2561035, -24.3292694, -0.1686885
0.4458008, -0.2338867, -1.0263672, -15.6097565, 95.8536606, -19.939024, -0.142504
0.5371094, -0.3374023, -1.0019531, -19.0243912, 93.1097565, -17.8658543, -0.0914778
0.6552734, -0.4350586, -0.8901367, -18.5365849, 93.1097565, -17.7439022, -0.0344091
0.703125, -0.4707031, -0.8286133, -14.3292685, 96.2804871, -21.0365868, 0.0149386
0.7260742, -0.4882812, -0.7807617, -11.280488, 99.3902435, -22.7439022, 0.0290379
0.7026367, -0.4770508, -0.8173828, -4.9390244, 104.9390259, -26.6463413, 0.014435
0.6240234, -0.4291992, -0.965332, -2.7439024, 105.5487823, -27.8658543, -0.012253
0.5986328, -0.4111328, -1.0234375, 0.0609756, 102.3170776, -28.9024391, -0.0397803
0.5976562, -0.4243164, -1.0371094, 0.7317073, 99.0853653, -28.7195129, -0.1096056
0.6259766, -0.453125, -0.9746094, 2.5, 94.9390259, -28.780489, -0.2156863
0.6938477, -0.4897461, -0.8056641, 3.8414636, 95.6707306, -29.4512196, -0.2838331
0.7075195, -0.487793, -0.7397461, 9.8780489, 102.7439041, -33.1097565, -0.297261
0.6513672, -0.4072266, -0.7329102, 17.5, 109.9390259, -36.5243912, -0.2975967
0.5307617, -0.2758789, -0.8808594, 20.2439022, 110.5487823, -37.8658562, -0.2373388
0.4853516, -0.2138672, -0.9716797, 21.2195129, 107.3170776, -37.5, -0.1435111
0.4731445, -0.1533203, -1.1142578, 19.1463413, 104.3902435, -35.7926826, -0.0471656
0.5170898, -0.1601562, -1.1352539, 11.8292685, 100.3658524, -30, 0.0448157
0.6572266, -0.2280273, -1.1171875, 7.6829271, 100.8536606, -27.1951218, 0.1082628
0.7368164, -0.2729492, -1.0869141, 2.8658538, 106.4024429, -22.9268303, 0.1421683
0.8681641, -0.3383789, -1.0205078, 2.0731707, 110.6097565, -21.5243912, 0.1811093
0.9086914, -0.362793, -0.9829102, 3.2926829, 118.1097565, -21.8902435, 0.2005798
0.9311523, -0.3666992, -0.8964844, 5.0609756, 121.2195129, -22.5, 0.1999084
0.9106445, -0.3505859, -0.8618164, 8.1097565, 124.3902435, -23.9634151, 0.1905089
0.8208008, -0.2988281, -0.8295898, 9.5121956, 125.4268341, -25.1829281, 0.1797665
0.6914062, -0.2387695, -0.871582, 8.9634151, 125.18293, -25.6707325, 0.1690242
0.6337891, -0.2270508, -0.8999023, 6.0365853, 120.6707382, -24.6951218, 0.1535821
0.5717773, -0.2695312, -0.9086914, 4.1463413, 117.4390259, -23.4146347, 0.1361257
0.5820312, -0.3081055, -0.878418, 1.0365853, 110.9756088, -20, 0.1126268
0.640625, -0.3964844, -0.7641602, 0.4268293, 108.7195129, -18.4756107, 0.0716716
0.6796875, -0.4272461, -0.7026367, 2.6219513, 107.5, -18.2926826, 0.0164492
0.7075195, -0.4150391, -0.6391602, 4.8170733, 107.9878082, -19.2073174, -0.0347448
0.6943359, -0.3740234, -0.6386719, 11.0975609, 107.9268341, -22.6219521, -0.0673075
0.6391602, -0.2880859, -0.684082, 13.4146347, 106.0365906, -24.3292694, -0.0894636
0.6118164, -0.2543945, -0.7124023, 14.8170738, 99.6341476, -25.4268303, -0.096849
0.6049805, -0.2246094, -0.7539062, 11.6463413, 93.0487823, -24.1463413, -0.0976883
0.6381836, -0.2587891, -0.7768555, 8.3536587, 90.6707306, -22.9878063, -0.0914778
0.6630859, -0.2949219, -0.7880859, 2.9268293, 86.9512253, -21.4024391, -0.0726787
0.7138672, -0.3710938, -0.8125, 1.2195122, 85.8536606, -21.3414631, -0.070161
0.7353516, -0.4018555, -0.8212891, 0.9756098, 84.6341476, -22.3170738, -0.0928206
0.7763672, -0.4267578, -0.8486328, 2.1341465, 84.7560959, -22.7439022, -0.1361257
0.7910156, -0.4267578, -0.859375, 7.0121951, 87.2560959, -24.6341476, -0.1700313
0.8120117, -0.4121094, -0.859375, 9.8170738, 89.2073212, -25.6707325, -0.1609674
0.8149414, -0.3964844, -0.84375, 14.0243902, 94.5121994, -27.4390259, -0.103563
0.8085938, -0.3564453, -0.7915039, 15.4878054, 97.0121994, -28.4756107, -0.0243381
0.7900391, -0.3393555, -0.7631836, 17.6219521, 100.5487823, -30.6097565, 0.0528725
0.7299805, -0.315918, -0.7255859, 17.560976, 101.3414688, -32.6219521, 0.1092699
0.6606445, -0.3100586, -0.7236328, 16.8292694, 100.1219559, -32.8658562, 0.1408255
0.6347656, -0.3037109, -0.7421875, 15.3658543, 96.5243912, -32.3780479, 0.1139696
0.6176758, -0.2890625, -0.7988281, 14.3292685, 94.6951218, -31.7073174, 0.0501869
0.6206055, -0.2783203, -0.8339844, 12.0731707, 92.3780518, -29.8170738, -0.0297093
0.6708984, -0.2382812, -0.8989258, 11.0975609, 92.3780518, -29.2682934, -0.0985275
0.7109375, -0.21875, -0.9150391, 9.2073174, 94.6951218, -28.4756107, -0.1250477
0.8041992, -0.1977539, -0.9204102, 7.9878049, 97.1951218, -28.4756107, -0.1393149
0.8422852, -0.2050781, -0.9145508, 4.2073174, 102.9268341, -28.780489, -0.1252155
0.9008789, -0.2543945, -0.8730469, -0.9146342, 108.2317123, -28.4756107, -0.0861067
0.909668, -0.2822266, -0.8378906, -2.9268293, 110.4268341, -27.8658543, -0.0337377
0.9072266, -0.3432617, -0.746582, -4.5121951, 112.1951218, -26.9512196, -0.0035248
0.8603516, -0.3681641, -0.6464844, -3.9024391, 111.8902435, -26.8902454, 0.0092317
0.8237305, -0.3745117, -0.6074219, 0.3658537, 110.4878082, -27.3170738, 0.0327306
0.7290039, -0.3891602, -0.5947266, 2.9878049, 109.3902435, -27.7439022, 0.0387732
0.6835938, -0.3930664, -0.6352539, 6.9512196, 106.3414688, -27.4390259, 0.04448
0.6254883, -0.3881836, -0.7695312, 7.8048782, 104.7561035, -26.7073174, 0.0582437
0.625, -0.3955078, -0.8237305, 6.890244, 101.4024429, -25.1829281, 0.0377661
0.6835938, -0.4160156, -0.8310547, 6.280488, 99.5731735, -24.5121956, -0.0015106
0.746582, -0.4360352, -0.7773438, 7.6219516, 97.7439041, -24.6951218, -0.0555581
0.8759766, -0.4526367, -0.6054688, 13.0487804, 100.4878082, -26.4634151, -0.1381399
0.9179688, -0.4438477, -0.5283203, 16.5853653, 103.1707306, -28.0487804, -0.1938659
0.9057617, -0.3920898, -0.4614258, 22.6829281, 107.2561035, -30.7926846, -0.2022583
0.8081055, -0.324707, -0.4858398, 24.6951218, 106.5853653, -31.6463413, -0.1747311
0.7539062, -0.2944336, -0.5166016, 25.2439022, 98.4756088, -30.4268303, -0.119173
0.6831055, -0.2573242, -0.5703125, 24.4512196, 92.5, -29.2073174, -0.0619364
0.6855469, -0.2460938, -0.5976562, 21.9512196, 82.0731735, -25, -0.0276951
0.7270508, -0.2324219, -0.6362305, 20.6097565, 78.9024429, -23.0487804, -0.026688
0.7651367, -0.2192383, -0.6513672, 19.2073174, 76.1585388, -21.6463413, -0.005539
0.8510742, -0.2216797, -0.6616211, 19.0243912, 76.2195129, -21.7073174, 0.0038605
0.8925781, -0.2353516, -0.6616211, 18.9634151, 77.0121994, -22.560976, 0.0169528
0.9472656, -0.2553711, -0.6831055, 17.439024, 79.2073212, -22.8658543, 0.0293736
0.9614258, -0.2636719, -0.7036133, 16.3414631, 80.5487823, -22.2560978, 0.0381018
0.9633789, -0.2592773, -0.7700195, 12.560976, 82.9878082, -20.7926826, 0.0374304
0.9511719, -0.2470703, -0.8398438, 10.5487804, 83.9024429, -19.6951218, 0.0182956
0.9506836, -0.2412109, -0.862793, 5.3658538, 85.8536606, -17.7439022, 0.0005035
0.9711914, -0.2578125, -0.847168, 3.1097562, 86.5243912, -16.8902435, -0.0182956
0.9887695, -0.2802734, -0.8066406, -0.6097561, 89.5731735, -16.5853653, -0.0323949
1.0151367, -0.3481445, -0.7197266, -1.9512196, 91.4634171, -16.8902435, -0.047837
1.0107422, -0.3808594, -0.6806641, -3.4756098, 96.646347, -18.1097565, -0.061265
0.9790039, -0.4013672, -0.6601562, -4.0853658, 98.4756088, -18.8414631, -0.0565652
0.9458008, -0.4023438, -0.6811523, -4.2682929, 100.4268341, -19.8780499, -0.0461585
0.8950195, -0.3984375, -0.7338867, -4.2682929, 99.4512253, -20.060976, -0.0149386
0.8847656, -0.3999023, -0.7490234, -4.1463413, 98.4756088, -19.6341476, 0.0129244
0.9111328, -0.40625, -0.7128906, -2.9878049, 97.8658524, -19.8170738, 0.0394446
0.9609375, -0.3979492, -0.625, -2.0121951, 98.7195129, -20.3048782, 0.0787213
0.9760742, -0.3925781, -0.5942383, 1.097561, 102.4390259, -22.8048782, 0.10692
0.9594727, -0.3603516, -0.5708008, 2.5609756, 104.146347, -23.9634151, 0.1193408
0.934082, -0.3432617, -0.578125, 4.2073174, 104.8170776, -25.9146347, 0.1186694
0.8798828, -0.3227539, -0.6069336, 4.2682929, 103.4146347, -25.7317085, 0.1106126
0.8686523, -0.324707, -0.6088867, 2.9268293, 98.9024429, -23.8414631, 0.1022202
0.8818359, -0.3286133, -0.5927734, 2.3170731, 96.3414688, -22.8048782, 0.0871138
0.8999023, -0.3325195, -0.5698242, 2.2560976, 93.7804871, -21.7682934, 0.0777142
0.9389648, -0.3422852, -0.5161133, 4.0853658, 92.9878082, -22.1951218, 0.047837
0.949707, -0.3447266, -0.4858398, 5.9146342, 92.9878082, -23.1707325, -0.018967
0.9560547, -0.340332, -0.4414062, 8.4756098, 91.2804871, -25.2439022, -0.0924849
0.9272461, -0.3447266, -0.4414062, 9.4512196, 89.7560959, -25.9146347, -0.1438468
0.9082031, -0.3481445, -0.4541016, 10.3048782, 85.0609741, -25.060976, -0.1552605
0.8798828, -0.3574219, -0.4716797, 10.4268293, 82.7439041, -24.2682934, -0.1384756
0.8769531, -0.3564453, -0.4770508, 11.5853662, 78.4146347, -22.1951218, -0.0985275
0.8891602, -0.3476562, -0.4716797, 12.9878054, 77.0121994, -21.9512196, -0.0417945
0.9042969, -0.3393555, -0.4799805, 15.3048782, 74.8780518, -21.7682934, 0.0058747
0.925293, -0.3066406, -0.5424805, 16.3414631, 74.3902435, -22.0121956, 0.0357519
0.9384766, -0.2915039, -0.5810547, 14.6341467, 73.7195129, -22.0731716, 0.0198062
0.9741211, -0.2836914, -0.637207, 10.5487804, 72.4390259, -21.5853672, -0.0350805
1.0009766, -0.2939453, -0.6391602, 8.719512, 71.5243912, -20.8536587, -0.0970169
1.0673828, -0.3076172, -0.5913086, 6.4024391, 70.6707306, -19.3292694, -0.1418326
1.1083984, -0.3144531, -0.5195312, 6.890244, 70.9756088, -19.4512196, -0.1666743
1.1074219, -0.309082, -0.5029297, 8.5975609, 72.2560959, -19.3902435, -0.1683528
1.0727539, -0.2807617, -0.5146484, 8.5975609, 72.5609741, -19.0243912, -0.1388113
1.0429688, -0.2636719, -0.5336914, 6.3414636, 71.7682953, -17.3170738, -0.0894636
0.9960938, -0.2348633, -0.5571289, 4.0243902, 70.5487823, -16.0365849, -0.0464942
0.9902344, -0.2241211, -0.5576172, -0.9146342, 66.8292694, -13.6585369, -0.0085603
0.9892578, -0.2285156, -0.5302734, -2.6219513, 65.3048782, -12.7439032, 0.0320592
0.9946289, -0.237793, -0.5151367, -4.9390244, 63.6585388, -12.0731707, 0.0562295
1.0087891, -0.2646484, -0.4970703, -6.2195125, 63.4756126, -11.6463413, 0.0642863
1.0131836, -0.2792969, -0.5024414, -7.1951222, 63.5365868, -11.8292685, 0.0780499
1.0146484, -0.3046875, -0.512207, -8.719512, 62.0121956, -11.219512, 0.0817426
1.0146484, -0.3388672, -0.5087891, -9.2073174, 60.9756126, -11.0365858, 0.082414
1.0239258, -0.3525391, -0.4936523, -9.0853662, 59.2682953, -10.4268293, 0.0760357
1.0288086, -0.3764648, -0.4648438, -8.2317076, 58.7804909, -10.2439022, 0.0622721
1.0268555, -0.3774414, -0.4521484, -5.9146342, 59.4512215, -11.4024391, 0.0454871
1.0039062, -0.3793945, -0.4560547, -4.3292685, 59.8780518, -12.0731707, 0.0280308
0.9887695, -0.375, -0.4746094, -3.2317073, 59.9390259, -13.4146347, 0.0072175
0.9521484, -0.3530273, -0.5239258, -3.0487804, 60.0609779, -13.9024391, 0.0028534
0.9404297, -0.3422852, -0.5341797, -3.1097562, 59.8170738, -13.3536587, 0.0078889
0.9467773, -0.3139648, -0.5180664, -2.4390244, 59.8780518, -13.6585369, -0.0015106
0.9584961, -0.3066406, -0.4951172, -1.7073171, 60.1219521, -14.2682934, -0.0344091
0.9750977, -0.3022461, -0.4599609, 0.0609756, 61.1585388, -16.280489, -0.0647898
0.9628906, -0.3198242, -0.4707031, 0, 61.5243912, -17.0121956, -0.0928206
0.9521484, -0.3354492, -0.4975586, -2.3170731, 62.68293, -16.5853653, -0.1099413
0.9306641, -0.3588867, -0.546875, -4.0853658, 62.3780518, -15.7926836, -0.1042344
0.9267578, -0.3657227, -0.5522461, -5.9756098, 60.9146347, -14.5121956, -0.0877852
0.9526367, -0.3632812, -0.4975586, -5.2439027, 60.3048782, -14.0853662, -0.0740215
0.9702148, -0.3583984, -0.4555664, -1.5853659, 59.5121956, -14.8170738, -0.0649577
0.9858398, -0.3540039, -0.375, 0.8536586, 59.9390259, -15.7317076, -0.0931563
0.9814453, -0.3461914, -0.3569336, 4.2073174, 61.2195129, -17.0731716, -0.1371328
0.9404297, -0.3164062, -0.375, 2.804878, 60.6707344, -16.0365849, -0.184802
0.9174805, -0.3012695, -0.3959961, 1.5243902, 59.0243912, -15.060976, -0.2197147
0.8989258, -0.2666016, -0.4321289, -2.5, 54.2682953, -12.9878054, -0.2552987
0.918457, -0.253418, -0.4570312, -3.7804878, 51.6463432, -12.3170738, -0.2630198
0.9389648, -0.2553711, -0.4580078, -5.1829271, 47.7439041, -11.341464, -0.2358282
0.9838867, -0.2705078, -0.4331055, -5.0609756, 46.9512215, -10.9756098, -0.2257572
1.0009766, -0.2827148, -0.4101562, -4.6951222, 46.9512215, -10.9756098, -0.202594
1.0117188, -0.2949219, -0.3798828, -4.2682929, 47.1951218, -10.4878054, -0.1307546
1.0014648, -0.2973633, -0.3779297, -3.9634147, 47.2560997, -10.1219511, -0.0468299
0.9628906, -0.2944336, -0.3857422, -4.2682929, 46.1585388, -9.5731707, 0.0391089
0.9438477, -0.2910156, -0.3945312, -5.9756098, 42.9878044, -7.7439027, 0.1144732
0.9145508, -0.2817383, -0.4160156, -7.5, 39.6341476, -6.2195125, 0.1633173
0.9160156, -0.2783203, -0.4189453, -8.2317076, 38.1707344, -5.8536587, 0.1938659
0.9321289, -0.2670898, -0.4199219, -8.719512, 36.2195129, -6.2195125, 0.2052796
0.96875, -0.2832031, -0.4067383, -8.4146347, 35.4878044, -6.6463418, 0.1965515
0.9819336, -0.3032227, -0.4008789, -9.0853662, 34.1463432, -7.5609756, 0.1676814
0.9980469, -0.3354492, -0.4013672, -9.2073174, 33.4146347, -7.6219516, 0.1059129
0.9936523, -0.3491211, -0.3994141, -10.3048782, 31.9512196, -6.7073174, 0.0293736
0.9848633, -0.34375, -0.4038086, -10.5487804, 31.341465, -6.5243902, -0.0599222
0.9750977, -0.3359375, -0.4052734, -10.1219511, 29.6951218, -5.9756098, -0.1438468
0.9614258, -0.3222656, -0.4008789, -9.8170738, 28.9634151, -5.9756098, -0.1498894
0.956543, -0.3217773, -0.4003906, -9.5731707, 26.8902454, -5.9146342, -0.0624399
0.9536133, -0.3369141, -0.3984375, -10.4878054, 25.1829281, -6.0975609, 0.043473
0.953125, -0.3413086, -0.3979492, -10.8536587, 24.3292694, -5.9146342, 0.1378042
0.9545898, -0.3452148, -0.3999023, -11.219512, 22.560976, -5.7926831, 0.1931945
0.9619141, -0.3413086, -0.3779297, -10.4878054, 21.5853672, -6.280488, 0.2039368
0.96875, -0.3417969, -0.3676758, -8.5975609, 19.3902435, -6.5853658, 0.1930266
0.9711914, -0.3334961, -0.3706055, -7.6219516, 18.4146347, -6.7073174, 0.1696956
0.9584961, -0.3266602, -0.3896484, -8.719512, 17.439024, -6.5853658, 0.1478752
0.9321289, -0.3061523, -0.4350586, -10.1829271, 17.1951218, -5.9756098, 0.0770428
0.9160156, -0.2836914, -0.4550781, -14.0853662, 16.4024391, -3.6585367, -0.110277
0.9213867, -0.2597656, -0.4697266, -15.1829271, 16.0365849, -2.804878, -0.2824903
0.940918, -0.2568359, -0.4638672, -14.9390249, 14.1463413, -2.3170731, -0.4056916
0.9814453, -0.28125, -0.4443359, -14.0853662, 12.9878054, -2.9268293, -0.4795453
1.0131836, -0.3203125, -0.4404297, -13.9024391, 13.1707315, -3.1707318, -0.473167
1.0234375, -0.3393555, -0.4453125, -13.5975609, 14.4512196, -3.3536587, -0.3971313
1.0224609, -0.3554688, -0.4716797, -14.2682934, 15.2439032, -3.1097562, -0.2876936
1.012207, -0.3481445, -0.4897461, -14.2682934, 15.4268293, -1.7073171, -0.1831235
1.0039062, -0.3242188, -0.503418, -13.9634151, 15.1829271, -0.8536586, -0.0793927
1.0048828, -0.3110352, -0.4985352, -12.1951218, 15.2439032, -0.3658537, 0.008896
1.0195312, -0.2919922, -0.4516602, -11.4634151, 15, -0.4268293, 0.0965133
1.019043, -0.293457, -0.4189453, -10.5487804, 15.4268293, -0.9756098, 0.1649958
1.0019531, -0.3076172, -0.3652344, -10.7926836, 15.6707325, -1.402439, 0.2328069
0.9790039, -0.3178711, -0.359375, -12.0121956, 14.8780489, -1.4634147, 0.2831617
0.9243164, -0.3300781, -0.371582, -13.9634151, 11.4024391, -0.1219512, 0.3247883
0.8901367, -0.3276367, -0.3808594, -14.9390249, 8.9024391, 0.6097561, 0.3489586
0.8901367, -0.3261719, -0.3828125, -14.4512196, 4.4512196, 1.6463414, 0.3533227
0.902832, -0.3198242, -0.3647461, -13.4756098, 2.804878, 1.7073171, 0.3452659
0.9072266, -0.3139648, -0.3554688, -11.4024391, 0.3048781, 0.4268293, 0.3293202
0.9135742, -0.3422852, -0.3520508, -10.6707315, -0.1829268, 0.0609756, 0.3044785
0.9077148, -0.3535156, -0.3598633, -10.7317076, -1.6463414, -0.3048781, 0.2764477
0.8916016, -0.362793, -0.3994141, -11.4634151, -2.804878, 0, 0.2388495
0.8818359, -0.3637695, -0.421875, -12.3780489, -5.4878049, 1.5243902, 0.1972229
0.9018555, -0.3452148, -0.4570312, -12.3170738, -7.2560978, 1.8902439, 0.1613031
0.9238281, -0.3325195, -0.4648438, -11.5853662, -10, 1.5243902, 0.1346151
0.9750977, -0.3081055, -0.4511719, -10.4878054, -10.9756098, 1.0365853, 0.1038987
1.0166016, -0.2924805, -0.4350586, -10.7926836, -10.9756098, 0.4268293, 0.0757
1.0214844, -0.284668, -0.4326172, -12.8048782, -10.8536587, 0.6097561, 0.0421302
1.0043945, -0.2729492, -0.4301758, -14.9390249, -11.219512, 1.6463414, 0.0085603
0.9848633, -0.2592773, -0.4291992, -18.5365849, -12.5, 4.6951222, -0.0152743
0.9633789, -0.237793, -0.4174805, -19.3902435, -13.3536587, 5.9756098, -0.0391089
0.9599609, -0.2299805, -0.4072266, -19.8780499, -16.0975609, 7.8658538, -0.100206
0.9511719, -0.2426758, -0.4038086, -19.8170738, -17.439024, 7.8048782, -0.1767453
0.9462891, -0.2631836, -0.409668, -21.1585369, -19.5121956, 7.4390244, -0.2841688
0.9350586, -0.3076172, -0.4365234, -22.3780499, -20.4878044, 7.6829271, -0.3654078
0.9277344, -0.3237305, -0.4521484, -24.8780499, -22.1341476, 8.9024391, -0.3714504
0.9194336, -0.3334961, -0.4750977, -25.8536587, -23.3536587, 10.1829271, -0.3294881
0.9345703, -0.309082, -0.4760742, -25.9756107, -23.9634151, 10.060976, -0.2561379
0.9433594, -0.2949219, -0.4697266, -24.8780499, -24.2682934, 9.4512196, -0.1472038
0.9560547, -0.2905273, -0.4477539, -24.7560978, -24.5121956, 8.719512, -0.0471656
0.9580078, -0.2978516, -0.4389648, -25.3048782, -24.5731716, 8.2317076, 0.0015106
0.9506836, -0.3066406, -0.4155273, -26.4024391, -24.6341476, 8.5975609, 0.0166171
0.9453125, -0.3066406, -0.4111328, -28.0487804, -26.280489, 8.9024391, 0.0219883
0.9257812, -0.3188477, -0.4233398, -28.4756107, -27.4390259, 9.0243902, 0.026688
0.9169922, -0.3261719, -0.4438477, -29.0243912, -30.9756107, 9.6341467, -0.0058747
0.9194336, -0.3447266, -0.4814453, -29.0243912, -33.3536606, 10.3048782, -0.0854353
0.9233398, -0.3505859, -0.4873047, -28.9634151, -34.0243912, 10.3658543, -0.1290761
0.9492188, -0.3588867, -0.4633789, -27.6829281, -35, 10, -0.1559319
0.9584961, -0.3525391, -0.4140625, -26.5853672, -34.8780479, 9.5121956, -0.1740597
0.9526367, -0.340332, -0.4042969, -25.4878063, -34.7560997, 8.841464, -0.1901732
0.921875, -0.2954102, -0.4599609, -25.3048782, -34.8170738, 9.0243902, -0.2083009
0.9042969, -0.2705078, -0.5063477, -27.2560978, -36.7682953, 10.6707315, -0.1559319
0.8979492, -0.2392578, -0.5751953, -28.9634151, -38.3536606, 11.8902445, -0.0800641
0.9150391, -0.2387695, -0.5644531, -32.6219521, -41.7682953, 13.7195129, -0.0129244
0.9741211, -0.2714844, -0.4833984, -33.5975609, -43.0487823, 13.6585369, 0.0481727
0.984375, -0.284668, -0.4365234, -33.2926826, -42.4390259, 13.1097565, 0.1085985
0.9663086, -0.3066406, -0.3842773, -32.1341476, -41.4024391, 13.2317076, 0.152575
0.9379883, -0.3110352, -0.378418, -31.6463413, -42.0121956, 13.7195129, 0.1767453
0.8759766, -0.2875977, -0.3833008, -32.5609779, -47.3780518, 15.7317076, 0.1868162
0.8491211, -0.2495117, -0.4018555, -33.5365868, -50.9756126, 16.9512196, 0.1767453
0.8544922, -0.2373047, -0.4213867, -35.7926826, -57.7439041, 18.2317085, 0.1794308
0.887207, -0.2543945, -0.4560547, -37.1341476, -60.4268303, 18.8414631, 0.1918517
0.9082031, -0.277832, -0.4760742, -39.8170738, -64.0853653, 18.9634151, 0.1978943
0.9516602, -0.3320312, -0.5043945, -40.7317085, -65.4878082, 19.1463413, 0.1972229
0.9692383, -0.34375, -0.5078125, -40.6097565, -66.4024429, 19.2682934, 0.1559319
0.9931641, -0.3632812, -0.503418, -39.9390259, -66.7073212, 19.0853672, 0.0626078
0.9970703, -0.3657227, -0.5, -37.3780479, -66.3414612, 18.6585369, -0.008896
0.9824219, -0.3574219, -0.496582, -35.7317085, -66.9512177, 18.2926826, -0.0679789
0.9711914, -0.3549805, -0.5039062, -35.4268303, -67.1341476, 18.3536587, -0.1401541
0.9399414, -0.3393555, -0.5166016, -35.6707344, -68.7195129, 18.0487804, -0.2353246
0.9277344, -0.3286133, -0.5322266, -35.6097565, -69.5731735, 18.2317085, -0.3130388
0.9262695, -0.3305664, -0.5400391, -36.2195129, -71.4024429, 18.5975609, -0.3492943
0.9379883, -0.3256836, -0.546875, -36.2804871, -71.9512177, 18.4146347, -0.3580224
0.9462891, -0.3217773, -0.5419922, -36.341465, -72.2560959, 18.3536587, -0.3459373
0.9584961, -0.300293, -0.5375977, -36.4024391, -72.0731735, 18.6585369, -0.3398947
0.9633789, -0.2905273, -0.5317383, -37.0731697, -71.4634171, 18.780489, -0.3351949
0.9624023, -0.2792969, -0.5175781, -36.9512215, -71.7073212, 18.8414631, -0.3143816
0.9575195, -0.277832, -0.5146484, -37.7439041, -73.2926865, 18.8414631, -0.2240787
0.9296875, -0.2753906, -0.5332031, -39.3292694, -75.6097565, 19.5731716, -0.1717098
0.9194336, -0.2773438, -0.5546875, -40.3658562, -76.3414688, 20.2439022, -0.1935302
0.902832, -0.2695312, -0.5893555, -41.8292694, -77.6219559, 21.8292694, -0.2311284
0.9125977, -0.2695312, -0.5727539, -42.0121956, -78.9024429, 22.6219521, -0.2848402
0.9233398, -0.2729492, -0.546875, -42.3170738, -79.5731735, 23.4146347, -0.2868544
0.9316406, -0.2822266, -0.4990234, -42.1951218, -79.5731735, 23.2926826, -0.2277714
0.9228516, -0.2802734, -0.4956055, -42.5609779, -80.1219559, 23.5365868, -0.1317617
0.8969727, -0.2802734, -0.5087891, -42.9268303, -81.0365906, 24.1463413, -0.0130922
0.8813477, -0.2832031, -0.5112305, -43.7195129, -84.5731735, 25.1829281, 0.1015488
0.8676758, -0.293457, -0.5136719, -44.3292694, -86.8292694, 25.7317085, 0.1928588
0.8681641, -0.3022461, -0.5195312, -44.8780479, -90.7317123, 26.280489, 0.2334783
0.8652344, -0.3188477, -0.5512695, -45.4268303, -92.7439041, 26.7073174, 0.2512703
0.8681641, -0.3256836, -0.574707, -45.4268303, -93.5365906, 27.0731716, 0.2804761
0.8686523, -0.3261719, -0.6103516, -45.8536606, -94.8780518, 27.9268303, 0.293904
0.8857422, -0.3208008, -0.5942383, -45.9146347, -95.0609741, 28.5975609, 0.3066606
0.8930664, -0.3164062, -0.5722656, -45.1219521, -95.6707306, 28.9024391, 0.2959182
0.8950195, -0.3168945, -0.5258789, -44.5731735, -96.1585388, 29.2073174, 0.2871901
0.8852539, -0.3188477, -0.5146484, -43.2317085, -97.1951218, 29.3292694, 0.2653696
0.8500977, -0.3286133, -0.5341797, -42.8658562, -98.7804871, 29.9390259, 0.2388495
0.8374023, -0.331543, -0.5595703, -42.3170738, -102.5, 31.341465, 0.2091402
0.828125, -0.3325195, -0.6040039, -42.4390259, -104.8780518, 32.4390259, 0.1918517
0.8354492, -0.3359375, -0.6152344, -41.6463432, -108.7804871, 33.841465, 0.1534142
0.8706055, -0.3466797, -0.6064453, -40.6707344, -110.6707306, 33.841465, 0.10692
0.887207, -0.3544922, -0.6088867, -39.9390259, -110.6097565, 33.7195129, 0.0632792
0.9018555, -0.3510742, -0.6430664, -39.5121956, -110.0609818, 33.7195129, 0.0043641
0.902832, -0.3393555, -0.6811523, -39.4512215, -110.18293, 33.841465, -0.0565652
0.9116211, -0.3310547, -0.6821289, -39.9390259, -111.5853653, 34.6951218, -0.100206
0.9194336, -0.3251953, -0.6376953, -40.3048782, -112.5, 34.9390259, -0.1339437
0.9262695, -0.3320312, -0.6157227, -40.6097565, -113.4146347, 34.9390259, -0.1388113
0.9091797, -0.347168, -0.6064453, -40.5487823, -113.7804871, 34.7560997, -0.1364614
0.8974609, -0.3486328, -0.6230469, -41.9512215, -115.4878082, 35.6707344, -0.1210193
0.8618164, -0.3535156, -0.659668, -42.7439041, -116.7682953, 36.5243912, -0.0995346
0.8549805, -0.3530273, -0.6679688, -42.9878044, -119.3902435, 37.6829262, -0.073518
0.8710938, -0.3388672, -0.6738281, -41.5243912, -121.5243912, 37.5609779, -0.054551
0.8901367, -0.3383789, -0.6791992, -40.7317085, -122.0731735, 37.1951218, -0.04448
0.9174805, -0.3457031, -0.6889648, -40.3048782, -122.3170776, 36.5853653, -0.040116
0.9370117, -0.3500977, -0.6967773, -40.7317085, -122.5609818, 36.5853653, -0.0458228
0.9467773, -0.347168, -0.7011719, -41.4634171, -123.4756088, 36.7073174, -0.0431373
0.953125, -0.3515625, -0.7109375, -41.7682953, -123.7195129, 37.0121956, -0.0431373
0.9501953, -0.3535156, -0.7250977, -42.0731735, -124.8170776, 37.5609779, -0.0616007
0.9467773, -0.3554688, -0.7509766, -42.1951218, -124.8170776, 38.1707344, -0.1418326
0.9448242, -0.355957, -0.762207, -42.5609779, -124.5121994, 38.7804871, -0.233814
0.9482422, -0.3671875, -0.7514648, -42.6829262, -124.6341476, 38.7195129, -0.2878614
0.9477539, -0.3706055, -0.7338867, -42.6829262, -124.4512253, 38.2926826, -0.3120317
0.9360352, -0.387207, -0.7036133, -43.1707344, -124.2073212, 37.6219521, -0.2996109
0.9194336, -0.3857422, -0.7041016, -42.9878044, -124.0853653, 37.9268303, -0.2573129
0.8823242, -0.3510742, -0.7485352, -43.1097565, -125.1219559, 38.5975609, -0.19823
0.8701172, -0.3100586, -0.7817383, -43.1707344, -126.0365906, 38.9024391, -0.1626459
0.8837891, -0.3027344, -0.7827148, -43.9024391, -127.3780518, 39.5731735, -0.1310903
0.9165039, -0.309082, -0.7602539, -44.3902435, -127.4390259, 39.8170738, -0.1156481
0.9355469, -0.3217773, -0.7382812, -45.8536606, -127.4390259, 40.0609779, -0.090135
0.9511719, -0.3569336, -0.7084961, -46.2804871, -127.3170776, 40.1829262, -0.0485084
0.9379883, -0.3710938, -0.7075195, -46.6463432, -128.3536682, 40.4268303, -0.0031891
0.8984375, -0.3798828, -0.7333984, -46.7682953, -129.0243988, 40.7926826, 0.0552224
0.878418, -0.3745117, -0.7504883, -46.341465, -131.2195129, 40.6707344, 0.0951705
0.8598633, -0.3623047, -0.762207, -45.4268303, -132.3170776, 40.1829262, 0.1059129
0.859375, -0.3598633, -0.7504883, -45.1219521, -132.5609741, 39.7560997, 0.1065843
0.8598633, -0.3730469, -0.7216797, -44.8170738, -132.6829224, 38.7804871, 0.0681468
0.8481445, -0.3955078, -0.715332, -45.4268303, -133.3536682, 38.5365868, 0.0344091
0.8398438, -0.4052734, -0.7314453, -46.2804871, -135.4268341, 37.5609779, -0.0243381
0.824707, -0.4057617, -0.7729492, -46.5243912, -137.0121918, 37.3780479, -0.1075914
0.8320312, -0.4106445, -0.7919922, -46.0365868, -140.5487823, 37.0731697, -0.254963
0.8525391, -0.421875, -0.8222656, -45.7926826, -141.7073212, 37.1951218, -0.3998169
0.871582, -0.4199219, -0.8339844, -44.9390259, -141.4024353, 37.0731697, -0.5329213
0.909668, -0.4013672, -0.8320312, -44.2682953, -140.4878082, 36.8902435, -0.6964065
0.921875, -0.3950195, -0.8212891, -43.0487823, -138.5365906, 35.3658562, -0.7484398
0.9228516, -0.3803711, -0.7871094, -42.1951218, -137.5, 34.1463432, -0.6406806
0.9150391, -0.3764648, -0.7719727, -42.3780479, -137.7439117, 33.5975609, -0.4332189
0.8652344, -0.3710938, -0.7612305, -41.8292694, -138.3536682, 34.3292694, -0.178088
0.8110352, -0.3671875, -0.793457, -42.0731735, -138.9024353, 34.8170738, 0.0622721
0.7939453, -0.3603516, -0.8144531, -41.341465, -141.0365906, 36.5853653, 0.2623484
0.7895508, -0.3603516, -0.8364258, -40.9146347, -141.646347, 37.0731697, 0.3966278
0.7998047, -0.3647461, -0.8378906, -40.6707344, -142.3780518, 37.5609779, 0.4288548
0.8256836, -0.3862305, -0.8344727, -40.9756088, -142.3170776, 37.5, 0.3925994
