Application:, Trigno Discover (1.6.5)
Date/Time:, 05/02/2025 16:06:31
Collection Length (seconds):, 27.837
wrist (81457), , , , , , bicep (81139)
sensor mode: 609, , , , , , sensor mode: 40
ACC X (G), ACC Y (G), ACC Z (G), GYRO X (deg/s), GYRO Y (deg/s), GYRO Z (deg/s), EMG 1 (mV)
370.3704 Hz, 370.3704 Hz, 370.3704 Hz, 370.3704 Hz, 370.3704 Hz, 370.3704 Hz, 2148.1481 Hz
0.9580078, -0.1352539, -0.2246094, -16.0365849, -9.3902445, 2.3170731, 0.0058747
0.9624023, -0.1416016, -0.2265625, -16.6463413, -9.5731707, 2.4390244, 0.0038605
0.9682617, -0.1450195, -0.2216797, -16.5243912, -9.5121956, 2.5609756, 0.0023499
0.9824219, -0.1450195, -0.2177734, -15.8536587, -9.3902445, 2.0731707, 0.0062104
0.9829102, -0.1430664, -0.2138672, -15.7926836, -9.1463413, 1.8902439, 0.0099031
0.984375, -0.144043, -0.2114258, -15.7926836, -8.780488, 1.5243902, 0.0085603
0.987793, -0.1450195, -0.2124023, -15.5487804, -8.841464, 1.8292683, 0.008896
0.9858398, -0.1499023, -0.215332, -15.6097565, -9.0853662, 1.8292683, 0.0137636
0.9829102, -0.1582031, -0.2260742, -15.6097565, -9.0243902, 2.1341465, 0.0115816
0.9785156, -0.1513672, -0.230957, -15.6707325, -9.3292685, 2.1341465, 0.0038605
0.9775391, -0.1464844, -0.2353516, -15.6097565, -9.0243902, 2.2560976, -0.002182
0.9731445, -0.1352539, -0.2294922, -15.4878054, -8.4756098, 2.3780489, -0.008896
0.9794922, -0.1162109, -0.2104492, -15, -7.9878049, 2.804878, -0.0068818
0.9780273, -0.1083984, -0.2080078, -14.9390249, -7.8658538, 2.6829269, -0.0159457
0.9760742, -0.1074219, -0.2094727, -15.3048782, -7.9268293, 2.195122, -0.0176242
0.965332, -0.1088867, -0.2197266, -16.2195129, -7.9878049, 2.3170731, -0.0204776
0.9643555, -0.1367188, -0.2211914, -17.9268303, -8.4756098, 3.1707318, -0.0297093
0.9697266, -0.1503906, -0.2138672, -18.5975609, -8.9024391, 3.4756098, -0.0407874
0.9711914, -0.1621094, -0.2026367, -17.8658543, -9.3902445, 3.7195122, -0.047837
0.9711914, -0.1630859, -0.2060547, -17.1341476, -9.2073174, 3.3536587, -0.0404517
0.9765625, -0.1557617, -0.2119141, -15.9756098, -8.5975609, 2.6829269, -0.051194
0.9829102, -0.1396484, -0.21875, -15.6097565, -8.5365858, 2.3780489, -0.0626078
0.987793, -0.1328125, -0.2163086, -15.3658543, -8.3536587, 2.0121951, -0.0609293
0.9931641, -0.1298828, -0.2099609, -15.5487804, -8.3536587, 2.195122, -0.0639506
0.9931641, -0.1313477, -0.2080078, -15.7926836, -8.4756098, 2.0121951, -0.0757
0.9907227, -0.140625, -0.2094727, -15.9756098, -8.3536587, 2.195122, -0.0835889
0.9882812, -0.1420898, -0.2114258, -16.280489, -8.4146347, 2.5, -0.0928206
0.9765625, -0.1523438, -0.2167969, -16.0975609, -8.3536587, 2.804878, -0.1049058
0.9711914, -0.1523438, -0.2163086, -15.9756098, -8.780488, 2.6829269, -0.096849
0.965332, -0.1445312, -0.2177734, -15.3048782, -8.3536587, 2.5609756, -0.1062486
0.9692383, -0.1396484, -0.2172852, -15.2439032, -8.2317076, 2.5, -0.1129625
0.9702148, -0.1357422, -0.2143555, -15.1829271, -8.0487804, 2.3170731, -0.1143053
0.9697266, -0.1337891, -0.2094727, -15.6707325, -8.1707315, 1.9512196, -0.1143053
0.9716797, -0.137207, -0.2075195, -16.2195129, -8.3536587, 1.4634147, -0.1025559
0.9672852, -0.1494141, -0.2050781, -16.2195129, -8.4756098, 1.5853659, -0.0908064
0.9707031, -0.1513672, -0.2075195, -16.3414631, -8.2317076, 1.7682927, -0.0780499
0.9702148, -0.1503906, -0.2128906, -15.4878054, -8.0487804, 2.0731707, -0.0699931
0.9726562, -0.1450195, -0.2124023, -14.8170738, -7.6829271, 2.1341465, -0.0518654
0.9755859, -0.1391602, -0.2250977, -14.6341467, -7.3170733, 1.6463414, -0.051194
0.9741211, -0.1367188, -0.2304688, -14.8170738, -7.2560978, 1.5243902, -0.0448157
0.9819336, -0.1376953, -0.2338867, -15.7317076, -6.890244, 1.2804878, -0.0344091
0.9892578, -0.1430664, -0.2226562, -16.0365849, -6.890244, 1.4634147, -0.0152743
0.9921875, -0.1469727, -0.2197266, -15.8536587, -6.5243902, 1.2195122, -0.0142672
0.9873047, -0.1430664, -0.2060547, -15.9146347, -6.5853658, 1.3414634, -0.0087282
0.9853516, -0.1357422, -0.2036133, -15.060976, -6.4634147, 1.3414634, 0.0048676
0.9799805, -0.1220703, -0.2041016, -15, -6.6463418, 1.5243902, 0.0132601
0.9741211, -0.1166992, -0.2041016, -15.060976, -6.8292685, 1.9512196, 0.0119173
0.9741211, -0.1176758, -0.2045898, -16.0365849, -7.3780489, 2.2560976, 0.0146029
0.9736328, -0.1186523, -0.2104492, -16.3414631, -7.8048782, 2.3170731, 0.0169528
0.9780273, -0.128418, -0.2148438, -16.0975609, -8.1097565, 2.5609756, 0.0270237
0.984375, -0.1362305, -0.2158203, -15.9756098, -8.1097565, 2.6219513, 0.0117494
0.9951172, -0.1474609, -0.2182617, -15, -7.7439027, 2.4390244, 0.0077211
0.9931641, -0.1508789, -0.2192383, -14.6341467, -7.3170733, 2.5, 0.0087282
0.9936523, -0.152832, -0.2177734, -13.9024391, -6.890244, 2.5609756, -0.005539
0.9892578, -0.1494141, -0.222168, -14.0243902, -6.890244, 2.3780489, -0.0038605
0.9882812, -0.1484375, -0.222168, -13.6585369, -6.890244, 1.9512196, -0.0095674
0.984375, -0.1450195, -0.2265625, -13.6585369, -6.7682929, 1.5853659, -0.0142672
0.9868164, -0.1474609, -0.2275391, -13.7195129, -6.890244, 1.7073171, -0.0186313
0.9892578, -0.1508789, -0.2250977, -13.7195129, -6.6463418, 1.6463414, -0.0260166
0.9907227, -0.1499023, -0.2231445, -13.780488, -6.7073174, 1.3414634, 0.0035248
0.9897461, -0.1533203, -0.2211914, -13.4756098, -6.4024391, 1.402439, 0.0340734
0.9916992, -0.1542969, -0.2163086, -13.4756098, -6.4024391, 1.4634147, 0.0525368
0.980957, -0.1503906, -0.2094727, -13.6585369, -6.4024391, 1.6463414, 0.0528725
0.9702148, -0.1474609, -0.1894531, -13.4756098, -6.4024391, 1.402439, 0.0555581
0.9692383, -0.1411133, -0.1806641, -13.3536587, -6.5243902, 1.5853659, 0.0515297
0.9594727, -0.125, -0.1816406, -13.4756098, -6.7682929, 1.2804878, 0.027863
0.9545898, -0.1181641, -0.1835938, -13.2317076, -7.9268293, 0.9146342, 0.0031891
0.949707, -0.1254883, -0.2060547, -14.0853662, -8.5975609, 1.097561, -0.0149386
0.9501953, -0.1381836, -0.2177734, -14.5731707, -8.5975609, 1.2195122, -0.0347448
0.9599609, -0.1552734, -0.2177734, -15.4268293, -8.9024391, 1.7073171, -0.0459907
0.9658203, -0.1586914, -0.2089844, -15.060976, -8.719512, 2.0731707, -0.0569009
0.9741211, -0.1435547, -0.1987305, -13.4146347, -7.8658538, 1.5243902, -0.0710002
0.9770508, -0.1328125, -0.2021484, -12.560976, -7.5609756, 1.2195122, -0.0941634
0.9702148, -0.1162109, -0.2148438, -12.1951218, -7.0731707, 0.9146342, -0.10692
0.9677734, -0.1201172, -0.222168, -12.7439032, -7.1951222, 0.9756098, -0.1230335
0.9672852, -0.128418, -0.2207031, -14.5731707, -7.8048782, 1.5243902, -0.1297475
0.972168, -0.137207, -0.2104492, -14.8170738, -7.8658538, 1.7073171, -0.1290761
0.9750977, -0.140625, -0.2080078, -14.3292685, -8.2926826, 2.0121951, -0.1223621
0.9750977, -0.1362305, -0.2163086, -13.5975609, -7.6829271, 2.2560976, -0.124712
0.9702148, -0.1391602, -0.2202148, -13.4756098, -7.5, 2.1341465, -0.1109483
0.96875, -0.1342773, -0.2231445, -13.9024391, -7.4390244, 2.5, -0.0955062
0.9697266, -0.1362305, -0.2202148, -14.2073174, -7.5609756, 2.5, -0.0807355
0.9755859, -0.1352539, -0.2104492, -13.9024391, -7.9878049, 2.5609756, -0.061265
0.9790039, -0.1376953, -0.2084961, -13.7195129, -7.8658538, 2.5609756, -0.0364233
0.9804688, -0.1337891, -0.2070312, -12.9878054, -7.9878049, 2.2560976, -0.0102388
0.9750977, -0.1328125, -0.2172852, -13.4146347, -8.1097565, 2.4390244, 0.0102388
0.9697266, -0.1381836, -0.2231445, -13.5975609, -8.0487804, 2.4390244, 0.0293736
0.9658203, -0.1479492, -0.2275391, -13.9024391, -8.4146347, 2.6219513, 0.036759
0.9638672, -0.1518555, -0.2236328, -14.2073174, -8.4756098, 3.0487804, 0.0542153
0.9682617, -0.1542969, -0.2138672, -13.780488, -8.5975609, 3.3536587, 0.054551
0.9692383, -0.1494141, -0.2075195, -13.4756098, -8.4756098, 3.0487804, 0.0481727
0.9726562, -0.1469727, -0.2055664, -13.0487804, -7.8658538, 2.6829269, 0.0354162
0.9682617, -0.1435547, -0.2036133, -13.0487804, -7.8658538, 2.2560976, 0.0290379
0.9697266, -0.1416016, -0.2011719, -13.9024391, -8.2926826, 1.9512196, 0.0186313
0.9697266, -0.1474609, -0.2075195, -14.1463413, -8.5975609, 1.9512196, 0.0149386
0.9667969, -0.1518555, -0.2124023, -14.8170738, -9.6951218, 2.0731707, 0.0068818
0.9692383, -0.1567383, -0.2128906, -14.9390249, -9.6951218, 1.9512196, -0.005539
0.96875, -0.1606445, -0.2148438, -14.2073174, -9.8170738, 2.0731707, -0.014435
0.9731445, -0.15625, -0.2128906, -13.841464, -9.5121956, 1.8902439, -0.0287022
0.9755859, -0.1572266, -0.2094727, -13.3536587, -9.3902445, 1.8902439, -0.036759
0.9780273, -0.1455078, -0.199707, -12.9878054, -9.0243902, 1.6463414, -0.0397803
0.9750977, -0.1391602, -0.1948242, -12.6219511, -8.9634151, 1.8292683, -0.0394446
0.9667969, -0.1274414, -0.1962891, -12.3780489, -9.0853662, 1.2804878, -0.0419623
0.9643555, -0.1289062, -0.1982422, -12.3170738, -9.5731707, 1.2804878, -0.0508583
0.9599609, -0.1293945, -0.2177734, -13.3536587, -9.6341467, 1.1585366, -0.0619364
0.9594727, -0.1396484, -0.2241211, -14.1463413, -9.6951218, 1.402439, -0.0770428
0.9672852, -0.1455078, -0.2241211, -14.8780489, -9.9390249, 1.5243902, -0.0654612
0.9814453, -0.1499023, -0.2182617, -14.5121956, -9.7560978, 1.5243902, -0.0659648
0.9863281, -0.1469727, -0.2216797, -13.4146347, -9.4512196, 1.402439, -0.0605936
0.9892578, -0.1450195, -0.2231445, -13.0487804, -8.5975609, 1.097561, -0.0652934
0.987793, -0.1376953, -0.2216797, -12.9268293, -8.2926826, 0.9756098, -0.0605936
0.9833984, -0.1264648, -0.2143555, -13.3536587, -8.0487804, 1.1585366, -0.0570687
0.9785156, -0.1220703, -0.2148438, -13.4756098, -8.1097565, 1.3414634, -0.0498512
0.9741211, -0.1293945, -0.2216797, -13.5365858, -8.719512, 1.2804878, -0.0451514
0.9716797, -0.1289062, -0.2255859, -13.780488, -8.4756098, 1.3414634, -0.0357519
0.9780273, -0.140625, -0.2275391, -14.2682934, -8.2926826, 1.8902439, -0.0293736
0.9833984, -0.1435547, -0.2246094, -14.0853662, -8.4756098, 1.8292683, -0.0317235
0.9882812, -0.1435547, -0.2265625, -13.3536587, -8.2317076, 1.8292683, -0.0345769
0.9907227, -0.1455078, -0.2275391, -12.9268293, -8.0487804, 1.6463414, -0.0347448
0.9887695, -0.1445312, -0.2299805, -12.7439032, -7.6829271, 1.9512196, -0.0280308
0.9848633, -0.1508789, -0.2338867, -12.7439032, -7.2560978, 2.195122, -0.0172885
0.9833984, -0.1508789, -0.2294922, -12.6829271, -7.2560978, 2.4390244, -0.0236667
0.9829102, -0.1450195, -0.2192383, -12.560976, -6.7073174, 2.5, -0.0340734
0.9868164, -0.1396484, -0.2211914, -12.1341467, -6.3414636, 2.3170731, -0.0520333
0.9868164, -0.1259766, -0.2202148, -12.1951218, -6.5853658, 2.0731707, -0.0626078
0.9814453, -0.1235352, -0.2211914, -12.6219511, -6.5243902, 2.0121951, -0.0674754
0.9726562, -0.1230469, -0.222168, -13.2317076, -6.7682929, 2.3170731, -0.0673075
0.9799805, -0.1396484, -0.2026367, -13.4756098, -7.0121951, 2.2560976, -0.0720073
0.980957, -0.1499023, -0.1948242, -13.5365858, -7.0731707, 2.8658538, -0.0622721
0.9736328, -0.1518555, -0.1845703, -12.7439032, -7.0731707, 3.0487804, -0.0663005
0.9667969, -0.1469727, -0.1865234, -11.8902445, -7.3780489, 2.8658538, -0.0740215
0.9550781, -0.1323242, -0.2011719, -12.0121956, -7.2560978, 2.804878, -0.0626078
0.9526367, -0.1240234, -0.2119141, -12.6219511, -7.5, 2.5609756, -0.0663005
0.9599609, -0.1220703, -0.2148438, -13.780488, -8.841464, 2.6829269, -0.0652934
0.9667969, -0.1230469, -0.2163086, -14.2073174, -9.2073174, 2.4390244, -0.0491798
0.9838867, -0.1333008, -0.2270508, -14.3902445, -9.3292685, 2.5609756, -0.0340734
0.9863281, -0.1386719, -0.2299805, -14.1463413, -9.0243902, 2.5609756, -0.0224918
0.9902344, -0.1328125, -0.2358398, -14.0853662, -7.9878049, 3.1097562, -0.0075532
0.9863281, -0.1259766, -0.2333984, -13.6585369, -7.5, 3.1097562, 0.0186313
0.9868164, -0.121582, -0.2373047, -13.7195129, -7.3780489, 3.0487804, 0.0354162
0.9858398, -0.1328125, -0.2338867, -13.7195129, -7.1341467, 2.9268293, 0.0449836
0.984375, -0.1420898, -0.2353516, -13.9634151, -7.1341467, 2.6829269, 0.0609293
0.9790039, -0.1538086, -0.2387695, -14.8170738, -6.890244, 2.9268293, 0.0743572
0.9770508, -0.1557617, -0.2441406, -15, -6.3414636, 2.9268293, 0.0770428
0.9667969, -0.1445312, -0.2495117, -14.6951227, -5.4878049, 3.1707318, 0.0770428
0.9624023, -0.1328125, -0.2543945, -14.4512196, -5.1829271, 3.2926829, 0.0780499
0.9677734, -0.1210938, -0.2578125, -14.3902445, -4.390244, 3.1707318, 0.0748608
0.9711914, -0.1166992, -0.265625, -14.2682934, -4.1463413, 3.1097562, 0.076875
0.9887695, -0.1142578, -0.2695312, -15.3658543, -3.3536587, 3.0487804, 0.0696574
0.9956055, -0.1328125, -0.2666016, -15.6097565, -2.7439024, 3.0487804, 0.0642863
0.9907227, -0.1445312, -0.2592773, -16.2195129, -1.7073171, 3.2317073, 0.0495155
0.9755859, -0.1572266, -0.2514648, -16.4634151, -1.7073171, 3.6585367, 0.0364233
0.9692383, -0.159668, -0.2387695, -16.2195129, -1.402439, 4.4512196, 0.0209812
0.953125, -0.1435547, -0.2016602, -15.6097565, -2.0731707, 4.6341462, 0.0112459
0.9472656, -0.1362305, -0.1835938, -15.6707325, -1.9512196, 4.5121951, 0.0005035
0.9404297, -0.1245117, -0.1542969, -15.8536587, -3.3536587, 4.0853658, -0.0068818
0.9350586, -0.1225586, -0.1503906, -16.0365849, -4.6951222, 3.9024391, -0.0078889
0.9379883, -0.1318359, -0.1552734, -17.2560978, -7.8048782, 3.9024391, -0.008896
0.9453125, -0.1357422, -0.1611328, -17.6829281, -9.2073174, 3.9634147, -0.0216526
0.9692383, -0.1567383, -0.1791992, -18.5365849, -12.0121956, 4.1463413, -0.0330663
0.9897461, -0.1767578, -0.2075195, -18.7195129, -12.9878054, 4.0853658, -0.030045
0.9995117, -0.1860352, -0.2128906, -17.9268303, -14.0243902, 4.4512196, -0.0236667
1.0043945, -0.1938477, -0.2241211, -17.3170738, -14.3292685, 4.5121951, -0.0182956
1.0092773, -0.1899414, -0.2226562, -15.7926836, -15.1219511, 4.8170733, -0.0018463
1.0053711, -0.1826172, -0.21875, -15.060976, -15.3048782, 4.9390244, -0.0015106
0.9990234, -0.1772461, -0.2216797, -14.8170738, -15.3048782, 4.9390244, -0.0063783
0.9819336, -0.1650391, -0.2280273, -15.3658543, -16.2195129, 4.7560978, -0.0152743
0.9775391, -0.1542969, -0.2324219, -15.9756098, -17.0731716, 4.6951222, -0.0196384
0.9804688, -0.144043, -0.2460938, -16.8902435, -18.2926826, 4.2073174, -0.0184634
0.9804688, -0.1416016, -0.2539062, -17.3170738, -19.0853672, 4.0243902, -0.0216526
0.9946289, -0.144043, -0.2768555, -17.8048782, -19.2073174, 4.4512196, -0.0149386
1.0039062, -0.1508789, -0.2885742, -17.8658543, -19.1463413, 4.3292685, -0.0082246
1.0063477, -0.1552734, -0.2944336, -17.560976, -18.4756107, 4.6951222, -0.0015106
1.0063477, -0.1665039, -0.293457, -17.1951218, -18.1707325, 5, 0.0072175
1.0053711, -0.1674805, -0.2861328, -16.6463413, -16.5243912, 5.1829271, 0.0083925
0.9882812, -0.1635742, -0.2832031, -15.9756098, -15.3048782, 5.2439027, 0.0119173
0.9799805, -0.1582031, -0.2880859, -16.280489, -14.9390249, 5.2439027, 0.0240024
0.9658203, -0.1450195, -0.2910156, -17.0121956, -14.3902445, 4.9390244, 0.0347448
0.9648438, -0.137207, -0.2905273, -17.5, -14.3292685, 5.0609756, 0.0448157
0.9619141, -0.1357422, -0.2895508, -18.5975609, -14.2682934, 4.5731707, 0.0441444
0.9658203, -0.1430664, -0.2885742, -18.7195129, -14.6951227, 4.8780489, 0.0317235
0.984375, -0.1557617, -0.2744141, -18.8414631, -15.3048782, 5.1219511, 0.0260166
0.9907227, -0.175293, -0.2519531, -18.5975609, -15.9146347, 5.0609756, 0.0166171
0.9882812, -0.1894531, -0.2470703, -17.560976, -15.3048782, 5.3048782, 0.0139315
0.9707031, -0.1992188, -0.2436523, -17.7439022, -15.3658543, 5.3048782, 0.011078
0.9541016, -0.1977539, -0.2451172, -16.2195129, -15.7317076, 5.4878049, -0.0035248
0.9331055, -0.1875, -0.2617188, -15.4268293, -16.5853653, 5.7926831, -0.0182956
0.9267578, -0.1787109, -0.2685547, -15.1219511, -17.3170738, 5.7317076, -0.030045
0.9316406, -0.159668, -0.2753906, -15.1829271, -18.4146347, 5.9756098, -0.0485084
0.9375, -0.1503906, -0.2797852, -15.3048782, -18.9634151, 6.1585369, -0.0887922
0.9545898, -0.1323242, -0.2944336, -16.8292694, -19.8170738, 6.280488, -0.1243763
0.9638672, -0.1264648, -0.3012695, -17.8048782, -20.2439022, 5.9756098, -0.1438468
0.9873047, -0.1342773, -0.3051758, -18.9024391, -21.0365868, 6.280488, -0.1676814
0.9926758, -0.1430664, -0.3037109, -19.2073174, -21.7073174, 6.0975609, -0.1750668
0.9956055, -0.1547852, -0.3022461, -19.8170738, -22.6829281, 6.5243902, -0.193698
0.9916992, -0.1635742, -0.2983398, -19.939024, -23.6585369, 6.890244, -0.2012512
0.9838867, -0.1689453, -0.2929688, -20.3658543, -24.6341476, 7.2560978, -0.1884947
0.9677734, -0.1660156, -0.2797852, -20.3048782, -25.6097565, 7.3780489, -0.1754025
0.9570312, -0.1630859, -0.2680664, -19.7560978, -26.2195129, 7.3780489, -0.1545892
0.9379883, -0.15625, -0.2578125, -18.3536587, -27.6829281, 7.3780489, -0.1186694
0.9350586, -0.1577148, -0.2602539, -17.7439022, -28.5975609, 7.3780489, -0.0995346
0.9394531, -0.1567383, -0.2724609, -17.6829281, -31.1585369, 7.5, -0.0834211
0.9384766, -0.1518555, -0.2788086, -17.8658543, -32.3780479, 7.6219516, -0.0654612
0.9433594, -0.1640625, -0.2763672, -19.4512196, -34.3902435, 7.4390244, -0.0337377
0.940918, -0.1679688, -0.2641602, -20, -35.1219521, 7.1341467, -0.005539
0.9355469, -0.1777344, -0.2587891, -20.4268303, -37.1951218, 6.7073174, 0.0142672
0.921875, -0.1806641, -0.2578125, -20.5487804, -38.3536606, 6.6463418, 0.0325628
0.9145508, -0.1733398, -0.2666016, -20.3048782, -40.9146347, 6.7682929, 0.0582437
0.9106445, -0.168457, -0.2783203, -20, -43.4146347, 7.2560978, 0.0884565
0.9121094, -0.1640625, -0.28125, -20, -44.6341476, 7.5609756, 0.1149767
0.9228516, -0.1665039, -0.2714844, -19.1463413, -47.9268303, 7.6829271, 0.1320974
0.9375, -0.175293, -0.2626953, -19.2073174, -49.5731735, 7.6829271, 0.1327687
0.9619141, -0.1811523, -0.2558594, -18.4146347, -53.1097565, 6.890244, 0.117998
0.9702148, -0.1894531, -0.2578125, -18.2926826, -54.3902435, 6.4024391, 0.110277
0.9799805, -0.1958008, -0.2739258, -17.8048782, -57.8048782, 5, 0.0944991
0.9755859, -0.2016602, -0.2963867, -17.6219521, -59.3902435, 4.5121951, 0.0730144
0.9746094, -0.2055664, -0.3110352, -17.2560978, -62.7439041, 4.2682929, 0.057908
0.9755859, -0.203125, -0.3505859, -17.0121956, -63.7195129, 4.5731707, 0.0394446
0.9760742, -0.2021484, -0.3735352, -16.0975609, -65.5487823, 5.2439027, 0.0240024
0.9887695, -0.1884766, -0.4038086, -15.6097565, -66.6463394, 6.0365853, 0.0085603
0.9931641, -0.1787109, -0.4150391, -15.4878054, -66.7073212, 6.3414636, -0.0095674
1.0083008, -0.1552734, -0.4277344, -16.2195129, -67.0121994, 6.5853658, -0.0218204
1.0097656, -0.144043, -0.4331055, -16.7682934, -67.1341476, 6.8292685, -0.0224918
1.0131836, -0.1381836, -0.4423828, -18.4146347, -67.6219559, 6.5853658, -0.0298772
1.012207, -0.140625, -0.4516602, -19.2682934, -67.7439041, 6.7073174, -0.0392767
1.0048828, -0.1494141, -0.4545898, -22.1951218, -67.8048782, 6.890244, -0.0525368
0.9912109, -0.1625977, -0.4575195, -23.4146347, -67.9878082, 7.8048782, -0.0639506
0.9819336, -0.1621094, -0.465332, -25.1219521, -67.7439041, 8.6585369, -0.0793927
0.9667969, -0.159668, -0.4760742, -25.7926826, -67.7439041, 8.9634151, -0.0961776
0.9628906, -0.1557617, -0.4780273, -26.7073174, -67.1951218, 10.3658543, -0.1096056
0.9672852, -0.1489258, -0.4736328, -26.8902454, -66.7682953, 11.341464, -0.1263905
0.9716797, -0.1430664, -0.472168, -27.2560978, -66.7073212, 11.9512196, -0.1418326
0.9853516, -0.1411133, -0.4536133, -27.8048782, -67.0731735, 12.6829271, -0.1485466
0.9951172, -0.1416016, -0.4526367, -28.3536587, -67.1951218, 12.6829271, -0.1545892
1.003418, -0.1538086, -0.4604492, -28.9634151, -66.9512177, 12.5, -0.1440146
1.0039062, -0.159668, -0.4682617, -29.5731716, -66.8292694, 12.4390249, -0.142504
1.0014648, -0.1748047, -0.4882812, -30.2439022, -67.1951218, 12.4390249, -0.1381399
0.9995117, -0.1899414, -0.5014648, -30.6707325, -67.1341476, 12.8048782, -0.1196765
1.0014648, -0.1928711, -0.4980469, -31.0975609, -66.8292694, 14.1463413, -0.1012131
0.9995117, -0.1894531, -0.4824219, -30.9146347, -66.1585388, 14.6951227, -0.0861067
1, -0.1821289, -0.4731445, -30.5487804, -65.1219559, 15.5487804, -0.0676432
0.9970703, -0.1518555, -0.4599609, -30.3048782, -65.0609741, 16.3414631, -0.0552224
0.9956055, -0.1416016, -0.4594727, -30.5487804, -65.18293, 16.4634151, -0.0569009
0.9902344, -0.125, -0.4750977, -31.8292694, -65.9146347, 16.7682934, -0.0599222
0.9931641, -0.1142578, -0.4868164, -33.1707306, -66.6463394, 17.1341476, -0.0411231
0.9936523, -0.1181641, -0.5073242, -36.1585388, -68.4146347, 17.7439022, -0.0216526
0.9990234, -0.1308594, -0.5068359, -37.0731697, -69.1463394, 17.9268303, -0.0203098
1.0053711, -0.1450195, -0.496582, -39.0243912, -70.6097565, 17.8658543, -0.0135958
1.0078125, -0.175293, -0.4628906, -39.7560997, -71.1585388, 17.9268303, -0.0104067
1.0029297, -0.1933594, -0.4448242, -39.9390259, -72.0731735, 17.8048782, -0.0085603
0.980957, -0.21875, -0.4125977, -39.6951218, -72.68293, 17.6219521, -0.0124208
0.9697266, -0.222168, -0.4033203, -38.5365868, -74.6951218, 17.9268303, -0.01561
0.9492188, -0.2314453, -0.40625, -36.2804871, -77.8658524, 18.0487804, -0.0149386
0.9418945, -0.2299805, -0.4082031, -35, -79.8170776, 18.1707325, -0.0048676
0.9433594, -0.2192383, -0.4316406, -32.9268303, -83.1097565, 18.1707325, -0.0057069
0.9516602, -0.2109375, -0.4462891, -32.1341476, -84.6341476, 18.2317085, -0.0112459
0.9672852, -0.1962891, -0.4677734, -31.5243912, -87.0731735, 18.4756107, -0.0219883
0.9804688, -0.1875, -0.4707031, -31.6463413, -87.8048782, 18.5365849, -0.0243381
0.9897461, -0.1787109, -0.4736328, -31.341465, -89.5121994, 18.3536587, -0.0209812
1.003418, -0.1674805, -0.5024414, -30.7317085, -90.6097565, 18.1097565, -0.0176242
1.0063477, -0.1582031, -0.5322266, -30.4268303, -91.7073212, 18.2317085, -0.0196384
0.9975586, -0.140625, -0.5942383, -30.2439022, -92.1951218, 18.2317085, -0.0142672
1.0043945, -0.1367188, -0.6123047, -31.6463413, -93.1097565, 18.9634151, -0.021149
1.0141602, -0.1499023, -0.5908203, -33.5975609, -94.146347, 19.7560978, -0.0260166
1.0209961, -0.1625977, -0.5600586, -34.2073174, -94.6951218, 19.6341476, -0.017792
1.0209961, -0.2011719, -0.5083008, -34.3902435, -95.6097565, 19.0243912, -0.0172885
1.0078125, -0.2197266, -0.4951172, -33.7804871, -95.7317123, 18.5975609, -0.0248417
0.9726562, -0.2509766, -0.4985352, -31.5853672, -96.8292694, 17.6219521, -0.0357519
0.9272461, -0.2617188, -0.5112305, -30.7317085, -97.5, 17.2560978, -0.0464942
0.9116211, -0.2558594, -0.5131836, -28.2926826, -99.4512253, 17.8048782, -0.061265
0.9072266, -0.2314453, -0.519043, -27.3170738, -100.4268341, 18.6585369, -0.0713359
0.9086914, -0.2216797, -0.5249023, -25.6707325, -102.0731735, 19.8780499, -0.0706645
0.9194336, -0.1943359, -0.5615234, -25.2439022, -102.3780518, 20, -0.0795605
0.9267578, -0.1889648, -0.5776367, -25.6097565, -103.3536606, 20.1219521, -0.0703288
0.9443359, -0.1835938, -0.6083984, -26.5243912, -104.6951218, 19.7560978, -0.0666361
0.956543, -0.1816406, -0.621582, -27.0121956, -105.6097565, 19.6341476, -0.0555581
0.9868164, -0.1879883, -0.6225586, -27.6829281, -106.4634171, 19.2682934, -0.0464942
1, -0.1977539, -0.6206055, -27.9268303, -106.4634171, 19.0853672, -0.0391089
1.0107422, -0.2265625, -0.6103516, -28.1707325, -106.646347, 18.6585369, -0.0297093
1.0029297, -0.2578125, -0.6020508, -27.8658543, -106.7073212, 18.5365849, -0.0115816
0.9892578, -0.2719727, -0.5981445, -26.4024391, -107.1951218, 18.2926826, 0.0008392
0.9643555, -0.2851562, -0.5883789, -25.6707325, -107.6219559, 18.2317085, -0.0001678
0.9541016, -0.2822266, -0.5917969, -23.780489, -108.4756088, 18.0487804, 0.0018463
0.918457, -0.2392578, -0.609375, -22.1341476, -109.2682953, 18.9024391, 0.0025177
0.9033203, -0.2050781, -0.6206055, -21.4634151, -109.2073212, 19.6951218, -0.0008392
0.8935547, -0.1391602, -0.6494141, -21.8902435, -109.8170776, 20.7926826, -0.0105745
0.8945312, -0.1142578, -0.6567383, -22.439024, -110.36586, 21.2195129, -0.012253
0.9116211, -0.1030273, -0.6508789, -24.5121956, -112.3170776, 22.2560978, -0.0048676
0.9233398, -0.1069336, -0.640625, -25.9146347, -113.1707306, 22.5, -0.0115816
0.9404297, -0.1293945, -0.6313477, -27.9878063, -113.9024429, 22.6829281, -0.0229953
0.9384766, -0.1567383, -0.6616211, -29.0853672, -113.8414688, 22.7439022, -0.0290379
0.9272461, -0.1704102, -0.6816406, -29.5121956, -113.9634171, 22.9268303, -0.0196384
0.9165039, -0.1850586, -0.7177734, -29.8170738, -114.3292694, 23.2926826, -0.0149386
0.9155273, -0.1962891, -0.7216797, -30, -115, 24.4512196, -0.0149386
0.9287109, -0.2114258, -0.7006836, -29.9390259, -115.18293, 25.4878063, -0.0287022
0.9321289, -0.2270508, -0.6826172, -29.3902454, -114.8780518, 25.7317085, -0.043473
0.9399414, -0.2441406, -0.6494141, -28.0487804, -114.2682953, 26.0975609, -0.0508583
0.9350586, -0.2480469, -0.6401367, -27.0731716, -114.3292694, 25.6097565, -0.0676432
0.9213867, -0.2539062, -0.6401367, -26.0975609, -115.6097565, 24.5121956, -0.0731823
0.9106445, -0.253418, -0.6391602, -25.2439022, -116.5853653, 24.1463413, -0.0864424
0.8862305, -0.2529297, -0.6577148, -24.6341476, -118.8414688, 24.2682934, -0.0916457
0.8842773, -0.2558594, -0.6650391, -24.3292694, -119.7561035, 24.6341476, -0.0995346
0.8852539, -0.2607422, -0.6621094, -23.5975609, -121.0365906, 25.3658543, -0.1017166
0.90625, -0.2797852, -0.6625977, -23.3536587, -121.7682953, 25, -0.0988632
0.9082031, -0.2836914, -0.6699219, -22.1951218, -122.7439041, 24.3902435, -0.0975204
0.9086914, -0.2900391, -0.7045898, -21.1585369, -122.9268341, 23.3536587, -0.0881209
0.9023438, -0.2856445, -0.7231445, -20.1829281, -123.1097565, 22.9268303, -0.0693217
0.8984375, -0.2680664, -0.7568359, -18.8414631, -123.5365906, 22.8658543, -0.0565652
0.8974609, -0.2543945, -0.762207, -18.5975609, -123.3536606, 22.9268303, -0.0391089
0.8964844, -0.2211914, -0.7641602, -18.2926826, -122.86586, 23.6585369, -0.030045
0.8979492, -0.2050781, -0.7539062, -18.9024391, -122.68293, 23.8414631, -0.0320592
0.9003906, -0.1977539, -0.7290039, -20.1829281, -122.3780518, 23.2926826, -0.0271916
0.890625, -0.2075195, -0.7241211, -20.6707325, -122.6219559, 22.9878063, -0.0323949
0.8798828, -0.2236328, -0.7231445, -21.5853672, -123.5975647, 21.7073174, -0.0471656
0.8569336, -0.2548828, -0.7392578, -21.5853672, -124.4512253, 21.4024391, -0.0522011
0.8388672, -0.2641602, -0.7470703, -20.9146347, -125.7926865, 21.5243912, -0.0599222
0.824707, -0.2670898, -0.7524414, -19.8170738, -126.8292694, 22.0121956, -0.0585794
0.8212891, -0.2583008, -0.7553711, -19.6341476, -127.0731735, 22.0731716, -0.0565652
0.8154297, -0.2250977, -0.7587891, -19.3902435, -126.9512253, 22.3170738, -0.0528725
0.8173828, -0.2084961, -0.7646484, -19.3292694, -127.0731735, 21.7682934, -0.0438087
0.8286133, -0.2036133, -0.7929688, -20.5487804, -127.7439041, 20.9756107, -0.0458228
0.8344727, -0.2143555, -0.7866211, -21.0365868, -128.7804871, 20.9756107, -0.0417945
0.8642578, -0.269043, -0.7641602, -22.5, -129.9390259, 21.1585369, -0.0203098
0.8774414, -0.3334961, -0.7412109, -22.8658543, -130.2439117, 21.3414631, -0.0182956
0.8730469, -0.3530273, -0.7407227, -20.5487804, -129.8170776, 20.6097565, -0.0058747
0.8432617, -0.3540039, -0.7729492, -18.780489, -129.4512177, 20, 0.0031891
0.8173828, -0.3320312, -0.8027344, -14.6341467, -128.6585388, 19.1463413, -0.0008392
0.7783203, -0.265625, -0.8769531, -12.1951218, -127.5609818, 19.8170738, -0.0082246
0.7705078, -0.2299805, -0.9008789, -12.4390249, -127.0121994, 20.4268303, -0.0162814
0.7895508, -0.1762695, -0.9111328, -14.0243902, -126.5243912, 21.280489, -0.0206455
0.8125, -0.1611328, -0.8979492, -15.4268293, -125.8536606, 21.7682934, -0.0357519
0.8540039, -0.1542969, -0.8554688, -17.3170738, -124.8170776, 22.6219521, -0.0340734
0.871582, -0.1660156, -0.8349609, -17.9878044, -124.6951218, 22.8658543, -0.047837
0.8852539, -0.1914062, -0.8056641, -19.4512196, -124.6341476, 22.7439022, -0.0673075
0.8642578, -0.2211914, -0.7817383, -19.6951218, -125.2439041, 22.8658543, -0.0740215
0.8525391, -0.2333984, -0.7817383, -20.1829281, -126.2804871, 23.5975609, -0.0834211
0.8164062, -0.2373047, -0.8037109, -20.1219521, -126.5243912, 23.6585369, -0.0874495
0.7963867, -0.2236328, -0.8276367, -19.6341476, -126.7682953, 23.8414631, -0.0988632
0.7661133, -0.1962891, -0.8867188, -20, -127.3170776, 24.3292694, -0.0951705
0.765625, -0.1879883, -0.9008789, -20.6097565, -127.9268341, 24.8780499, -0.1030594
0.7841797, -0.2133789, -0.8867188, -22.6829281, -128.3536682, 25.5487804, -0.1075914
0.8022461, -0.2338867, -0.8764648, -23.5975609, -128.2317047, 26.0975609, -0.1085985
0.8105469, -0.2573242, -0.8710938, -23.8414631, -126.7073212, 26.4024391, -0.109102
0.8095703, -0.2651367, -0.8774414, -23.4756107, -126.0975647, 26.4634151, -0.1126268
0.7973633, -0.2495117, -0.871582, -22.6219521, -126.4634171, 26.3414631, -0.1065843
0.7880859, -0.2397461, -0.8266602, -22.3170738, -126.8292694, 26.2195129, -0.1045701
0.7841797, -0.2431641, -0.8081055, -22.6219521, -127.3170776, 26.280489, -0.1032273
0.7680664, -0.2451172, -0.8076172, -22.6829281, -127.2561035, 26.1585369, -0.0944991
0.7558594, -0.25, -0.8149414, -23.0487804, -129.3292694, 25.4268303, -0.0683146
0.7416992, -0.2729492, -0.8359375, -22.9268303, -132.0731812, 25.060976, -0.0340734
0.737793, -0.2890625, -0.8530273, -22.5, -132.9268341, 24.9390259, -0.0075532
0.7397461, -0.3120117, -0.8935547, -20.6707325, -132.9878082, 25.9756107, 0.0182956
0.7431641, -0.3183594, -0.9111328, -19.5731716, -132.9268341, 25.9146347, 0.0320592
0.765625, -0.3276367, -0.9228516, -17.0121956, -132.1341553, 25.5487804, 0.0370947
0.7792969, -0.3339844, -0.9091797, -15.8536587, -132.0731812, 25.5487804, 0.0458228
0.8051758, -0.3286133, -0.8803711, -13.9024391, -131.1585388, 24.7560978, 0.0337377
0.8037109, -0.315918, -0.8691406, -13.0487804, -130.3048859, 23.9024391, 0.0179599
0.7949219, -0.3085938, -0.8681641, -11.341464, -129.2682953, 22.3170738, 0.0092317
0.7587891, -0.2744141, -0.8701172, -11.0365858, -129.5121918, 21.7073174, 0.0018463
0.7421875, -0.2583008, -0.8720703, -10.6097565, -130.36586, 20.6707325, -0.012253
0.7036133, -0.2236328, -0.8808594, -10.7317076, -130.9146423, 20.060976, -0.0078889
0.6850586, -0.206543, -0.8984375, -11.341464, -131.4024353, 19.8780499, -0.0035248
0.6552734, -0.1645508, -0.9194336, -14.0243902, -132.5609741, 20.1829281, -0.0125887
0.6489258, -0.1508789, -0.9130859, -15.5487804, -133.2926788, 20.6097565, -0.0216526
0.659668, -0.1420898, -0.9140625, -20.1219521, -134.8780518, 21.4634151, -0.0216526
0.6630859, -0.1430664, -0.9165039, -22.439024, -135.4268341, 22.0121956, -0.0270237
0.684082, -0.1704102, -0.9326172, -26.2195129, -136.0975647, 23.5365868, -0.0310521
0.6904297, -0.2158203, -0.9467773, -27.5, -136.5243988, 24.4512196, -0.0303807
0.6987305, -0.2353516, -0.9418945, -29.2073174, -137.5609741, 25.7926826, -0.0411231
0.7128906, -0.2651367, -0.9145508, -28.9634151, -137.5, 26.2195129, -0.0399481
0.7124023, -0.2768555, -0.8945312, -28.0487804, -137.0731812, 26.1585369, -0.0431373
0.6918945, -0.2885742, -0.8691406, -26.3414631, -136.2804871, 25.3048782, -0.0454871
0.6738281, -0.293457, -0.8730469, -25.3658543, -136.1585388, 24.8780499, -0.0466621
0.6357422, -0.2895508, -0.9008789, -22.9268303, -137.3780518, 24.3902435, -0.0569009
0.621582, -0.2919922, -0.9150391, -21.8902435, -138.3536682, 23.9024391, -0.0558938
0.6030273, -0.2973633, -0.9238281, -20.1219521, -139.146347, 23.7195129, -0.054551
0.6098633, -0.300293, -0.9179688, -19.5731716, -139.3902435, 23.9024391, -0.0569009
0.6230469, -0.2856445, -0.921875, -18.5365849, -138.9634247, 23.8414631, -0.0565652
0.6308594, -0.2392578, -0.965332, -18.3536587, -138.7804871, 23.2317085, -0.061265
0.6362305, -0.222168, -0.9956055, -19.0243912, -139.4512177, 22.3780499, -0.0743572
0.6518555, -0.2143555, -1.0249023, -19.6341476, -139.7561035, 22.2560978, -0.0710002
0.6606445, -0.2163086, -1.0219727, -21.4024391, -140.0609741, 23.8414631, -0.0681468
0.6870117, -0.2299805, -0.9941406, -22.5, -138.1707306, 25.3658543, -0.0649577
0.6958008, -0.2441406, -0.9741211, -22.1341476, -137.1951294, 25.9756107, -0.0585794
0.684082, -0.2749023, -0.9482422, -20.4268303, -136.2804871, 25.9146347, -0.0538796
0.6723633, -0.2836914, -0.9404297, -19.3902435, -136.2195129, 25.4878063, -0.0622721
0.6259766, -0.2875977, -0.9536133, -16.9512196, -136.7682953, 25.060976, -0.057908
0.5961914, -0.277832, -0.9716797, -16.4024391, -137.0121918, 24.6951218, -0.0558938
0.5585938, -0.2392578, -1.0083008, -17.0121956, -137.7439117, 24.6341476, -0.0491798
0.5400391, -0.175293, -1.0209961, -18.4756107, -138.2317047, 24.4512196, -0.0377661
0.5415039, -0.1416016, -1.012207, -21.9512196, -139.6951294, 24.4512196, -0.0283665
0.546875, -0.1118164, -0.9892578, -23.5365868, -139.9390259, 24.1463413, -0.0184634
0.5551758, -0.1181641, -0.9824219, -26.0365868, -139.7561035, 25.1219521, -0.0166171
0.5673828, -0.171875, -0.96875, -27.5, -140, 27.560976, -0.0142672
0.5820312, -0.2026367, -0.9614258, -27.8048782, -140.6097565, 28.7195129, -0.0298772
0.6005859, -0.2583008, -0.9501953, -27.1951218, -140.9756165, 30.4878063, -0.0533761
0.605957, -0.28125, -0.9614258, -26.3414631, -140.6707306, 30.5487804, -0.0740215
0.581543, -0.2998047, -1.0288086, -24.0853672, -139.3292694, 30.3658543, -0.0814069
0.5708008, -0.3061523, -1.0673828, -23.2926826, -139.146347, 30.5487804, -0.0847639
0.5732422, -0.3056641, -1.0869141, -21.7682934, -138.1707306, 30.3048782, -0.0861067
0.5947266, -0.2856445, -1.0634766, -21.4024391, -137.3780518, 30.1219521, -0.0780499
0.6064453, -0.2729492, -1.0454102, -20.9756107, -134.8170776, 29.1463413, -0.0693217
0.6201172, -0.2563477, -1, -21.0975609, -133.9634247, 27.9268303, -0.0485084
0.6171875, -0.2578125, -0.9785156, -21.4634151, -133.7804871, 25.5487804, -0.0221561
0.5913086, -0.2685547, -0.965332, -21.7682934, -134.4512177, 24.0243912, -0.0048676
0.5639648, -0.2680664, -0.9731445, -21.6463413, -134.8170776, 23.8414631, 0.024506
0.5024414, -0.2719727, -1.0151367, -21.2195129, -134.3902435, 22.9878063, 0.0532082
0.4760742, -0.2641602, -1.0405273, -20.4268303, -134.6341553, 23.2317085, 0.0730144
0.4501953, -0.2524414, -1.0478516, -19.3902435, -134.8780518, 24.2073174, 0.0869459
0.4682617, -0.2553711, -1.0175781, -18.780489, -134.5121918, 24.6341476, 0.0867781
0.480957, -0.2539062, -1.0004883, -18.2926826, -133.4146423, 25.2439022, 0.0783856
0.5, -0.2475586, -1.0043945, -18.2926826, -133.2926788, 25.060976, 0.0627756
0.5068359, -0.2490234, -1.0214844, -19.0853672, -133.5365906, 23.8414631, 0.0448157
0.5004883, -0.2387695, -1.0634766, -19.5121956, -133.8414612, 23.9024391, 0.0307164
0.4951172, -0.2358398, -1.0864258, -20.6097565, -134.2073212, 23.9634151, 0.0130922
0.5014648, -0.2358398, -1.0942383, -20.4878044, -133.0487823, 24.8780499, -0.0099031
0.5029297, -0.2460938, -1.0888672, -20.5487804, -132.2561035, 25.1829281, -0.0323949
0.5175781, -0.2583008, -1.0668945, -20.2439022, -130.6097565, 25.4268303, -0.0417945
0.5175781, -0.2631836, -1.0615234, -19.8170738, -129.8170776, 25.1219521, -0.0528725
0.5019531, -0.2734375, -1.090332, -18.9634151, -129.2073212, 25.060976, -0.0532082
0.4892578, -0.2753906, -1.1035156, -18.1097565, -129.2073212, 25.4878063, -0.0488441
0.4970703, -0.2788086, -1.0771484, -17.7439022, -128.9634247, 25.3658543, -0.047837
0.5004883, -0.2895508, -0.9897461, -17.5, -128.6585388, 25.1219521, -0.0431373
0.4873047, -0.2973633, -0.9663086, -17.439024, -126.5853653, 23.8414631, -0.0354162
0.4125977, -0.2783203, -1.0209961, -17.6829281, -125.4268341, 22.7439022, -0.0287022
0.3603516, -0.2480469, -1.0698242, -18.0487804, -126.7682953, 21.4024391, -0.0176242
0.3085938, -0.1762695, -1.1254883, -19.6341476, -130.7926788, 21.4024391, -0.0109102
0.3100586, -0.1479492, -1.1152344, -20.8536587, -132.2561035, 21.8902435, 0.0063783
0.3623047, -0.1469727, -1.0551758, -24.3902435, -131.0975647, 23.1707325, 0.0115816
0.3891602, -0.1791992, -1.0332031, -25.7926826, -129.8780518, 23.8414631, 0.0206455
0.4086914, -0.2631836, -1.0244141, -27.1951218, -129.8170776, 25.8536587, 0.0323949
0.4038086, -0.3222656, -1.0170898, -27.1951218, -131.4634247, 26.7073174, 0.0414588
0.3974609, -0.3364258, -0.9990234, -25, -133.7804871, 26.7073174, 0.0290379
0.3549805, -0.3183594, -0.9775391, -23.4756107, -133.7195129, 25.9756107, 0.0273594
0.3188477, -0.2988281, -0.9897461, -19.8780499, -131.646347, 23.780489, 0.0260166
0.2382812, -0.2460938, -1.0693359, -19.2682934, -131.2804871, 22.9878063, 0.0119173
0.2124023, -0.21875, -1.1157227, -20.9756107, -133.8414612, 22.9878063, 0.0196384
0.2226562, -0.1801758, -1.1582031, -24.7560978, -138.2317047, 23.9024391, 0.0186313
0.2563477, -0.1689453, -1.1411133, -26.4634151, -139.5731812, 24.3292694, 0.0240024
0.3374023, -0.1606445, -1.0756836, -28.5975609, -138.5975647, 24.2682934, 0.0213169
0.3544922, -0.1728516, -1.0532227, -29.3292694, -136.646347, 24.3292694, -0.0008392
0.3457031, -0.2265625, -1.0615234, -29.0853672, -134.2073212, 25.6097565, -0.0124208
0.3173828, -0.284668, -1.128418, -28.5365868, -134.0243988, 27.1951218, -0.0199741
0.3105469, -0.3046875, -1.1474609, -25.9146347, -134.4512177, 30.3048782, -0.0149386
0.3173828, -0.328125, -1.1538086, -23.9634151, -134.146347, 31.1585369, -0.0256809
0.324707, -0.3305664, -1.15625, -21.0365868, -131.5853729, 30.8536587, -0.033402
0.3085938, -0.3056641, -1.1816406, -20.1219521, -127.0121994, 29.2682934, -0.0411231
0.2963867, -0.2783203, -1.1914062, -20.3048782, -125.7926865, 28.2926826, -0.04448
0.2856445, -0.2402344, -1.1572266, -21.5853672, -126.2195129, 26.5243912, -0.0532082
0.2924805, -0.234375, -1.1118164, -22.1951218, -126.8902435, 25.9756107, -0.0683146
0.2905273, -0.2558594, -1.0380859, -23.1097565, -126.4634171, 25.6707325, -0.0713359
0.2788086, -0.2719727, -1.0292969, -23.0487804, -125.7926865, 25.4878063, -0.0639506
0.2246094, -0.2822266, -1.0683594, -23.780489, -126.8902435, 25.2439022, -0.0750286
0.1806641, -0.2666016, -1.1010742, -23.780489, -128.0487823, 25.3048782, -0.0955062
0.1689453, -0.2548828, -1.0942383, -24.7560978, -130.1219482, 25.2439022, -0.1025559
0.1655273, -0.2446289, -1.0712891, -24.8780499, -130.6097565, 25.1219521, -0.1038987
0.1708984, -0.2607422, -1.0615234, -23.8414631, -129.8170776, 25.6097565, -0.0995346
0.184082, -0.300293, -1.0703125, -21.8902435, -130.8536682, 27.6219521, -0.0981918
0.1894531, -0.309082, -1.0825195, -20.8536587, -131.4024353, 28.4756107, -0.0943313
0.2138672, -0.2871094, -1.1152344, -19.8780499, -130.9146423, 27.9878063, -0.0854353
0.2104492, -0.2641602, -1.1152344, -20.4268303, -130.1829224, 26.5853672, -0.0807355
0.1958008, -0.2275391, -1.0712891, -22.560976, -129.2073212, 23.2317085, -0.0649577
0.1811523, -0.2275391, -1.0371094, -23.6585369, -130.1829224, 22.2560978, -0.0569009
0.1445312, -0.2495117, -1.0009766, -25, -131.7682953, 22.5, -0.0726787
0.1025391, -0.2421875, -1.0678711, -24.9390259, -132.1341553, 23.2926826, -0.0753643
0.0893555, -0.2285156, -1.1181641, -24.4512196, -133.1097565, 24.9390259, -0.0673075
0.0981445, -0.2016602, -1.1547852, -24.5731716, -134.146347, 25.1829281, -0.0726787
0.1235352, -0.1977539, -1.1323242, -25.5487804, -135, 25.4878063, -0.068986
0.1679688, -0.2119141, -1.0483398, -27.6219521, -132.86586, 25.7317085, -0.0543832
0.1708984, -0.2285156, -1.0161133, -28.2317085, -131.7682953, 25.7926826, -0.0270237
0.1411133, -0.2470703, -1.003418, -28.5365868, -131.5243988, 25.5487804, -0.0001678
0.1108398, -0.2514648, -1.0180664, -28.2317085, -132.86586, 25.4878063, 0.0323949
0.0478516, -0.2358398, -1.0908203, -27.5, -135.4268341, 25.7926826, 0.0505226
0.0292969, -0.2192383, -1.1220703, -27.8658543, -136.1585388, 26.0975609, 0.0513619
0.0395508, -0.1923828, -1.1420898, -29.6951218, -137.6219482, 26.9512196, 0.0454871
0.0893555, -0.1928711, -1.1220703, -30.4268303, -137.9878082, 27.5, 0.0198062
0.1054688, -0.1948242, -1.121582, -33.2317085, -137.7439117, 28.0487804, 0.0038605
0.1235352, -0.1977539, -1.1313477, -34.5121956, -137.7439117, 28.4756107, -0.0045319
0.1298828, -0.1967773, -1.1308594, -36.0975609, -138.2317047, 29.6341476, -0.0206455
0.1298828, -0.1938477, -1.1289062, -36.9512215, -137.6219482, 30.1219521, -0.0323949
0.1259766, -0.1958008, -1.1210938, -36.8902435, -136.5853729, 30.4268303, -0.0357519
0.1025391, -0.2241211, -1.0927734, -36.7682953, -134.4512177, 30.5487804, -0.0350805
0.090332, -0.2402344, -1.0737305, -36.2804871, -134.2073212, 30.6097565, -0.0313878
0.0620117, -0.2636719, -1.0371094, -34.5121956, -134.2073212, 29.6951218, -0.0270237
0.0444336, -0.2705078, -1.0307617, -33.4146347, -134.2073212, 28.9634151, -0.0330663
-0.0004883, -0.2685547, -1.0708008, -31.8292694, -133.4146423, 28.0487804, -0.0377661
-0.0209961, -0.2592773, -1.1518555, -31.5243912, -133.2317047, 27.7439022, -0.047837
-0.0180664, -0.2578125, -1.1601562, -30.7317085, -134.3902435, 28.4756107, -0.0558938
0.03125, -0.2568359, -1.0859375, -30.2439022, -135.2439117, 28.5365868, -0.0575723
0.0634766, -0.2504883, -1.0351562, -29.3902454, -134.3902435, 27.4390259, -0.057908
0.0615234, -0.2202148, -1.0107422, -29.4512196, -130.1829224, 24.8780499, -0.0656291
0.0317383, -0.2045898, -1.0307617, -30.1829281, -129.2073212, 23.6585369, -0.0720073
-0.0317383, -0.2041016, -1.0385742, -30.8536587, -132.1341553, 22.6219521, -0.0679789
-0.0444336, -0.2192383, -1.0112305, -30.9146347, -134.4512177, 22.6219521, -0.061265
-0.0512695, -0.2670898, -0.9267578, -29.5121956, -135.9756165, 22.8048782, -0.0543832
-0.0664062, -0.2832031, -0.9169922, -27.8048782, -135, 22.7439022, -0.0464942
-0.1191406, -0.2885742, -0.9692383, -25.1829281, -134.5731812, 22.6829281, -0.0391089
-0.1513672, -0.2475586, -1.0385742, -23.9634151, -136.2195129, 22.5, -0.0441444
-0.1411133, -0.2172852, -1.0546875, -23.1097565, -140.9146423, 21.8902435, -0.0337377
-0.0883789, -0.1625977, -1.0483398, -24.1463413, -142.2561035, 21.5243912, -0.0243381
-0.059082, -0.1430664, -1.0444336, -26.3414631, -141.7682953, 21.0975609, -0.0258488
-0.0200195, -0.1347656, -1.0366211, -28.4146347, -141.5243988, 20.8536587, -0.0250095
-0.0161133, -0.1499023, -1.034668, -29.2682934, -141.4024353, 21.4024391, -0.036759
-0.0161133, -0.1958008, -1.0493164, -29.3292694, -140.7926788, 23.3536587, -0.0337377
-0.0244141, -0.2099609, -1.0673828, -28.7195129, -140.1219482, 24.3292694, -0.0317235
-0.0415039, -0.2138672, -1.0698242, -26.7682934, -138.1707306, 24.6951218, -0.0370947
-0.0546875, -0.2006836, -1.0639648, -25.9756107, -137.6829376, 24.3292694, -0.0276951
-0.081543, -0.1801758, -1.0317383, -26.7682934, -137.5609741, 23.1707325, -0.0216526
-0.1083984, -0.1645508, -1.0317383, -27.6219521, -137.7439117, 22.8048782, -0.0243381
-0.1181641, -0.1660156, -1.0551758, -29.3292694, -138.9024353, 22.8048782, -0.0240024
-0.1254883, -0.1796875, -1.0800781, -29.7560978, -139.9390259, 22.8048782, -0.0310521
-0.1113281, -0.1962891, -1.0712891, -29.5731716, -141.646347, 23.9024391, -0.04448
-0.0791016, -0.2236328, -1.0322266, -27.0121956, -141.0975647, 24.7560978, -0.0552224
-0.0756836, -0.2216797, -1.0297852, -25.9146347, -139.8170776, 24.7560978, -0.0533761
-0.0961914, -0.2016602, -1.0737305, -25, -137.6829376, 25.1829281, -0.0626078
-0.1191406, -0.1787109, -1.1005859, -24.7560978, -137.9268341, 25.2439022, -0.0639506
-0.1401367, -0.137207, -1.1289062, -26.0975609, -139.2682953, 25.4878063, -0.0632792
-0.1308594, -0.1269531, -1.1220703, -26.7682934, -139.6341553, 25.8536587, -0.0706645
-0.1005859, -0.1484375, -1.0874023, -27.4390259, -137.9268341, 26.5243912, -0.0632792
-0.0805664, -0.1904297, -1.0859375, -27.5, -136.2804871, 26.9512196, -0.0740215
-0.0810547, -0.2124023, -1.0966797, -25.9146347, -133.2317047, 27.8658543, -0.0840925
-0.0854492, -0.2553711, -1.1098633, -25.1219521, -132.2561035, 28.2926826, -0.0840925
-0.0830078, -0.2651367, -1.1079102, -22.8048782, -130.2439117, 28.841465, -0.0997024
-0.0874023, -0.2592773, -1.1015625, -21.9512196, -126.5853653, 27.560976, -0.1038987
-0.0966797, -0.2353516, -1.1035156, -22.560976, -123.8414688, 26.4024391, -0.0951705
-0.1445312, -0.1650391, -1.0791016, -25.060976, -120.9756088, 23.4756107, -0.0788891
-0.1762695, -0.1352539, -1.0488281, -27.0121956, -120.6097565, 22.5, -0.0706645
-0.2138672, -0.0883789, -0.9350586, -30.3048782, -121.1585388, 20.5487804, -0.0616007
-0.2265625, -0.0961914, -0.8745117, -31.8902454, -121.1585388, 19.8170738, -0.033402
-0.2807617, -0.1748047, -0.800293, -33.3536606, -122.3780518, 19.8780499, -0.0152743
-0.3481445, -0.2509766, -0.8222656, -32.9878044, -123.5975647, 20.6707325, 0.0005035
-0.3764648, -0.2753906, -0.8618164, -31.7073174, -126.8902435, 22.3170738, 0.0260166
-0.4116211, -0.2705078, -0.9628906, -30.8536587, -128.2926788, 22.8658543, 0.0582437
-0.4086914, -0.2387695, -1.0019531, -30.6097565, -131.1585388, 22.8658543, 0.0777142
-0.3476562, -0.1557617, -1.0073242, -32.3780479, -134.0243988, 21.5853672, 0.1032273
-0.3017578, -0.1230469, -0.9741211, -33.5975609, -134.6951294, 20.7926826, 0.1237049
-0.2348633, -0.09375, -0.8925781, -35.5487823, -133.7195129, 18.4146347, 0.1307546
-0.2216797, -0.1079102, -0.8710938, -35.7317085, -132.9268341, 18.4756107, 0.1351186
-0.2324219, -0.1738281, -0.8911133, -33.6585388, -132.86586, 19.7560978, 0.1339437
-0.25, -0.199707, -0.9282227, -32.1951218, -132.7439117, 20.6707325, 0.128069
-0.2988281, -0.2084961, -1.0112305, -30.9146347, -132.8048859, 21.5853672, 0.1216907
-0.3217773, -0.1938477, -1.0385742, -30.9146347, -132.86586, 21.4024391, 0.1042344
-0.3232422, -0.1860352, -1.0258789, -31.7073174, -134.3902435, 21.280489, 0.0891279
-0.2924805, -0.1625977, -0.9741211, -31.7682934, -135.0609741, 21.280489, 0.0773785
-0.2709961, -0.1582031, -0.9467773, -31.280489, -135.9756165, 20.9756107, 0.0552224
-0.2514648, -0.15625, -0.9472656, -29.9390259, -134.5731812, 19.8170738, 0.0386053
-0.2578125, -0.1582031, -0.9663086, -29.0853672, -134.0243988, 19.8780499, 0.0199741
-0.2807617, -0.1669922, -0.9941406, -27.8048782, -132.6829224, 20.1829281, 0.0060426
-0.2929688, -0.1767578, -0.9907227, -27.1951218, -131.9512177, 21.0975609, -0.0048676
-0.3134766, -0.1958008, -0.9536133, -24.8780499, -129.3902435, 22.1951218, -0.0169528
-0.3232422, -0.1977539, -0.9384766, -23.5975609, -128.2317047, 22.2560978, -0.012253
-0.3491211, -0.1787109, -0.9482422, -21.9512196, -127.3170776, 21.9512196, -0.0102388
-0.3745117, -0.1416016, -0.9887695, -22.1951218, -127.7439041, 21.4634151, 0.0015106
-0.3730469, -0.1289062, -1.0014648, -23.2926826, -130.1829224, 22.0731716, 0.0035248
-0.3525391, -0.1142578, -0.9770508, -23.780489, -130.5487823, 22.1341476, 0.0099031
-0.3388672, -0.1118164, -0.9560547, -24.5121956, -130.2439117, 22.0731716, 0.0132601
-0.3164062, -0.1230469, -0.9321289, -25.6707325, -127.3170776, 20.9756107, 0.0320592
-0.3217773, -0.1323242, -0.9282227, -26.2195129, -126.0365906, 20.9146347, 0.051194
-0.3496094, -0.1450195, -0.918457, -26.9512196, -125.18293, 20.9756107, 0.0669718
-0.3676758, -0.137207, -0.9111328, -27.3170738, -124.9390259, 21.4024391, 0.079057
-0.402832, -0.0805664, -0.8666992, -28.5975609, -124.6341476, 20.2439022, 0.0978561
-0.421875, -0.0395508, -0.8330078, -29.5731716, -124.4512253, 19.1463413, 0.1032273
-0.4838867, 0.0029297, -0.8007812, -32.5, -124.6341476, 17.560976, 0.1030594
-0.5205078, -0.0371094, -0.8378906, -33.9634171, -125.9756165, 17.9878044, 0.1052415
-0.5234375, -0.078125, -0.875, -35.8536606, -130.7317047, 21.6463413, 0.1096056
-0.4790039, -0.1479492, -0.9423828, -36.1585388, -132.5609741, 23.9024391, 0.1038987
-0.4443359, -0.1630859, -0.9624023, -34.5731697, -133.8414612, 26.5243912, 0.0965133
-0.3696289, -0.1630859, -0.9643555, -33.1707306, -131.646347, 26.280489, 0.0881209
-0.3505859, -0.1469727, -0.9536133, -33.2926826, -129.2682953, 25.6707325, 0.0708324
-0.3457031, -0.0986328, -0.9287109, -35.3048782, -126.0365906, 23.9024391, 0.0602579
-0.3540039, -0.0761719, -0.9223633, -36.5853653, -125.36586, 23.2926826, 0.0464942
-0.3867188, -0.0576172, -0.9125977, -38.5975609, -125.6707382, 22.7439022, 0.0364233
-0.4067383, -0.0664062, -0.90625, -38.9024391, -126.3414688, 23.4146347, 0.0305486
-0.4228516, -0.090332, -0.887207, -39.4512215, -126.4634171, 25, 0.0186313
-0.4394531, -0.0981445, -0.8999023, -39.8780479, -125.3048782, 25.3658543, 0.0085603
-0.449707, -0.1010742, -0.9116211, -41.341465, -123.2926865, 25.3048782, 0.0025177
-0.4648438, -0.1044922, -0.9013672, -42.2560997, -122.5, 25.1219521, -0.0043641
-0.4550781, -0.1064453, -0.8754883, -43.2926826, -123.5975647, 25, -0.0035248
-0.4208984, -0.1235352, -0.8095703, -42.0731735, -124.146347, 24.6951218, -0.0157778
-0.4121094, -0.1289062, -0.7924805, -41.341465, -122.9878082, 24.3292694, -0.0206455
-0.4223633, -0.1206055, -0.8320312, -40.7317085, -119.6951218, 23.5365868, -0.0260166
-0.4418945, -0.1088867, -0.8740234, -41.2804871, -118.1097565, 23.1097565, -0.0184634
-0.4711914, -0.0698242, -0.9399414, -42.4390259, -116.0975647, 22.8048782, -0.0043641
-0.4638672, -0.0410156, -0.8989258, -43.4756126, -116.0365906, 22.9878063, -0.0015106
-0.4355469, -0.0527344, -0.8120117, -43.3536606, -116.9512253, 22.9268303, -0.0005035
-0.3740234, -0.128418, -0.6025391, -42.5, -116.8902435, 22.0731716, 0.0068818
-0.3740234, -0.1787109, -0.5395508, -38.9024391, -114.0853653, 18.5365849, 0.0078889
-0.4746094, -0.2480469, -0.5898438, -36.7073174, -112.2561035, 16.8292694, 0.0146029
-0.5405273, -0.2402344, -0.675293, -31.8292694, -110.4878082, 15.5487804, 0.0280308
-0.644043, -0.1542969, -0.8310547, -28.3536587, -112.9878082, 16.0975609, 0.0307164
-0.6591797, -0.1040039, -0.8608398, -27.3170738, -115.6097565, 16.1585369, 0.0193027
-0.6103516, -0.0185547, -0.8286133, -27.5, -120.0609818, 15.9146347, 0.01561
-0.5585938, 0.0053711, -0.7871094, -28.6585369, -120.8536606, 16.1585369, 0.0271916
-0.4677734, 0.0112305, -0.6889648, -31.4634151, -119.6951218, 15.2439032, 0.0172885
-0.4267578, -0.0415039, -0.6108398, -31.8902454, -118.7804871, 14.4512196, 0.027863
-0.4355469, -0.078125, -0.6020508, -31.9512196, -117.3170776, 13.4756098, 0.0558938
-0.5107422, -0.1411133, -0.6689453, -31.0365868, -117.1341476, 13.5975609, 0.0777142
-0.5605469, -0.1694336, -0.7172852, -27.3780499, -117.2561035, 16.4634151, 0.1072557
-0.59375, -0.1704102, -0.7592773, -24.3292694, -118.5365906, 18.7195129, 0.1408255
-0.5825195, -0.1499023, -0.7441406, -17.9268303, -119.9390259, 20.5487804, 0.1690242
-0.5639648, -0.0888672, -0.6860352, -14.1463413, -118.7195129, 18.6585369, 0.1747311
-0.5571289, -0.0664062, -0.6660156, -13.6585369, -118.4146347, 17.6219521, 0.1707027
-0.5625, -0.0405273, -0.6494141, -14.8170738, -118.5975647, 17.0731716, 0.1643244
-0.5673828, -0.0336914, -0.6538086, -15.9146347, -119.8780518, 16.9512196, 0.1549248
-0.5854492, -0.0224609, -0.6835938, -17.6219521, -122.4390259, 18.2317085, 0.1482109
-0.6030273, -0.0170898, -0.7250977, -18.5365849, -123.4146347, 19.2682934, 0.1267262
-0.5952148, -0.0117188, -0.7441406, -18.9024391, -124.0853653, 22.0121956, 0.1144732
-0.5712891, 0.0097656, -0.7895508, -19.5731716, -123.9634171, 23.2926826, 0.1032273
-0.5551758, 0.0283203, -0.8168945, -22.1951218, -122.1341476, 24.1463413, 0.0854353
-0.5351562, 0.0649414, -0.8457031, -24.8170738, -121.0975647, 24.1463413, 0.0767071
-0.5185547, 0.0712891, -0.8325195, -31.0975609, -119.4512253, 23.5365868, 0.066804
-0.4887695, 0.034668, -0.7626953, -36.4024391, -117.7439041, 22.9268303, 0.06009
-0.4785156, 0.0087891, -0.71875, -37.3170738, -116.3414688, 22.8658543, 0.0428016
-0.4814453, -0.0478516, -0.6645508, -38.2317085, -113.4146347, 22.5, 0.0226596
-0.4980469, -0.065918, -0.6630859, -37.7439041, -111.4024429, 22.1951218, 0.0151064
-0.5683594, -0.0869141, -0.690918, -37.3170738, -108.1707306, 23.1707325, 0.0125887
-0.6220703, -0.0644531, -0.7109375, -36.8902435, -107.68293, 23.5975609, 0.008896
-0.6347656, -0.0429688, -0.6928711, -36.2804871, -107.9878082, 24.0243912, 0.0176242
-0.6396484, -0.0078125, -0.6425781, -36.5243912, -107.9878082, 23.2926826, 0.0198062
-0.6376953, 0.0083008, -0.6166992, -37.6829262, -106.8902435, 22.3170738, 0.023331
-0.644043, 0.0078125, -0.6142578, -39.5121956, -105.7926865, 21.7073174, 0.0290379
-0.6435547, 0, -0.6274414, -40.3048782, -105.9146347, 21.8902435, 0.018967
-0.6328125, -0.0375977, -0.6616211, -40.3658562, -105.5487823, 23.1097565, 0.0240024
-0.6196289, -0.0639648, -0.6772461, -39.6341476, -104.9390259, 23.6585369, 0.0223239
-0.5864258, -0.1079102, -0.6938477, -36.6463432, -103.2317123, 24.8170738, 0.023331
-0.5644531, -0.1196289, -0.6875, -34.6951218, -101.2195129, 25.3048782, 0.0117494
-0.5380859, -0.1137695, -0.6489258, -30.4878063, -95.6707306, 25.6707325, -0.0062104
-0.546875, -0.074707, -0.6030273, -28.780489, -92.1341476, 25.1829281, -0.0223239
-0.5664062, -0.050293, -0.5957031, -27.1341476, -85.6097565, 23.6585369, -0.0276951
-0.6162109, -0.012207, -0.6054688, -26.6463413, -83.2317123, 22.8658543, -0.0359197
-0.6396484, -0.0078125, -0.6210938, -27.6829281, -81.1585388, 22.6829281, -0.0364233
-0.65625, -0.0341797, -0.6513672, -28.1097565, -81.3414688, 23.5365868, -0.0256809
-0.6464844, -0.0581055, -0.6499023, -27.5, -81.3414688, 24.0853672, -0.0196384
-0.6103516, -0.0917969, -0.5839844, -23.9024391, -80.18293, 24.6951218, -0.0193027
-0.5898438, -0.1005859, -0.534668, -21.0975609, -78.9024429, 24.0853672, 0.0030213
-0.5888672, -0.0825195, -0.4692383, -17.0731716, -74.4512177, 22.0731716, 0.0159457
-0.6108398, -0.0634766, -0.4677734, -16.6463413, -72.1951218, 20.9756107, 0.036759
-0.6831055, -0.0361328, -0.4614258, -17.3780499, -71.0975647, 20.4878044, 0.0659648
-0.7290039, -0.0395508, -0.4130859, -17.6219521, -72.1341476, 20, 0.079057
-0.7470703, -0.0546875, -0.3945312, -16.2195129, -75.2439041, 19.0853672, 0.1045701
-0.7719727, -0.0708008, -0.4394531, -15.1829271, -76.3414688, 19.1463413, 0.1206836
-0.7753906, -0.0673828, -0.4980469, -14.9390249, -78.4756088, 20.2439022, 0.117998
-0.762207, -0.0273438, -0.5888672, -17.560976, -81.0975647, 21.5853672, 0.1200122
-0.7358398, 0.0019531, -0.6025391, -19.0243912, -82.6219559, 21.4634151, 0.1320974
-0.6542969, 0.0263672, -0.5512695, -20.6097565, -84.0853653, 20.1219521, 0.139147
-0.6113281, 0.0249023, -0.519043, -20.7926826, -83.2926865, 19.4512196, 0.1287404
-0.5825195, 0.0117188, -0.5200195, -22.1341476, -79.5731735, 18.4146347, 0.1233692
-0.5908203, 0.0112305, -0.5458984, -23.1707325, -77.6219559, 18.1097565, 0.1225299
-0.6259766, 0.0136719, -0.581543, -25.1829281, -75.2439041, 18.9024391, 0.1109483
-0.6445312, 0.0117188, -0.5556641, -25.6707325, -74.9390259, 19.4512196, 0.1032273
-0.6445312, 0.0112305, -0.543457, -25.7926826, -74.6341476, 19.2073174, 0.1126268
-0.6542969, 0.0014648, -0.5551758, -25.2439022, -74.1463394, 19.3902435, 0.1096056
-0.6601562, 0.0039062, -0.5732422, -25.9756107, -72.4390259, 20.3048782, 0.0908064
-0.6582031, 0.0039062, -0.5927734, -26.8902454, -71.3414688, 20.4878044, 0.0679789
-0.6503906, 0.003418, -0.5859375, -27.0121956, -70.4268341, 20.4878044, 0.054551
-0.637207, -0.0058594, -0.5405273, -26.7682934, -68.1097565, 19.7560978, 0.0246738
-0.6318359, -0.0136719, -0.5185547, -26.4634151, -66.7073212, 19.3292694, 0.0078889
-0.6469727, -0.0317383, -0.4960938, -25.6097565, -63.9634171, 18.5365849, 0.0011749
-0.6679688, -0.0336914, -0.5029297, -25.1219521, -63.0487823, 18.6585369, 0.0005035
-0.6943359, -0.0395508, -0.5390625, -24.2073174, -62.3170738, 19.6341476, -0.0001678
-0.6943359, -0.0263672, -0.5581055, -23.5365868, -62.6219521, 20.2439022, 0.0095674
-0.6835938, -0.0166016, -0.5581055, -22.1951218, -62.5609779, 20.4268303, 0.0146029
-0.6728516, -0.0107422, -0.5141602, -21.5243912, -61.6463432, 19.8170738, 0.0112459
-0.6694336, -0.0170898, -0.4824219, -20.2439022, -58.5365868, 18.9634151, -0.005539
-0.6860352, -0.0224609, -0.4223633, -19.0243912, -55.5487823, 18.0487804, -0.0404517
-0.7006836, -0.0239258, -0.3984375, -18.9024391, -54.8170738, 17.1951218, -0.076875
-0.7470703, -0.0317383, -0.3754883, -17.8658543, -55.4268303, 15.7317076, -0.0807355
-0.7670898, -0.0483398, -0.3759766, -17.6219521, -56.7682953, 15.060976, -0.0746929
-0.7871094, -0.074707, -0.375, -14.9390249, -60.0609779, 15.4878054, -0.0626078
-0.7836914, -0.0800781, -0.3774414, -12.8048782, -61.2804909, 15.4878054, -0.0558938
-0.7583008, -0.081543, -0.3505859, -8.1097565, -60.9756126, 15.7317076, -0.0458228
-0.7426758, -0.0444336, -0.2998047, -6.4024391, -59.6341476, 14.9390249, -0.0357519
-0.7514648, -0.0205078, -0.2861328, -3.7195122, -56.8292694, 13.1097565, -0.0099031
-0.8007812, 0.0185547, -0.2905273, -3.1097562, -56.7682953, 12.2560978, 0.0179599
-0.8208008, 0.0356445, -0.3012695, -3.2317073, -59.3292694, 12.0731707, 0.0589151
-0.8417969, 0.0688477, -0.3173828, -4.4512196, -63.1707344, 13.1097565, 0.0951705
-0.8369141, 0.0708008, -0.3110352, -4.4512196, -64.6951218, 13.4756098, 0.1354543
-0.8061523, 0.0581055, -0.2958984, -3.0487804, -65.7926865, 14.2073174, 0.1535821
-0.7919922, 0.046875, -0.3027344, -2.0731707, -65.9146347, 14.6951227, 0.1623102
-0.7783203, 0.0351562, -0.3481445, -0.6707317, -63.841465, 15.3658543, 0.1609674
-0.7788086, 0.0341797, -0.3803711, -0.7926829, -62.3170738, 15.6707325, 0.1579461
-0.7675781, 0.0415039, -0.4360352, -1.4634147, -60.0609779, 16.5853653, 0.145861
-0.75, 0.0361328, -0.4326172, -1.5243902, -58.5975609, 16.8902435, 0.1273976
-0.7426758, 0.0273438, -0.4204102, -1.6463414, -55.9756126, 16.4024391, 0.1119554
-0.7353516, 0.0249023, -0.3798828, -1.6463414, -54.3292694, 16.2195129, 0.1099413
-0.7421875, 0.0268555, -0.3549805, -3.1707318, -50.3048782, 15.1219511, 0.1079271
-0.7875977, 0.0356445, -0.3417969, -5.7317076, -47.6219521, 13.841464, 0.1109483
-0.8208008, 0.034668, -0.3466797, -7.0731707, -47.7439041, 14.0243902, 0.0965133
-0.8330078, 0.0239258, -0.3598633, -7.6829271, -47.8048782, 14.8780489, 0.0605936
-0.824707, 0.0151367, -0.3720703, -7.5, -47.9878044, 15.1219511, 0.0285344
-0.7958984, 0.0053711, -0.3959961, -7.0121951, -46.1585388, 15.3658543, 0.0075532
-0.78125, 0.0092773, -0.3999023, -7.7439027, -45.1219521, 14.6341467, 0.0031891
-0.7695312, 0.0297852, -0.3666992, -10.8536587, -42.9268303, 12.6219511, -0.0041962
-0.7895508, 0.0151367, -0.3237305, -12.1341467, -41.7682953, 11.7073174, -0.0219883
-0.8022461, -0.0053711, -0.3188477, -12.7439032, -39.8170738, 10.9146347, -0.0287022
-0.8276367, -0.0415039, -0.3286133, -12.2560978, -39.2073174, 11.0975609, -0.0323949
-0.8325195, -0.0449219, -0.3344727, -9.8780489, -38.0487823, 11.5853662, -0.0364233
-0.8344727, -0.0444336, -0.3325195, -8.5975609, -36.4634171, 10.6707315, -0.0337377
-0.8286133, -0.0390625, -0.3251953, -8.2926826, -35.7317085, 9.8170738, -0.0203098
-0.8354492, -0.0263672, -0.2895508, -8.3536587, -34.3902435, 8.9024391, -0.0031891
-0.8408203, -0.0209961, -0.2734375, -7.9878049, -33.9024391, 8.719512, 0.0253452
-0.8505859, -0.0083008, -0.2539062, -6.8292685, -31.8902454, 8.0487804, 0.0374304
-0.8598633, 0, -0.2583008, -6.7073174, -30.7317085, 7.8048782, 0.0464942
-0.8774414, -0.0107422, -0.2832031, -6.4634147, -29.3902454, 7.8048782, 0.0506905
-0.8769531, -0.0297852, -0.2885742, -6.4024391, -29.1463413, 7.8658538, 0.0535439
-0.8720703, -0.0356445, -0.2773438, -5.4878049, -29.2073174, 7.6829271, 0.0565652
-0.8540039, -0.0297852, -0.2416992, -4.6951222, -29.0243912, 7.1341467, 0.0491798
-0.8569336, -0.03125, -0.2265625, -3.4756098, -26.8902454, 6.0365853, 0.036759
-0.8833008, -0.0356445, -0.2285156, -3.5365853, -25.9756107, 5.7926831, 0.0394446
-0.8969727, -0.0336914, -0.2451172, -3.8414636, -25.9756107, 5.8536587, 0.0317235
-0.9145508, -0.0136719, -0.2685547, -4.3292685, -26.7682934, 6.1585369, 0.033402
-0.9072266, -0.0048828, -0.2832031, -4.5121951, -27.1951218, 6.2195125, 0.0379339
-0.8828125, -0.0043945, -0.3193359, -5.1829271, -27.2560978, 6.5853658, 0.0448157
-0.8647461, -0.0102539, -0.3354492, -5.3658538, -26.8292694, 6.8292685, 0.0542153
-0.8217773, -0.0112305, -0.3364258, -6.3414636, -24.5731716, 6.7682929, 0.0592508
-0.8051758, -0.0185547, -0.3037109, -6.3414636, -22.6829281, 6.1585369, 0.0674754
-0.8041992, -0.027832, -0.2895508, -4.8780489, -19.3292694, 5.3658538, 0.072343
-0.8217773, -0.0527344, -0.2988281, -3.7195122, -17.7439022, 5.3048782, 0.0746929
-0.8325195, -0.0512695, -0.3110352, -2.195122, -15.1829271, 5.7926831, 0.0787213
-0.855957, -0.0327148, -0.3291016, -1.3414634, -13.1707315, 5.609756, 0.0891279
-0.8662109, -0.0288086, -0.324707, -1.4634147, -12.6219511, 5.3658538, 0.1106126
-0.8676758, -0.0161133, -0.3256836, -2.0731707, -12.1341467, 5.3658538, 0.1334401
-0.8632812, -0.0048828, -0.3144531, -2.0121951, -11.7682934, 5.4878049, 0.1448539
-0.8447266, -0.0092773, -0.2973633, -1.4634147, -10.3048782, 5.2439027, 0.1498894
-0.8378906, -0.012207, -0.3017578, -0.9146342, -9.1463413, 4.6951222, 0.1461967
-0.8447266, -0.015625, -0.3442383, -1.097561, -7.0121951, 4.6341462, 0.1448539
-0.8413086, -0.015625, -0.3564453, -1.402439, -6.1585369, 5, 0.1485466
-0.8374023, -0.0195312, -0.3457031, -1.0365853, -3.7804878, 4.5731707, 0.1495537
-0.8256836, -0.0146484, -0.3251953, -0.7926829, -1.9512196, 4.0853658, 0.1367971
-0.8286133, -0.0087891, -0.3242188, -0.3658537, 1.097561, 3.5365853, 0.1341115
-0.8452148, -0.0087891, -0.3295898, -1.097561, 3.2317073, 3.0487804, 0.1267262
-0.8549805, -0.0126953, -0.3320312, -1.4634147, 3.3536587, 2.804878, 0.1138018
-0.8613281, -0.0239258, -0.3422852, -1.8292683, 5, 3.2926829, 0.114641
-0.8481445, -0.0410156, -0.3564453, -2.0121951, 6.0365853, 3.2317073, 0.1059129
-0.8291016, -0.0634766, -0.3583984, -0.3048781, 6.3414636, 2.5609756, 0.082414
-0.8286133, -0.0576172, -0.3613281, 0.8536586, 7.8658538, 1.7682927, 0.0454871
-0.8061523, -0.0410156, -0.3515625, 0.1829268, 12.560976, 1.097561, 0.0199741
-0.8212891, -0.0327148, -0.3491211, -0.5487805, 15.1219511, 0.5487805, -0.0063783
-0.8349609, -0.0214844, -0.3515625, -0.9756098, 18.2317085, -0.2439024, -0.0303807
-0.8579102, -0.0146484, -0.3417969, -1.097561, 19.0853672, -0.4268293, -0.0431373
-0.8583984, -0.0083008, -0.328125, -0.7926829, 20.1829281, -0.6707317, -0.0555581
-0.8491211, -0.0087891, -0.2871094, -0.2439024, 22.1951218, -1.1585366, -0.0627756
-0.8505859, -0.0161133, -0.2734375, 0.0609756, 23.5365868, -1.402439, -0.0814069
-0.8637695, -0.0380859, -0.2792969, 0.5487805, 25.3048782, -1.8902439, -0.0877852
-0.8686523, -0.0410156, -0.2880859, 0.8536586, 25.3048782, -2.0121951, -0.0914778
-0.8759766, -0.0415039, -0.3041992, 1.5853659, 24.7560978, -2.2560976, -0.0809033
-0.8652344, -0.0239258, -0.3266602, 1.8292683, 25, -2.0731707, -0.0605936
-0.8608398, -0.0224609, -0.340332, 1.5853659, 25.3048782, -2.2560976, -0.0501869
-0.8383789, -0.019043, -0.3603516, 2.7439024, 25.1829281, -2.1341465, -0.0424659
-0.8217773, -0.0092773, -0.3657227, 5.1219511, 26.2195129, -1.6463414, -0.0330663
-0.7963867, 0.0224609, -0.3696289, 5.2439027, 28.1097565, -1.402439, -0.0062104
-0.796875, 0.0263672, -0.3671875, 4.0243902, 32.9878044, -2.6829269, 0.0146029
-0.8198242, -0.0019531, -0.3696289, 2.6829269, 35.6097565, -2.6829269, 0.0206455
-0.8222656, -0.0205078, -0.371582, 2.7439024, 36.0975609, -2.804878, 0.0213169
-0.8144531, -0.043457, -0.359375, 3.6585367, 36.341465, -3.1707318, 0.0172885
-0.8125, -0.050293, -0.3515625, 4.4512196, 36.7682953, -3.7195122, 0.0095674
-0.8183594, -0.0405273, -0.3408203, 5.7926831, 38.841465, -4.3292685, -0.0048676
-0.8286133, -0.03125, -0.3461914, 6.2195125, 39.8170738, -4.3292685, -0.0142672
-0.8364258, -0.0258789, -0.3496094, 7.3170733, 40.7926826, -4.2073174, -0.0182956
-0.8256836, -0.0014648, -0.3613281, 7.8048782, 40.8536606, -4.3292685, -0.0218204
-0.8193359, 0.0083008, -0.371582, 7.1951222, 41.4024391, -4.5731707, -0.0246738
-0.8100586, 0.0327148, -0.3881836, 6.0975609, 41.6463432, -4.6951222, -0.0616007
-0.8066406, 0.0302734, -0.4008789, 2.9268293, 42.3170738, -5.4878049, -0.145861
-0.7875977, 0.0009766, -0.4287109, 0.7926829, 42.3170738, -5.0609756, -0.2415351
-0.7758789, -0.0117188, -0.4335938, 0.4268293, 42.9268303, -4.6341462, -0.3123674
-0.7373047, -0.0131836, -0.4248047, 1.0365853, 45.6097565, -4.6341462, -0.340734
-0.7231445, -0.0029297, -0.4155273, 1.4634147, 47.5609779, -5, -0.367422
-0.722168, -0.0009766, -0.3920898, 0.5487805, 52.3170738, -6.3414636, -0.3858854
-0.7407227, -0.0107422, -0.3818359, -0.1829268, 53.9634171, -6.7073174, -0.3862211
-0.7509766, -0.0175781, -0.3828125, -1.5853659, 55.3658562, -7.3780489, -0.3734646
-0.7670898, -0.0332031, -0.3803711, -1.6463414, 55.7317085, -7.6219516, -0.3734646
-0.7700195, -0.0307617, -0.3823242, -1.3414634, 56.7073174, -8.2317076, -0.3466087
-0.7773438, -0.0258789, -0.4086914, -0.9756098, 57.1341476, -8.2317076, -0.2942397
-0.7675781, -0.019043, -0.4301758, -0.4268293, 57.6219521, -8.1707315, -0.2128328
-0.7402344, -0.0214844, -0.4511719, -1.3414634, 60.3658562, -7.5, -0.1344472
-0.7182617, -0.0219727, -0.4467773, -2.0121951, 62.7439041, -7.1951222, -0.0528725
-0.6914062, -0.0200195, -0.4194336, -2.0731707, 68.5365906, -7.6219516, 0.018967
-0.6914062, -0.0244141, -0.4082031, -0.4268293, 69.8170776, -8.4146347, 0.066804
-0.7094727, -0.0249023, -0.3984375, 2.9878049, 70.4268341, -9.4512196, 0.114641
-0.7211914, -0.0273438, -0.4042969, 3.9634147, 70.9146347, -9.5731707, 0.1609674
-0.7260742, -0.027832, -0.4150391, 4.390244, 73.4756088, -9.3292685, 0.1878233
-0.7270508, -0.0297852, -0.4487305, 4.4512196, 74.6341476, -9.3292685, 0.1963836
-0.7207031, -0.0327148, -0.4648438, 3.7195122, 75.9756088, -9.2682924, 0.1851377
-0.6962891, -0.0385742, -0.4736328, 3.0487804, 76.2804871, -9.8780489, 0.1784237
-0.6816406, -0.0454102, -0.46875, 3.2317073, 76.7682953, -9.8170738, 0.1628138
-0.6416016, -0.0483398, -0.4545898, 4.2682929, 79.3292694, -10.1219511, 0.1522393
-0.6303711, -0.0439453, -0.4506836, 5.4268293, 81.5853653, -10.6097565, 0.1566033
-0.6328125, -0.0200195, -0.449707, 6.3414636, 87.0121994, -11.280488, 0.1488823
-0.6435547, -0.012207, -0.4453125, 6.6463418, 89.3292694, -11.5243902, 0.1290761
-0.6767578, -0.0024414, -0.4404297, 5.7317076, 92.3170776, -11.8292685, 0.1319295
-0.703125, -0.0009766, -0.4384766, 5.0609756, 93.0487823, -11.4634151, 0.1367971
-0.7094727, 0.0004883, -0.4335938, 3.1707318, 92.9878082, -11.4634151, 0.1629816
-0.703125, 0.0039062, -0.4423828, 1.6463414, 92.8658524, -11.5853662, 0.1918517
-0.7041016, -0.0014648, -0.4658203, -2.804878, 93.7804871, -12.0731707, 0.2146792
-0.6992188, -0.0336914, -0.465332, -3.7804878, 90.1219559, -11.7682934, 0.2375067
-0.6835938, -0.050293, -0.4594727, -2.1341465, 88.4756088, -11.9512196, 0.2697337
-0.6425781, -0.0605469, -0.4775391, 0.2439024, 88.9634171, -12.0121956, 0.2945754
-0.6245117, -0.0498047, -0.503418, 0.1829268, 91.0365906, -12.0731707, 0.3237812
-0.6103516, -0.0288086, -0.5424805, -2.6829269, 95.6707306, -12.8658543, 0.3635615
-0.6025391, -0.0224609, -0.546875, -4.4512196, 97.4390259, -13.4146347, 0.3899138
-0.6040039, -0.0107422, -0.5166016, -6.9512196, 99.0853653, -15, 0.4053559
-0.6064453, 0.0024414, -0.4819336, -7.5, 100, -15.7317076, 0.4107271
-0.6132812, 0.0048828, -0.4770508, -8.4146347, 102.5, -16.280489, 0.3882353
-0.6328125, 0.0009766, -0.4931641, -8.5365858, 103.7195129, -16.4024391, 0.3469444
-0.6425781, -0.0029297, -0.5092773, -9.2682924, 104.5731735, -15.7317076, 0.293904
-0.6445312, -0.0244141, -0.5410156, -10.1829271, 104.146347, -15.2439032, 0.2411994
-0.6333008, -0.0371094, -0.5385742, -10.5487804, 103.7195129, -14.5731707, 0.2032654
-0.6054688, -0.0566406, -0.5258789, -10.9756098, 104.7561035, -15.1219511, 0.1747311
-0.5942383, -0.0678711, -0.5297852, -10.4878054, 105.7926865, -15, 0.1461967
-0.5898438, -0.0717773, -0.5712891, -9.8780489, 108.1707306, -14.5731707, 0.145861
-0.5859375, -0.0717773, -0.6005859, -9.3902445, 108.8414688, -13.9024391, 0.170367
-0.5737305, -0.0668945, -0.6401367, -8.4146347, 110.5487823, -11.8292685, 0.2227359
-0.5288086, -0.050293, -0.6357422, -7.4390244, 111.8902435, -11.341464, 0.2814832
-0.5097656, -0.0356445, -0.6235352, -5.9756098, 116.2804871, -11.341464, 0.346273
-0.4990234, -0.0175781, -0.6230469, -5.9146342, 118.9634171, -12.0731707, 0.381857
-0.5058594, -0.0146484, -0.637207, -8.0487804, 124.8170776, -13.2926836, 0.3892424
-0.5302734, -0.0219727, -0.6831055, -11.341464, 127.5609818, -13.5975609, 0.3597009
-0.5410156, -0.0292969, -0.6948242, -12.8048782, 127.86586, -13.3536587, 0.336202
-0.5429688, -0.0317383, -0.6591797, -13.841464, 127.9878082, -13.3536587, 0.3247883
-0.53125, -0.0395508, -0.6196289, -13.6585369, 129.0853729, -13.5975609, 0.2999466
-0.5253906, -0.0532227, -0.5493164, -12.1951218, 132.6219482, -14.6951227, 0.2898756
-0.5390625, -0.0585938, -0.5307617, -11.8292685, 134.2073212, -15.1829271, 0.2606699
-0.5825195, -0.0756836, -0.5166016, -12.3170738, 135.4268341, -16.0365849, 0.2252537
-0.6318359, -0.0834961, -0.5224609, -13.0487804, 134.8780518, -16.0975609, 0.1760739
-0.6557617, -0.0878906, -0.5463867, -16.8902435, 131.0975647, -16.0975609, 0.1287404
-0.6850586, -0.1020508, -0.5869141, -18.2926826, 127.2561035, -15.9756098, 0.0924849
-0.6777344, -0.1079102, -0.5893555, -19.5731716, 115.4878082, -16.6463413, 0.0411231
-0.612793, -0.1118164, -0.5649414, -15.2439032, 108.1707306, -19.7560978, -0.0077211
-0.5776367, -0.1118164, -0.5644531, -11.8292685, 107.68293, -21.6463413, -0.0297093
-0.5146484, -0.1025391, -0.6118164, -7.1951222, 110.2439041, -24.0853672, -0.0693217
-0.4916992, -0.1005859, -0.6464844, -6.5853658, 111.8292694, -24.5121956, -0.093492
-0.4599609, -0.0986328, -0.699707, -6.1585369, 114.0243912, -25.1219521, -0.0840925
-0.4482422, -0.1015625, -0.7246094, -6.280488, 114.9390259, -25.2439022, -0.0802319
-0.4384766, -0.1025391, -0.7519531, -4.390244, 118.2926865, -24.6341476, -0.0708324
-0.4360352, -0.0952148, -0.7636719, -2.9878049, 120.4878082, -24.0243912, -0.0344091
-0.4321289, -0.0834961, -0.7739258, -0.1829268, 125.4268341, -22.3170738, -0.012253
-0.4331055, -0.0649414, -0.8027344, 0.9756098, 127.9268341, -21.6463413, 0.0287022
-0.4326172, -0.0546875, -0.8222656, -0.1219512, 132.7439117, -20.9146347, 0.0683146
-0.4526367, -0.0488281, -0.8461914, -3.5365853, 135.4878082, -20.3658543, 0.0948348
-0.4604492, -0.0585938, -0.8334961, -5.1219511, 135.9146423, -20.2439022, 0.0958419
-0.4541016, -0.0839844, -0.7724609, -5.2439027, 135.8536682, -19.3292694, 0.0733501
-0.453125, -0.1000977, -0.7441406, -4.9390244, 135.9146423, -19.2682934, 0.0387732
-0.456543, -0.1152344, -0.7490234, -2.9268293, 136.5243988, -19.3292694, 0.027863
-0.4614258, -0.1108398, -0.7753906, -2.6829269, 137.0121918, -19.1463413, 0.0260166
-0.4960938, -0.0961914, -0.8500977, -3.4756098, 137.1341553, -18.5365849, 0.0219883
-0.4902344, -0.0703125, -0.862793, -4.0243902, 136.5853729, -17.8048782, -0.01561
-0.46875, -0.065918, -0.8413086, -4.0243902, 134.5731812, -16.0975609, -0.0538796
-0.4130859, -0.0605469, -0.7529297, -3.5365853, 134.0853729, -16.0365849, -0.1062486
-0.3916016, -0.065918, -0.7094727, -1.9512196, 134.9390259, -16.8902435, -0.1666743
-0.4111328, -0.0732422, -0.6875, -2.0121951, 137.0731812, -18.9024391, -0.2244144
-0.434082, -0.074707, -0.7143555, -2.9878049, 137.5609741, -19.6341476, -0.272755
-0.4916992, -0.0673828, -0.8173828, -7.1951222, 135.0609741, -20.1219521, -0.2804761
-0.5039062, -0.0732422, -0.8857422, -9.3902445, 132.2561035, -19.8170738, -0.297261
-0.4643555, -0.1010742, -1.0073242, -12.2560978, 125.3048782, -17.8658543, -0.3278096
-0.4140625, -0.1313477, -1.0361328, -12.5, 122.5, -16.2195129, -0.3393912
-0.2744141, -0.1875, -0.9921875, -10.6707315, 122.5, -13.9024391, -0.3680934
-0.1479492, -0.2055664, -0.8564453, -8.1707315, 126.0975647, -13.7195129, -0.4033417
-0.1269531, -0.1938477, -0.7949219, -2.0731707, 137.9268341, -16.0975609, -0.4254978
-0.199707, -0.1381836, -0.7451172, -0.1219512, 143.8414612, -18.4756107, -0.4365759
-0.277832, -0.0996094, -0.762207, 0.8536586, 150.8536682, -23.1097565, -0.4466468
-0.4438477, -0.0268555, -0.8535156, -3.2317073, 148.4756165, -24.6341476, -0.4688029
-0.5048828, 0.0024414, -0.9106445, -6.7073174, 144.6341553, -24.2682934, -0.4938125
-0.5205078, 0.0048828, -1.0126953, -15.1219511, 135.9146423, -22.1341476, -0.50103
-0.4829102, -0.0200195, -1.0322266, -18.0487804, 132.3780518, -20.5487804, -0.5030442
-0.3310547, -0.1083984, -1.0058594, -20.8536587, 129.0853729, -18.2926826, -0.4949874
-0.2490234, -0.1542969, -0.9692383, -20.2439022, 129.3902435, -17.6829281, -0.4802167
-0.1230469, -0.2133789, -0.9003906, -17.0121956, 135.1829224, -18.0487804, -0.4426184
-0.1118164, -0.2109375, -0.8505859, -14.5731707, 138.9634247, -19.0853672, -0.4043488
-0.1469727, -0.1923828, -0.8344727, -9.3292685, 145.0609741, -22.0121956, -0.3936065
-0.2524414, -0.1586914, -0.7958984, -6.890244, 145.7317047, -23.0487804, -0.3801785
-0.3125, -0.1425781, -0.7724609, -3.2926829, 145.3048859, -23.4146347, -0.360708
-0.4165039, -0.1240234, -0.7524414, -1.1585366, 142.0121918, -22.3170738, -0.3318379
-0.453125, -0.1181641, -0.762207, -0.9756098, 139.5121918, -21.7073174, -0.3133745
-0.4902344, -0.1137695, -0.8144531, -2.6219513, 133.4756165, -20.7926826, -0.2881971
-0.4882812, -0.1103516, -0.8408203, -4.6341462, 130.4878082, -20.7317085, -0.2710765
-0.4296875, -0.0825195, -0.8876953, -9.0243902, 125.36586, -20.8536587, -0.2526131
-0.3818359, -0.078125, -0.9160156, -11.0365858, 124.0243912, -21.7073174, -0.2398566
-0.2675781, -0.0942383, -0.9960938, -13.1707315, 121.5243912, -22.1341476, -0.2368353
-0.1450195, -0.1660156, -1.0654297, -13.3536587, 120.6707382, -22.0121956, -0.240528
-0.0839844, -0.206543, -1.081543, -11.1585369, 121.0975647, -18.9634151, -0.2526131
0.0224609, -0.2490234, -1.0874023, -9.3902445, 123.4756088, -17.2560978, -0.2767834
0.0561523, -0.2490234, -1.0810547, -5, 133.2926788, -16.2195129, -0.3096818
0.0380859, -0.1723633, -1.0581055, -0.9146342, 146.0975647, -19.8170738, -0.3331807
-0.0131836, -0.1254883, -1.0205078, 0.7317073, 150.9146423, -21.8292694, -0.3492943
-0.1450195, -0.0585938, -0.8920898, 1.9512196, 154.2682953, -24.6341476, -0.3610437
-0.2211914, -0.0463867, -0.8261719, 1.2195122, 153.8414612, -25.5487804, -0.3795071
-0.3642578, -0.0629883, -0.7709961, -2.0731707, 149.0243988, -26.0365868, -0.3989776
-0.4311523, -0.0810547, -0.7871094, -3.9634147, 144.8170776, -25.7926826, -0.413077
-0.4985352, -0.1162109, -0.8525391, -8.719512, 132.9878082, -24.6951218, -0.4246586
-0.4570312, -0.1518555, -0.8935547, -10.6097565, 126.8292694, -24.2073174, -0.4266728
-0.4003906, -0.159668, -0.9086914, -12.7439032, 117.86586, -22.8658543, -0.4385901
-0.2612305, -0.1831055, -0.9677734, -13.1097565, 116.1585388, -22.3780499, -0.4630961
-0.1889648, -0.1875, -1.0053711, -12.6829271, 116.3414688, -21.8902435, -0.464271
-0.0664062, -0.1821289, -1.1040039, -12.3170738, 118.5365906, -21.8902435, -0.4641032
-0.0102539, -0.1645508, -1.1674805, -12.3780489, 120.6097565, -21.8292694, -0.4594034
0.0751953, -0.1279297, -1.2954102, -13.9634151, 127.0731735, -21.6463413, -0.452018
0.1118164, -0.1108398, -1.3330078, -14.4512196, 130.3048859, -21.5853672, -0.4432898
0.1669922, -0.0947266, -1.2514648, -13.780488, 136.7073212, -21.2195129, -0.4325475
0.184082, -0.0942383, -1.1425781, -12.3170738, 140.9756165, -20.9756107, -0.4177768
0.1674805, -0.1015625, -0.9394531, -7.8048782, 152.86586, -22.0731716, -0.4113985
0.0004883, -0.1245117, -0.9365234, -5.1829271, 158.7804871, -23.4146347, -0.4050202
-0.1030273, -0.1386719, -1.0039062, -1.7682927, 162.86586, -24.5121956, -0.4090486
-0.2553711, -0.1743164, -1.1503906, -1.6463414, 159.8780518, -23.8414631, -0.4244907
-0.2714844, -0.1938477, -1.1723633, -2.5609756, 149.8780518, -19.5731716, -0.4419471
-0.1894531, -0.2246094, -1.0981445, -3.9024391, 144.5121918, -15.9756098, -0.4402686
-0.1235352, -0.2211914, -1.0317383, -4.3292685, 145.4268341, -16.1585369, -0.4359045
-0.0439453, -0.1699219, -0.9282227, -5, 152.3170776, -20.7317085, -0.4209659
-0.0551758, -0.128418, -0.9082031, -5.9756098, 154.8780518, -24.2682934, -0.415259
-0.1342773, -0.0444336, -0.887207, -8.9634151, 152.6219482, -30.3048782, -0.3929351
-0.1831055, -0.0219727, -0.8603516, -11.280488, 148.4756165, -31.280489, -0.3560082
-0.234375, -0.0258789, -0.7700195, -15.7926836, 137.5, -30.3658543, -0.3214313
-0.2524414, -0.0546875, -0.7563477, -18.3536587, 132.86586, -29.2682934, -0.293904
-0.253418, -0.0668945, -0.8056641, -22.9878063, 125.6707382, -27.3170738, -0.2559701
-0.2407227, -0.0800781, -0.9785156, -25.6097565, 121.9512253, -27.1341476, -0.2190433
-0.2084961, -0.0800781, -1.0654297, -32.1341476, 114.3292694, -25.9146347, -0.1831235
-0.0688477, -0.0615234, -1.2416992, -39.5121956, 109.146347, -23.9024391, -0.158114
0.0302734, -0.0512695, -1.3105469, -42.8048782, 109.0243912, -22.6219521, -0.1398184
0.2402344, -0.0634766, -1.3828125, -47.6829262, 112.0731735, -20.1219521, -0.1327687
0.3388672, -0.0913086, -1.3720703, -48.2317085, 114.9390259, -18.8414631, -0.1082628
0.5053711, -0.1708984, -1.2441406, -46.5243912, 125.18293, -15.8536587, -0.1038987
0.5708008, -0.2172852, -1.0830078, -44.5121956, 133.4756165, -16.1585369, -0.1022202
0.5302734, -0.2104492, -1.0327148, -38.5365868, 152.7439117, -22.6219521, -0.0854353
0.2832031, -0.1640625, -1.0209961, -35.1829262, 160.7317047, -26.5853672, -0.0622721
0.1333008, -0.1445312, -1.0302734, -29.6951218, 166.1585388, -31.7682934, -0.0365911
-0.1030273, -0.1425781, -1.0400391, -28.6585369, 164.4512177, -31.5853672, -0.0166171
-0.1708984, -0.1606445, -1.0419922, -29.2682934, 156.5243988, -28.2317085, 0.0075532
-0.2119141, -0.2080078, -1.0634766, -30.7926846, 149.0853729, -23.5365868, 0.0240024
-0.1860352, -0.2294922, -1.0947266, -30.4268303, 146.2195129, -22.0731716, 0.033402
-0.0693359, -0.2524414, -1.1645508, -28.2926826, 142.3170776, -21.4634151, 0.0595865
0.0136719, -0.2578125, -1.1757812, -25.9756107, 140.6097565, -21.4634151, 0.068986
0.2070312, -0.2631836, -1.0961914, -20.3048782, 139.3902435, -22.8048782, 0.0750286
0.3583984, -0.2573242, -0.9946289, -17.439024, 141.4634247, -23.5975609, 0.0757
0.3886719, -0.2431641, -0.9741211, -12.3170738, 150.3048859, -26.6463413, 0.0636149
0.3120117, -0.1796875, -1.0185547, -9.8780489, 155.4268341, -28.2926826, 0.0605936
0.2451172, -0.144043, -1.0498047, -4.9390244, 160.8536682, -30.1219521, 0.0642863
0.1376953, -0.0922852, -1.0737305, -2.8658538, 160.4268341, -29.3902454, 0.0681468
0.1176758, -0.0786133, -1.0668945, 0.1829268, 156.4634247, -25.3658543, 0.0736858
0.1376953, -0.0932617, -1.0351562, 0.1829268, 153.9634247, -20.9146347, 0.0696574
0.1582031, -0.1049805, -1.0146484, -0.7317073, 153.5365906, -20.1829281, 0.0538796
0.1787109, -0.1010742, -0.9624023, -3.5975611, 153.0487823, -21.7682934, 0.0448157
0.1811523, -0.0830078, -0.9594727, -5, 152.1341553, -23.5975609, 0.0397803
0.1728516, -0.0141602, -1.0800781, -8.5365858, 149.6341553, -27.0121956, 0.030045
0.2055664, 0.0126953, -1.2958984, -11.341464, 147.5, -26.6463413, 0.0035248
0.2612305, 0.0009766, -1.3535156, -18.780489, 142.0121918, -23.2926826, -0.012253
0.4389648, -0.0825195, -1.277832, -22.0121956, 139.5731812, -20.1219521, -0.0186313
0.5371094, -0.1396484, -1.1523438, -23.4756107, 141.0365906, -15.6097565, -0.0313878
0.6318359, -0.2119141, -0.8603516, -21.5243912, 146.0365906, -15.4268293, -0.0290379
0.5883789, -0.2109375, -0.7626953, -12.2560978, 159.8780518, -20.4878044, -0.0397803
0.331543, -0.1352539, -0.7436523, -4.4512196, 165.36586, -28.5975609, -0.0337377
0.1625977, -0.0830078, -0.7900391, -3.1707318, 162.5, -31.0365868, -0.0109102
-0.1103516, 0.0283203, -0.8959961, -7.1341467, 147.8048859, -30.8536587, 0.0041962
-0.1733398, 0.0527344, -0.918457, -11.5853662, 139.0853729, -28.5975609, -0.0229953
-0.1230469, 0.0224609, -0.8959961, -19.5121956, 122.4390259, -22.560976, -0.0988632
0.0664062, -0.0820312, -0.8769531, -21.8902435, 116.646347, -20.1219521, -0.1656672
0.1728516, -0.1376953, -0.8999023, -22.0731716, 111.0975647, -17.1951218, -0.2076295
0.3452148, -0.2041016, -0.9882812, -20.060976, 110.36586, -16.5853653, -0.2344854
0.4116211, -0.2177734, -1.0419922, -13.9024391, 111.3414688, -15.8536587, -0.2324712
0.5195312, -0.2148438, -1.1943359, -7.3170733, 116.0975647, -14.3902445, -0.2354925
0.5615234, -0.2016602, -1.2817383, -4.6951222, 120.1219559, -13.1707315, -0.2235752
0.6459961, -0.1572266, -1.4301758, -2.5609756, 130.3048859, -11.341464, -0.1995727
0.6884766, -0.1328125, -1.4555664, -2.804878, 135.7926788, -10.5487804, -0.1498894
0.7666016, -0.0893555, -1.3608398, -4.5731707, 147.0121918, -11.8902445, -0.0767071
0.7832031, -0.0668945, -1.2651367, -5.3048782, 153.7804871, -13.9024391, 0.0186313
0.7036133, -0.0234375, -1.0683594, -6.9512196, 166.5853729, -19.5731716, 0.1065843
0.4750977, 0.0073242, -0.9848633, -7.1341467, 171.0365906, -22.560976, 0.1717098
0.3481445, 0.0185547, -0.9975586, -8.2926826, 173.9024506, -25.9146347, 0.2415351
0.1430664, -0.0039062, -1.0649414, -10.1219511, 171.7073212, -25.3048782, 0.2898756
0.0966797, -0.0351562, -1.0859375, -14.8170738, 162.8048859, -20.2439022, 0.3271382
0.1396484, -0.1435547, -1.0366211, -19.2682934, 152.4390259, -13.4756098, 0.3489586
0.2094727, -0.1948242, -0.9770508, -19.3902435, 148.8414612, -11.6463413, 0.3536584
0.3466797, -0.2451172, -0.859375, -15.6707325, 147.5, -11.8292685, 0.3489586
0.3920898, -0.2416992, -0.8261719, -12.6219511, 148.5365906, -13.841464, 0.3301595
0.3969727, -0.1655273, -0.8061523, -7.0731707, 150.0609741, -18.780489, 0.2992752
0.3769531, -0.1103516, -0.815918, -6.2195125, 149.0853729, -21.0975609, 0.2388495
0.3178711, 0.0004883, -0.8598633, -8.9024391, 143.5975647, -23.6585369, 0.1579461
0.2919922, 0.0463867, -0.9208984, -12.4390249, 140.3048859, -24.0853672, 0.085771
0.3027344, 0.0322266, -0.953125, -20.1829281, 131.5853729, -22.6219521, 0.0307164
0.3769531, -0.0649414, -1.0141602, -23.7195129, 126.8902435, -21.280489, -0.0250095
0.4296875, -0.1318359, -1.0454102, -27.8048782, 120.6097565, -17.8658543, -0.0780499
0.5693359, -0.2724609, -1.1132812, -26.5853672, 118.8414688, -14.6341467, -0.1451896
0.644043, -0.3222656, -1.1450195, -24.3292694, 119.6341476, -13.7195129, -0.2002441
0.7529297, -0.3574219, -1.1713867, -15.9756098, 125.8536606, -13.1097565, -0.2180362
0.7841797, -0.3364258, -1.1665039, -10.8536587, 130.8536682, -13.4756098, -0.1908446
0.7929688, -0.2382812, -1.1230469, 0.6707317, 142.3780518, -15.8536587, -0.1347829
0.7700195, -0.1699219, -1.0932617, 5.5487804, 147.86586, -17.5, -0.0592508
0.6679688, -0.0444336, -1.0605469, 9.9390249, 156.0365906, -20.8536587, 0.0072175
0.5170898, 0.0273438, -1.0439453, 9.3292685, 158.2317047, -21.8902435, 0.0441444
0.4467773, 0.0419922, -1.0170898, 2.5609756, 157.2561035, -21.8292694, 0.0448157
0.355957, 0.0517578, -0.9335938, -1.3414634, 154.7561035, -20.9146347, 0.0119173
0.34375, 0.0522461, -0.9008789, -7.8048782, 147.9878082, -17.9268303, -0.0206455
0.3608398, 0.0317383, -0.8862305, -12.0731707, 141.8292694, -15.8536587, -0.0391089
0.3813477, 0.0141602, -0.9169922, -14.0853662, 138.6585388, -15.1219511, -0.0649577
0.4482422, -0.0214844, -0.9868164, -19.3902435, 133.0487823, -12.7439032, -0.0978561
0.4936523, -0.0390625, -1.0053711, -22.0121956, 130.9146423, -11.0975609, -0.1673457
0.597168, -0.059082, -0.9853516, -25.3658543, 128.4756165, -8.1097565, -0.2271
0.6450195, -0.0595703, -0.9501953, -25.6707325, 128.7804871, -7.4390244, -0.2606699
0.6967773, -0.0644531, -0.8901367, -24.6341476, 129.6951294, -8.1097565, -0.2744335
0.6523438, -0.0830078, -0.9091797, -23.5365868, 130.4268341, -9.3292685, -0.2902113
0.6206055, -0.0961914, -0.9560547, -23.4756107, 130.0609741, -10.4268293, -0.2949111
0.5751953, -0.128418, -1.0776367, -24.4512196, 129.4512177, -9.6341467, -0.2875257
0.578125, -0.1459961, -1.1293945, -26.1585369, 127.8048782, -6.1585369, -0.2771191
0.6567383, -0.1689453, -1.1669922, -26.4634151, 127.5609818, -2.4390244, -0.2469062
0.7226562, -0.1835938, -1.1357422, -25.1219521, 128.8414612, -1.2195122, -0.2124971
0.8505859, -0.190918, -0.9946289, -20.2439022, 134.6341553, -1.3414634, -0.1908446
0.8774414, -0.1977539, -0.9165039, -17.1341476, 138.7195129, -2.804878, -0.2010834
0.815918, -0.1914062, -0.8085938, -11.280488, 146.1585388, -8.1707315, -0.1876555
0.7294922, -0.1782227, -0.7915039, -9.3292685, 147.4390259, -11.0365858, -0.1693599
0.5200195, -0.1386719, -0.796875, -7.7439027, 142.9878082, -14.7560978, -0.149218
0.3764648, -0.1147461, -0.8125, -8.4146347, 138.5975647, -14.7560978, -0.1270619
0.359375, -0.1137695, -0.8237305, -10.9756098, 128.1097565, -12.9268293, -0.1163195
0.421875, -0.140625, -0.8442383, -12.5, 123.1707382, -11.9512196, -0.103563
0.4833984, -0.1689453, -0.859375, -14.6951227, 113.7195129, -10.4268293, -0.096849
0.6435547, -0.2133789, -0.9091797, -15.1829271, 108.2317123, -10.5487804, -0.1062486
0.7128906, -0.2192383, -0.949707, -14.5731707, 107.1951218, -10.4878054, -0.1327687
0.8374023, -0.2026367, -1.0385742, -10.9146347, 108.9634171, -10.9146347, -0.1794308
0.8833008, -0.1835938, -1.0703125, -8.780488, 111.0365906, -11.0975609, -0.246067
0.9487305, -0.1362305, -1.081543, -4.3292685, 115.7926865, -10.8536587, -0.282826
0.965332, -0.1186523, -1.0576172, -2.3780489, 118.6585388, -10.3048782, -0.3049821
0.9477539, -0.0947266, -0.9731445, 0.2439024, 124.8780518, -10.4268293, -0.3066606
0.8417969, -0.0795898, -0.8808594, 1.7073171, 127.8048782, -10.4878054, -0.2841688
0.7651367, -0.0712891, -0.8466797, 5.2439027, 130.8536682, -10.5487804, -0.240528
0.59375, -0.0458984, -0.8046875, 6.4634147, 130.1219482, -10.3048782, -0.1827878
0.527832, -0.0361328, -0.7988281, 7.7439027, 125.8536606, -8.841464, -0.1304189
0.4521484, -0.0322266, -0.8217773, 5.609756, 120.1219559, -6.1585369, -0.0814069
0.4462891, -0.0400391, -0.84375, 3.1707318, 117.3780518, -4.6341462, -0.0753643
0.5053711, -0.0507812, -0.9213867, -2.2560976, 112.1951218, -3.1097562, -0.0864424
0.5605469, -0.0546875, -0.9575195, -5, 110.0609818, -2.7439024, -0.0840925
0.6918945, -0.0664062, -1.0058594, -9.0243902, 108.2317123, -2.6219513, -0.0726787
0.7675781, -0.0791016, -1.0170898, -10.6707315, 108.8414688, -2.3780489, -0.0757
0.8911133, -0.1030273, -1.0395508, -12.6829271, 112.9268341, -0.6707317, -0.0891279
0.9633789, -0.1025391, -1.0844727, -13.4756098, 115.7317123, -0.1829268, -0.110277
0.9755859, -0.0927734, -1.0986328, -15.1219511, 122.3170776, -0.3658537, -0.1196765
0.9682617, -0.0732422, -1.0849609, -15.7926836, 125.5487823, -0.8536586, -0.1169909
0.9472656, -0.0756836, -1.0615234, -17.6219521, 131.2804871, -2.195122, -0.1015488
0.8857422, -0.0917969, -0.9921875, -18.1097565, 135.7317047, -2.5, -0.0881209
0.8544922, -0.1166992, -0.9570312, -18.0487804, 137.5, -2.4390244, -0.0891279
0.7910156, -0.1826172, -0.9018555, -16.5243912, 139.6951294, -2.0731707, -0.0609293
0.7646484, -0.2128906, -0.887207, -15.9756098, 139.9390259, -2.2560976, -0.0454871
0.7236328, -0.2358398, -0.8774414, -14.0853662, 140.2439117, -2.5609756, -0.0337377
0.7114258, -0.2319336, -0.8759766, -12.8658543, 140.36586, -3.2317073, -0.0223239
0.7177734, -0.1962891, -0.8632812, -11.5243902, 139.6341553, -5.3048782, -0.002182
0.746582, -0.1748047, -0.8457031, -11.0365858, 139.146347, -6.0975609, -0.011078
0.7587891, -0.1787109, -0.824707, -10.4268293, 137.1341553, -7.1341467, -0.0448157
0.78125, -0.206543, -0.7646484, -9.5121956, 135.9146423, -7.2560978, -0.0941634
0.7851562, -0.2182617, -0.7285156, -7.3170733, 133.0487823, -7.3780489, -0.1529107
0.7675781, -0.2119141, -0.6459961, -2.804878, 130.5487823, -8.6585369, -0.2109865
0.7387695, -0.1914062, -0.6201172, -0.3048781, 129.3292694, -9.5121956, -0.2881971
0.6640625, -0.125, -0.6499023, 3.2317073, 126.0365906, -10.3048782, -0.369604
0.6347656, -0.0932617, -0.7026367, 3.9634147, 123.6585388, -10.1829271, -0.4087129
0.6274414, -0.0561523, -0.8115234, 1.402439, 117.68293, -8.780488, -0.4224765
0.6674805, -0.0507812, -0.8349609, -0.4268293, 114.9390259, -7.5, -0.4026703
0.7910156, -0.0751953, -0.8515625, -3.4146342, 112.2561035, -4.7560978, -0.3761501
0.9350586, -0.1206055, -0.8994141, -3.9024391, 112.68293, -3.7195122, -0.3435874
0.9926758, -0.1396484, -0.9204102, -3.0487804, 115.4268341, -1.8292683, -0.3096818
1.0712891, -0.175293, -0.9067383, -1.8292683, 117.2561035, -1.8292683, -0.2643626
1.090332, -0.1757812, -0.8681641, 1.097561, 121.5853653, -1.6463414, -0.2099794
1.0561523, -0.159668, -0.7861328, 5.7926831, 126.3414688, -2.5, -0.1467002
0.9970703, -0.1401367, -0.769043, 8.2926826, 128.4146423, -2.804878, -0.0748608
0.8422852, -0.0703125, -0.7744141, 11.6463413, 130.4878082, -1.5853659, -0.0082246
0.765625, -0.0322266, -0.7768555, 11.280488, 129.3902435, -0.4268293, 0.0258488
0.6816406, 0.0258789, -0.7695312, 8.780488, 125.9756165, 2.4390244, 0.0609293
0.6816406, 0.0322266, -0.7573242, 6.4634147, 123.9024429, 4.0853658, 0.0730144
0.7255859, 0.0092773, -0.7509766, 0.8536586, 120.0609818, 6.2195125, 0.072343
0.796875, -0.0341797, -0.7856445, -1.8902439, 118.7195129, 6.890244, 0.0488441
0.8374023, -0.0483398, -0.8032227, -6.9512196, 116.2195129, 8.1097565, 0.03122
0.9228516, -0.0678711, -0.8310547, -8.719512, 115.7317123, 8.4146347, 0.0193027
0.9609375, -0.0732422, -0.8344727, -11.219512, 116.0365906, 8.841464, 0.0102388
1.0200195, -0.0942383, -0.8217773, -11.7073174, 117.68293, 9.2682924, -0.0025177
1.0385742, -0.1118164, -0.7998047, -11.7682934, 118.7195129, 9.5731707, -0.0270237
1.0454102, -0.1645508, -0.7294922, -10.3658543, 120.4878082, 10.060976, -0.0491798
1.0332031, -0.1962891, -0.6879883, -9.1463413, 120.5487823, 9.7560978, -0.0595865
0.9658203, -0.2353516, -0.6381836, -5.7317076, 120.4268341, 8.841464, -0.0632792
0.9233398, -0.2329102, -0.6416016, -4.5731707, 120.1219559, 8.3536587, -0.0622721
0.8442383, -0.1860352, -0.6791992, -3.4756098, 118.9024429, 6.7682929, -0.1122911
0.8217773, -0.1245117, -0.7163086, -4.0243902, 117.5609818, 5.9146342, -0.1562676
0.84375, -0.1088867, -0.7299805, -6.6463418, 114.8780518, 4.2073174, -0.216022
0.9165039, -0.1186523, -0.7250977, -8.2926826, 113.2926865, 3.5975611, -0.282826
0.9589844, -0.1420898, -0.7050781, -10.2439022, 111.2195129, 2.6829269, -0.325124
1.0209961, -0.1987305, -0.6572266, -9.0243902, 111.0365906, 3.2317073, -0.3157244
1.0322266, -0.2294922, -0.6279297, -6.3414636, 111.1585388, 3.1707318, -0.2898756
1.0209961, -0.2553711, -0.5878906, -0.3048781, 111.5243912, 2.9878049, -0.2526131
0.9921875, -0.2524414, -0.5820312, 2.8658538, 111.7073212, 2.8658538, -0.212665
0.9233398, -0.2060547, -0.5878906, 7.1951222, 111.646347, 2.7439024, -0.1807736
0.8710938, -0.1171875, -0.6318359, 8.4146347, 111.5243912, 2.8658538, -0.1777523
0.8671875, -0.0634766, -0.668457, 7.6219516, 110.6707306, 3.1097562, -0.1371328
0.9008789, 0.0571289, -0.753418, 5.670732, 110.6707306, 3.4756098, -0.1028916
0.9404297, 0.1049805, -0.7866211, -0.0609756, 110.1219559, 3.7195122, -0.0639506
1.0405273, 0.1347656, -0.7978516, -3.5975611, 110.1219559, 3.7195122, 0.0129244
1.0888672, 0.1201172, -0.7851562, -9.9390249, 109.9390259, 5.2439027, 0.0663005
1.1625977, 0.0327148, -0.7172852, -13.7195129, 109.9390259, 7.9268293, 0.0998703
1.1733398, -0.0322266, -0.6708984, -13.5365858, 109.7561035, 9.5731707, 0.1173266
1.1416016, -0.140625, -0.5825195, -10.2439022, 110.0609818, 12.7439032, 0.1324331
1.0996094, -0.175293, -0.5507812, -7.8048782, 110.1219559, 13.6585369, 0.1592889
0.9946289, -0.2006836, -0.5195312, -3.5365853, 109.4512253, 13.3536587, 0.1884947
0.8999023, -0.1889648, -0.5297852, -2.804878, 108.3536606, 12.5, 0.2630198
0.8735352, -0.1733398, -0.5424805, -4.3292685, 103.6585388, 10, 0.3533227
0.8803711, -0.1567383, -0.5615234, -5.4878049, 100.3048782, 8.9024391, 0.3966278
0.9204102, -0.1557617, -0.5625, -8.2926826, 95.0609741, 7.7439027, 0.3915923
1.019043, -0.1513672, -0.5512695, -8.6585369, 93.5365906, 7.1951222, 0.3677577
1.0581055, -0.1459961, -0.5454102, -7.5, 92.68293, 6.1585369, 0.3187457
1.0952148, -0.1176758, -0.5366211, -5, 93.9024429, 5.7317076, 0.240528
1.097168, -0.1079102, -0.5307617, -3.8414636, 93.9634171, 5.9756098, 0.1418326
1.0820312, -0.0917969, -0.5405273, -1.6463414, 92.8048782, 6.1585369, 0.0414588
1.0712891, -0.0922852, -0.543457, -1.402439, 91.7682953, 5.9756098, -0.0169528
1.0429688, -0.1259766, -0.5498047, -1.4634147, 89.3902435, 5.8536587, -0.0135958
1.0302734, -0.1762695, -0.5395508, -1.097561, 88.5365906, 5.7317076, 0.0204776
1.0234375, -0.2075195, -0.5273438, -0.0609756, 87.2560959, 4.6341462, 0.0481727
1.0268555, -0.2426758, -0.5205078, 1.2804878, 86.7073212, 3.7195122, 0.0565652
1.0229492, -0.25, -0.5166016, 4.0243902, 86.646347, 1.9512196, 0.0070497
1.0214844, -0.2324219, -0.5302734, 5.670732, 87.3780518, 0.8536586, -0.0673075
1.0185547, -0.2114258, -0.546875, 7.6219516, 88.2926865, -1.1585366, -0.100206
1.0200195, -0.1450195, -0.6235352, 6.5853658, 89.2073212, -2.3780489, -0.0908064
1.0307617, -0.1118164, -0.6669922, 5.1829271, 89.3292694, -2.804878, -0.0713359
1.0776367, -0.0678711, -0.6943359, 1.1585366, 89.5121994, -3.7804878, -0.0485084
1.1147461, -0.0610352, -0.6762695, 0.1219512, 89.8170776, -3.9024391, -0.0050355
1.1640625, -0.0830078, -0.6025391, -0.1829268, 90.9756088, -3.1097562, 0.0639506
1.1743164, -0.1201172, -0.5273438, 0.9146342, 92.1951218, -2.7439024, 0.1649958
1.1499023, -0.1323242, -0.4980469, 2.804878, 94.3292694, -1.3414634, 0.2747692
1.0566406, -0.1293945, -0.4731445, 3.7195122, 94.6341476, -0.6707317, 0.3925994
1.0097656, -0.1142578, -0.4736328, 4.5121951, 94.0243912, 0.7317073, 0.4855879
0.9545898, -0.0634766, -0.4907227, 3.8414636, 91.4024429, 1.8292683, 0.5596094
0.9545898, -0.0424805, -0.5029297, 3.1707318, 89.5121994, 2.0121951, 0.634638
1, -0.0180664, -0.5239258, 1.1585366, 87.0731735, 1.8902439, 0.6799573
1.0322266, -0.0195312, -0.5317383, 0.1219512, 85.9756088, 1.9512196, 0.7061418
1.0830078, -0.0634766, -0.5200195, -0.6097561, 84.3902435, 2.5, 0.7133593
1.0922852, -0.0874023, -0.5039062, -0.6097561, 84.2682953, 3.4146342, 0.704799
1.0800781, -0.1420898, -0.4545898, 1.5243902, 83.5975647, 5.3658538, 0.6932174
1.0205078, -0.1484375, -0.4067383, 3.0487804, 83.4146347, 6.4024391, 0.6933852
0.9829102, -0.1367188, -0.3930664, 6.7073174, 82.3780518, 7.9878049, 0.6920424
0.9326172, -0.1240234, -0.4018555, 7.9878049, 81.4024429, 8.1097565, 0.6645151
0.925293, -0.1176758, -0.4257812, 8.0487804, 78.3536606, 7.6829271, 0.6390021
0.9570312, -0.1210938, -0.4863281, 6.4024391, 74.8780518, 6.6463418, 0.6050965
0.9902344, -0.128418, -0.5087891, 5.3658538, 73.4146347, 6.280488, 0.5302358
1.0649414, -0.1352539, -0.5288086, 5.1829271, 72.2560959, 6.4024391, 0.4100557
1.0986328, -0.1450195, -0.5268555, 5.9146342, 72.4390259, 6.5243902, 0.2683909
1.1274414, -0.1479492, -0.5068359, 8.2317076, 74.1463394, 7.9268293, 0.1386435
1.1269531, -0.1435547, -0.4892578, 9.2073174, 75.0609741, 8.5365858, 0.0125887
1.0922852, -0.1240234, -0.4702148, 9.8170738, 76.2804871, 9.8780489, -0.1132982
1.0283203, -0.109375, -0.4677734, 9.0853662, 76.0365906, 10.3048782, -0.2177005
1.0073242, -0.0986328, -0.4707031, 6.5243902, 73.5975647, 11.1585369, -0.2589914
1.0014648, -0.0883789, -0.4946289, 5.2439027, 72.0731735, 11.219512, -0.2922255
1.0161133, -0.0810547, -0.5078125, 2.804878, 69.3902435, 10.5487804, -0.3170672
1.0683594, -0.0795898, -0.5014648, 1.097561, 69.0243912, 10.060976, -0.3398947
1.0922852, -0.0932617, -0.4902344, 0.7926829, 69.0853653, 9.5731707, -0.3140459
1.112793, -0.1396484, -0.46875, 0.6097561, 70.2439041, 8.9634151, -0.2715801
1.1079102, -0.1665039, -0.4682617, 0.7926829, 70, 9.3292685, -0.232639
1.0859375, -0.1884766, -0.4692383, 0.8536586, 69.6341476, 11.0975609, -0.1928588
1.0703125, -0.1801758, -0.4609375, 0.6097561, 69.6341476, 11.5853662, -0.160296
1.0449219, -0.1489258, -0.4570312, 0.3048781, 70.1219559, 11.219512, -0.1126268
1.0234375, -0.1166992, -0.4785156, 0.2439024, 70.3048782, 10.2439022, -0.0649577
1.0302734, -0.1118164, -0.4912109, -1.097561, 69.3902435, 9.1463413, -0.0119173
1.0493164, -0.112793, -0.5014648, -2.4390244, 68.4756088, 8.780488, 0.0629435
1.0620117, -0.1220703, -0.4936523, -5.5487804, 67.0731735, 8.4146347, 0.1540856
1.0795898, -0.1396484, -0.4541016, -7.3780489, 67.5609741, 8.4756098, 0.2066224
1.0761719, -0.1494141, -0.4316406, -7.6829271, 68.0487823, 8.5365858, 0.1414969
1.0561523, -0.1484375, -0.3999023, -6.7682929, 68.9634171, 8.1097565, 0.0370947
1.0327148, -0.1357422, -0.3964844, -6.7073174, 68.5975647, 7.9878049, -0.0206455
0.9956055, -0.1245117, -0.4013672, -7.1341467, 67.0731735, 7.8658538, -0.0981918
0.9814453, -0.125, -0.4003906, -7.4390244, 66.0365906, 7.4390244, -0.1661707
0.9765625, -0.137207, -0.4008789, -8.1097565, 63.2926826, 6.8292685, -0.2046082
0.9853516, -0.1616211, -0.4072266, -8.841464, 62.3170738, 6.5243902, -0.1958801
0.9892578, -0.1665039, -0.4057617, -9.5731707, 61.2195129, 6.1585369, -0.1478752
0.9941406, -0.1787109, -0.3837891, -9.5731707, 60.9146347, 5.8536587, -0.051194
0.9936523, -0.1826172, -0.3652344, -7.2560978, 59.6951218, 5.0609756, 0.0876173
0.9838867, -0.1826172, -0.355957, -5.609756, 58.9024391, 4.8780489, 0.2344854
0.9765625, -0.1821289, -0.3691406, -5.4878049, 58.1097565, 4.6951222, 0.3556725
0.956543, -0.1914062, -0.3867188, -6.0975609, 56.8292694, 5.2439027, 0.4590677
0.9589844, -0.1943359, -0.3842773, -6.5853658, 56.0975609, 5.670732, 0.5812619
0.9711914, -0.171875, -0.3911133, -5.9146342, 54.8170738, 5.4268293, 0.6732433
0.9770508, -0.1542969, -0.4008789, -5.1829271, 54.2682953, 5.3658538, 0.688014
1.0009766, -0.1328125, -0.4047852, -5.1219511, 53.6585388, 5.3048782, 0.6336309
1.027832, -0.1289062, -0.4008789, -5.0609756, 53.4146347, 5.670732, 0.5490349
1.0307617, -0.1274414, -0.3955078, -5.8536587, 52.5, 6.1585369, 0.4466468
1.0390625, -0.1142578, -0.3774414, -5.9146342, 52.3170738, 7.0121951, 0.3422446
1.0410156, -0.1049805, -0.3623047, -5.1829271, 51.4024391, 7.6219516, 0.2764477
1.0288086, -0.0893555, -0.3422852, -4.8780489, 49.8780518, 8.4146347, 0.2375067
1.0229492, -0.090332, -0.3481445, -5, 48.3536606, 8.780488, 0.2185397
1.0043945, -0.1108398, -0.3574219, -6.8292685, 45.2439041, 9.5121956, 0.216022
1.0058594, -0.1289062, -0.3613281, -7.8048782, 43.3536606, 10.060976, 0.1945373
1.0151367, -0.1499023, -0.3588867, -8.780488, 40.4268303, 10.3658543, 0.1889982
1.0175781, -0.1508789, -0.3608398, -8.5975609, 39.3292694, 10.6097565, 0.1738918
1.0297852, -0.1469727, -0.3735352, -8.2317076, 38.2317085, 10.5487804, 0.1824521
1.0375977, -0.1469727, -0.3862305, -8.3536587, 37.7439041, 10.6097565, 0.233814
1.043457, -0.1489258, -0.3867188, -8.5975609, 36.2195129, 10.3658543, 0.2589914
1.0488281, -0.15625, -0.3652344, -8.780488, 34.9390259, 10.3658543, 0.2690623
1.0483398, -0.1616211, -0.3432617, -9.3902445, 33.1097565, 10.7317076, 0.2546273
1.043457, -0.1621094, -0.3076172, -8.3536587, 31.8292694, 10.7926836, 0.209308
1.0351562, -0.1655273, -0.2949219, -7.7439027, 30.4878063, 10.3658543, 0.1515679
1.0024414, -0.1723633, -0.2695312, -7.3170733, 27.2560978, 10, 0.1008774
0.9892578, -0.1826172, -0.2583008, -7.0731707, 25.3658543, 9.6951218, 0.0572366
0.96875, -0.203125, -0.2431641, -5.9756098, 20.3658543, 9.0853662, 0.0327306
0.9536133, -0.2099609, -0.2568359, -5.8536587, 18.2317085, 8.841464, 0.0471656
0.9350586, -0.2099609, -0.3027344, -5.5487804, 14.8170738, 8.780488, 0.1018845
0.9448242, -0.2041016, -0.3583984, -6.0975609, 13.5365858, 8.4756098, 0.1869841
0.9604492, -0.1943359, -0.3779297, -7.0731707, 11.280488, 7.9878049, 0.2653696
1.0097656, -0.171875, -0.4082031, -7.1341467, 10.9146347, 7.3780489, 0.3432517
1.0351562, -0.1547852, -0.4223633, -7.3170733, 11.280488, 6.4024391, 0.364065
1.0756836, -0.1303711, -0.4360352, -7.8658538, 12.6219511, 6.0365853, 0.3442588
1.0908203, -0.121582, -0.4350586, -7.8048782, 13.5365858, 5.9756098, 0.307332
1.0878906, -0.1069336, -0.4394531, -8.6585369, 14.0243902, 6.7073174, 0.2747692
1.078125, -0.1098633, -0.4399414, -9.3902445, 13.9634151, 7.2560978, 0.2257572
1.0458984, -0.1298828, -0.4379883, -11.0975609, 13.780488, 9.9390249, 0.1757382
1.0327148, -0.1367188, -0.4379883, -11.8902445, 13.6585369, 10.8536587, 0.1418326
1.0126953, -0.1323242, -0.4213867, -12.6219511, 14.2682934, 12.3780489, 0.1226978
1.0039062, -0.1025391, -0.4086914, -12.6829271, 14.5731707, 12.4390249, 0.1106126
1.0024414, -0.0922852, -0.4052734, -13.780488, 14.3902445, 12.0121956, 0.0750286
1.012207, -0.0898438, -0.4052734, -14.6951227, 13.9024391, 11.8902445, -0.0485084
1.0224609, -0.1020508, -0.40625, -18.1097565, 12.0731707, 12.4390249, -0.2452277
1.0419922, -0.1254883, -0.3984375, -20.060976, 10.7317076, 13.5365858, -0.4855879
1.0444336, -0.1386719, -0.3847656, -20.1219521, 10.4268293, 13.841464, -0.7368582
1.0449219, -0.1679688, -0.355957, -18.7195129, 10.2439022, 15.1829271, -0.9038682
1.043457, -0.1796875, -0.340332, -17.560976, 9.6341467, 15.7317076, -0.9394522
1.0268555, -0.2016602, -0.3081055, -15.8536587, 8.1707315, 15.6097565, -0.9559014
1.0170898, -0.2143555, -0.2939453, -14.8780489, 7.0731707, 15.7317076, -0.930724
1.0043945, -0.2192383, -0.2817383, -13.5975609, 4.2682929, 14.8780489, -0.8511635
1.0083008, -0.2075195, -0.2871094, -13.2926836, 2.3780489, 14.6951227, -0.7199054
1.0073242, -0.1958008, -0.2851562, -12.5, -1.0365853, 13.4146347, -0.5493706
1.0268555, -0.1679688, -0.2944336, -12.2560978, -3.1097562, 12.560976, -0.3244526
1.034668, -0.1699219, -0.3139648, -11.7073174, -6.280488, 11.0975609, -0.0713359
1.0405273, -0.1855469, -0.34375, -12.6829271, -9.3292685, 10.6097565, 0.1723812
1.050293, -0.2006836, -0.3452148, -12.5, -10.2439022, 11.1585369, 0.360708
1.0585938, -0.2177734, -0.3188477, -11.280488, -11.7073174, 10.8536587, 0.4973373
1.0581055, -0.21875, -0.3100586, -10.060976, -11.5853662, 10.6707315, 0.5497063
1.015625, -0.2119141, -0.3305664, -9.0853662, -12.2560978, 9.8780489, 0.5560845
0.9931641, -0.2021484, -0.3491211, -9.2073174, -13.1097565, 9.6951218, 0.5141222
0.9682617, -0.1889648, -0.3691406, -10.7317076, -16.280489, 9.5121956, 0.4266728
0.9838867, -0.1767578, -0.3710938, -11.219512, -18.1097565, 9.0853662, 0.3422446
1.0029297, -0.1728516, -0.3686523, -11.341464, -19.939024, 8.841464, 0.2469062
1.0322266, -0.1713867, -0.371582, -10.7926836, -20.3048782, 8.3536587, 0.1743954
1.0371094, -0.1733398, -0.3740234, -10, -20.3658543, 7.9878049, 0.1294118
1.0371094, -0.1772461, -0.3798828, -9.4512196, -19.8170738, 8.3536587, 0.1260548
1.0239258, -0.1762695, -0.3896484, -9.5731707, -19.8780499, 8.841464, 0.0951705
1, -0.1586914, -0.402832, -9.9390249, -20.3658543, 10, 0.0253452
0.9946289, -0.1469727, -0.409668, -10.4268293, -20.9756107, 10.4878054, -0.0741894
0.9951172, -0.1230469, -0.4018555, -11.4634151, -22.7439022, 10.3658543, -0.2019226
0.996582, -0.1240234, -0.3925781, -11.9512196, -23.4756107, 10.3658543, -0.3440909
1.0068359, -0.1376953, -0.3852539, -12.8658543, -24.5731716, 10.6097565, -0.4802167
1.0102539, -0.1494141, -0.4111328, -13.5975609, -25.2439022, 10.7926836, -0.5587701
1.0126953, -0.1474609, -0.4179688, -15, -26.3414631, 11.1585369, -0.5510491
1.0195312, -0.1308594, -0.394043, -15.1219511, -26.8292694, 11.219512, -0.4788739
1.0224609, -0.1347656, -0.3632812, -14.2073174, -28.2317085, 11.219512, -0.3815213
1.0151367, -0.144043, -0.3139648, -12.9878054, -30, 11.280488, -0.2774548
0.9975586, -0.152832, -0.3105469, -13.1097565, -30.9756107, 11.7682934, -0.2002441
0.9482422, -0.1713867, -0.3354492, -15.3658543, -34.3902435, 13.0487804, -0.1139696
0.9321289, -0.1767578, -0.3378906, -16.0975609, -36.4634171, 13.1097565, -0.0320592
0.9355469, -0.1923828, -0.3183594, -16.5243912, -42.3780479, 12.6829271, 0.0330663
0.956543, -0.2055664, -0.2988281, -16.1585369, -45, 12.1951218, 0.0850996
0.9838867, -0.2294922, -0.2646484, -14.2682934, -49.2682953, 10.9146347, 0.0965133
0.9902344, -0.2460938, -0.2568359, -13.2926836, -51.0975609, 10.2439022, 0.0991989
0.9819336, -0.2460938, -0.2641602, -11.8292685, -54.3292694, 9.7560978, 0.1287404
0.965332, -0.230957, -0.293457, -11.280488, -56.2804909, 9.8780489, 0.1668421
0.9580078, -0.2050781, -0.3095703, -10.1829271, -60.4268303, 9.3292685, 0.2205539
0.9707031, -0.1733398, -0.3574219, -9.2682924, -64.4512177, 8.3536587, 0.2744335
0.9863281, -0.1669922, -0.3691406, -9.6951218, -66.2804871, 7.3780489, 0.300618
1.0161133, -0.1791992, -0.3916016, -10.7926836, -69.2682953, 6.7073174, 0.2737621
1.0317383, -0.1938477, -0.4003906, -11.219512, -69.9390259, 6.6463418, 0.2297856
1.0385742, -0.2060547, -0.4223633, -10.9756098, -70.2439041, 6.2195125, 0.128069
1.0322266, -0.1826172, -0.4580078, -10.5487804, -69.8780518, 6.5853658, 0.0052033
1.0292969, -0.1689453, -0.4780273, -10.1219511, -69.1463394, 6.8292685, -0.1015488
1.0336914, -0.1513672, -0.4897461, -10.3658543, -69.1463394, 7.0731707, -0.1498894
1.0390625, -0.1503906, -0.4892578, -10.9756098, -69.5121994, 7.4390244, -0.1660029
1.0620117, -0.1616211, -0.4873047, -11.341464, -69.5121994, 7.8658538, -0.0887922
1.0664062, -0.1621094, -0.4975586, -12.2560978, -68.5975647, 8.780488, 0.0585794
1.0629883, -0.159668, -0.5185547, -13.2926836, -67.0121994, 9.6341467, 0.2267643
1.0629883, -0.15625, -0.519043, -13.7195129, -66.4634171, 10.1829271, 0.3697719
1.0688477, -0.1518555, -0.4853516, -14.2073174, -65.9146347, 10.1219511, 0.4953231
1.0678711, -0.1567383, -0.4619141, -14.5121956, -65.5487823, 10.060976, 0.5564202
1.0522461, -0.1762695, -0.4345703, -14.9390249, -65.18293, 10.6097565, 0.5554131
1.0185547, -0.1928711, -0.4291992, -15.6097565, -65.4878082, 10.6707315, 0.5000229
1.0087891, -0.1943359, -0.4213867, -16.5243912, -66.7073212, 10.4878054, 0.4362402
0.9887695, -0.1977539, -0.3935547, -16.7682934, -67.9878082, 10.1219511, 0.3583581
0.9799805, -0.1962891, -0.3857422, -16.4634151, -70.7317123, 9.6341467, 0.2742657
0.9770508, -0.1855469, -0.387207, -16.5243912, -72.3170776, 9.9390249, 0.1891661
0.9775391, -0.1748047, -0.3833008, -17.2560978, -75.6097565, 9.5121956, 0.121355
0.9960938, -0.1450195, -0.3447266, -18.0487804, -78.3536606, 9.3902445, 0.0575723
1, -0.144043, -0.3217773, -18.3536587, -79.7560959, 9.3902445, 0.0001678
0.9892578, -0.1640625, -0.3164062, -19.5731716, -84.0853653, 9.5121956, -0.0746929
0.980957, -0.1757812, -0.3305664, -20.7317085, -87.0731735, 9.4512196, -0.1646601
0.9570312, -0.2104492, -0.3798828, -22.439024, -93.3536606, 10.3048782, -0.2240787
0.9726562, -0.2192383, -0.4296875, -22.560976, -96.3414688, 10.3658543, -0.2704051
0.9926758, -0.2163086, -0.4428711, -21.8292694, -100.3048782, 10.5487804, -0.303975
1.0458984, -0.206543, -0.449707, -20.4268303, -101.2195129, 10.3048782, -0.3304952
1.0698242, -0.1992188, -0.4575195, -18.1707325, -100.4268341, 9.9390249, -0.4073701
1.0961914, -0.1860352, -0.4868164, -18.1707325, -100.0609818, 9.4512196, -0.5418173
1.0947266, -0.1845703, -0.496582, -18.5365849, -100.5487823, 9.8170738, -0.6678721
1.078125, -0.1801758, -0.5078125, -20.3658543, -101.7073212, 10.1829271, -0.8337072
1.0668945, -0.1772461, -0.5083008, -21.0365868, -102.1341476, 10.7317076, -0.9817502
1.0458984, -0.1650391, -0.5107422, -21.0975609, -102.8048782, 12.1341467, -1.0441901
1.0375977, -0.1640625, -0.5166016, -21.280489, -103.1097565, 12.560976, -1.0767529
1.0336914, -0.1635742, -0.5161133, -21.5243912, -103.8414688, 13.5365858, -1.1071336
1.0415039, -0.1557617, -0.4936523, -21.7682934, -104.4512253, 14.0853662, -1.1863584
1.0454102, -0.1538086, -0.4838867, -21.4634151, -105.3658524, 15, -1.2187533
1.050293, -0.1625977, -0.4628906, -21.2195129, -105.7926865, 15.3658543, -1.1650416
1.0527344, -0.1708984, -0.453125, -21.3414631, -105.9756088, 16.2195129, -1.0294194
1.0419922, -0.1953125, -0.4511719, -21.8902435, -107.6219559, 16.4024391, -0.7940948
1.0307617, -0.2016602, -0.4628906, -22.439024, -108.9634171, 16.280489, -0.5090867
1.0146484, -0.2128906, -0.4956055, -23.0487804, -112.3170776, 16.5853653, -0.2136721
1.0170898, -0.2124023, -0.5029297, -22.6219521, -113.4756088, 16.9512196, 0.082414
1.0444336, -0.2041016, -0.5004883, -20.9146347, -114.2073212, 17.0731716, 0.3442588
1.0595703, -0.2050781, -0.496582, -19.4512196, -113.7195129, 17.439024, 0.5671626
1.0766602, -0.1972656, -0.4995117, -17.439024, -112.3780518, 17.8658543, 0.729305
1.0727539, -0.1889648, -0.515625, -16.8292694, -112.1341476, 18.1097565, 0.8478065
1.0712891, -0.1831055, -0.5185547, -16.280489, -112.1341476, 19.2682934, 0.8812085
1.0673828, -0.1669922, -0.5356445, -16.5853653, -111.8902435, 19.3292694, 0.868452
1.0610352, -0.1625977, -0.5458984, -17.6829281, -111.9512253, 19.2073174, 0.8241398
1.0693359, -0.1674805, -0.5639648, -18.780489, -112.9268341, 19.6951218, 0.7813382
1.0756836, -0.1738281, -0.5668945, -19.0853672, -113.2317123, 20.3658543, 0.7209125
1.105957, -0.1962891, -0.5566406, -19.6341476, -113.9024429, 21.4634151, 0.6437018
1.1191406, -0.2041016, -0.5541992, -19.4512196, -113.7195129, 21.5853672, 0.5893187
1.1083984, -0.1933594, -0.5649414, -19.1463413, -112.3170776, 22.2560978, 0.5483635
1.097168, -0.1767578, -0.5732422, -18.7195129, -111.4024429, 22.8048782, 0.5191577
1.0893555, -0.1494141, -0.5751953, -17.439024, -110.1219559, 23.9024391, 0.4958267
1.0908203, -0.15625, -0.5512695, -17.2560978, -110.4268341, 24.6951218, 0.4500038
1.0927734, -0.1801758, -0.5307617, -16.4634151, -111.0975647, 25.7926826, 0.3476158
1.0844727, -0.2475586, -0.487793, -16.0365849, -111.7073212, 26.7073174, 0.2271
1.0751953, -0.2744141, -0.4799805, -14.6951227, -112.3170776, 27.5, 0.1265583
1.0341797, -0.2871094, -0.4799805, -12.3780489, -113.3536606, 27.3780499, 0.0520333
1.0151367, -0.2797852, -0.4853516, -11.1585369, -114.2682953, 26.5243912, 0.0112459
0.9892578, -0.2563477, -0.5117188, -9.4512196, -116.8292694, 25.1829281, -0.054551
0.9912109, -0.2456055, -0.5283203, -8.9024391, -118.5365906, 24.5731716, -0.1243763
1.012207, -0.2514648, -0.5830078, -9.2682924, -123.0487823, 23.4146347, -0.173724
1.034668, -0.2597656, -0.5991211, -9.4512196, -124.7561035, 22.9878063, -0.1864805
1.0996094, -0.2856445, -0.5908203, -9.1463413, -126.1585388, 22.1341476, -0.1586175
1.1313477, -0.3066406, -0.5429688, -8.4146347, -125.4268341, 21.5243912, -0.1089342
1.1186523, -0.3017578, -0.5336914, -6.890244, -123.1707382, 19.8170738, -0.051194
1.0532227, -0.2744141, -0.5405273, -5.9756098, -122.3780518, 18.780489, -0.0149386
1.015625, -0.2597656, -0.5429688, -5.9146342, -122.9268341, 17.439024, -0.0082246
0.9682617, -0.2529297, -0.5458984, -7.1951222, -125.6707382, 16.5243912, -0.0391089
0.9604492, -0.2553711, -0.5458984, -7.9878049, -127.2561035, 15.6707325, -0.0840925
0.9589844, -0.2836914, -0.5668945, -9.9390249, -131.8902435, 14.3292685, -0.1378042
0.9663086, -0.2919922, -0.5839844, -10.6707315, -134.3292694, 13.780488, -0.2029297
0.9941406, -0.2666016, -0.6376953, -11.4024391, -138.1707306, 12.6829271, -0.2680552
1.0161133, -0.2373047, -0.6557617, -11.7073174, -138.9634247, 12.4390249, -0.3071641
1.0595703, -0.1914062, -0.6430664, -12.6829271, -138.1707306, 11.7073174, -0.3160601
1.0595703, -0.1987305, -0.6049805, -13.5365858, -137.3170776, 11.341464, -0.2646983
1.0375977, -0.2128906, -0.5927734, -15.7317076, -136.5243988, 11.8902445, -0.1938659
0.9804688, -0.2324219, -0.5878906, -17.1341476, -137.2561035, 12.1341467, -0.1795987
0.956543, -0.2211914, -0.6103516, -18.5975609, -137.9268341, 12.8658543, -0.2089723
0.9208984, -0.1811523, -0.6542969, -20.2439022, -140.4878082, 12.9268293, -0.2062867
0.9165039, -0.1694336, -0.6616211, -21.8902435, -141.646347, 12.9268293, -0.1661707
0.9375, -0.1943359, -0.6748047, -24.8780499, -143.9634247, 14.1463413, -0.1257191
0.9555664, -0.2104492, -0.6816406, -26.2195129, -145, 14.5731707, -0.0944991
0.9926758, -0.2353516, -0.6860352, -27.6219521, -144.4512177, 15.3048782, -0.0552224
1.0083008, -0.2373047, -0.6713867, -26.8292694, -142.9268341, 15.3658543, -0.0159457
0.9794922, -0.2275391, -0.6625977, -26.2195129, -140.36586, 14.7560978, 0.0229953
0.9135742, -0.2207031, -0.6425781, -27.0121956, -140.0609741, 14.6951227, 0.0642863
0.8657227, -0.2167969, -0.671875, -28.2317085, -143.9024353, 14.8170738, 0.1131304
0.8378906, -0.2265625, -0.7055664, -30.4878063, -147.6829376, 15.6097565, 0.1559319
0.8530273, -0.2407227, -0.7070312, -35.3658562, -151.5853729, 17.1341476, 0.1747311
0.894043, -0.2612305, -0.715332, -36.7073174, -152.7439117, 16.8292694, 0.1750668
0.9121094, -0.2626953, -0.7128906, -36.6463432, -152.6829376, 16.4024391, 0.1790951
0.9228516, -0.2543945, -0.7099609, -37.8048782, -152.0731812, 15.1829271, 0.1743954
0.9213867, -0.2441406, -0.7089844, -38.841465, -152.0121918, 14.8780489, 0.1559319
0.8920898, -0.2260742, -0.6948242, -40.4268303, -152.7439117, 14.1463413, 0.1341115
0.8774414, -0.2226562, -0.6933594, -41.5243912, -153.2926941, 13.5975609, 0.1059129
0.8447266, -0.2241211, -0.7211914, -43.7195129, -155, 13.1097565, 0.0783856
0.840332, -0.2319336, -0.7646484, -44.6951218, -155.7926941, 13.0487804, 0.0508583
0.8452148, -0.2387695, -0.7817383, -47.1341476, -157.5609741, 13.4146347, 0.0105745
0.8764648, -0.2675781, -0.7973633, -48.1097565, -158.3536682, 13.7195129, -0.0501869
0.890625, -0.2788086, -0.7866211, -48.9634171, -158.4146423, 14.4512196, -0.1398184
0.8916016, -0.2685547, -0.7563477, -48.3536606, -156.0365906, 14.0243902, -0.2754406
0.871582, -0.2558594, -0.75, -48.0487823, -154.8780518, 13.6585369, -0.4140841
0.815918, -0.2514648, -0.7641602, -48.9024391, -155.1829376, 12.9878054, -0.4829023
0.7910156, -0.2612305, -0.7822266, -50, -156.5853729, 13.4756098, -0.5011978
0.7900391, -0.2807617, -0.8168945, -51.5243912, -159.4512177, 14.3902445, -0.5198291
0.8051758, -0.2822266, -0.824707, -51.6463432, -160.2439117, 14.3902445, -0.5386282
0.8422852, -0.2695312, -0.809082, -51.9512215, -159.7561035, 13.4146347, -0.554406
0.8549805, -0.265625, -0.78125, -51.8902435, -159.0243988, 12.6829271, -0.6390021
0.8461914, -0.2700195, -0.7817383, -51.7073174, -159.0853729, 12.4390249, -0.7351797
0.8188477, -0.2753906, -0.8046875, -51.8902435, -159.7561035, 12.8048782, -0.7353475
0.8051758, -0.2744141, -0.8173828, -50.9146347, -160.5487823, 13.3536587, -0.7044633
0.8007812, -0.2568359, -0.8349609, -50.1219521, -160, 13.6585369, -0.6712291
0.8017578, -0.2490234, -0.8359375, -49.9390259, -159.5121918, 13.3536587, -0.6507515
0.8041992, -0.2324219, -0.8442383, -50.4878044, -159.6341553, 13.0487804, -0.634638
0.8022461, -0.230957, -0.8500977, -50.9756126, -160.1829376, 12.9878054, -0.6074464
0.8066406, -0.2397461, -0.8496094, -51.7682953, -161.0365906, 13.0487804, -0.5293965
0.8105469, -0.2553711, -0.8408203, -52.0121956, -161.0365906, 13.2317076, -0.4224765
0.7963867, -0.277832, -0.8251953, -51.6463432, -161.0975647, 13.5975609, -0.2599985
0.7685547, -0.2753906, -0.8193359, -50.9756126, -160.7926941, 13.4146347, -0.0718395
0.7519531, -0.2661133, -0.8383789, -49.5731735, -160.9146423, 13.2926836, 0.1441825
0.7275391, -0.2539062, -0.8881836, -48.9634171, -161.2804871, 13.0487804, 0.4019989
0.7382812, -0.2519531, -0.9003906, -49.2682953, -162.6829376, 13.841464, 0.5967041
0.769043, -0.253418, -0.8842773, -49.7560997, -162.4390259, 14.2073174, 0.7172198
0.7773438, -0.2490234, -0.875, -49.6341476, -161.8292694, 13.9634151, 0.729305
0.7749023, -0.2407227, -0.8706055, -49.2073174, -161.0365906, 13.3536587, 0.6839857
0.7695312, -0.2338867, -0.871582, -48.7195129, -161.0365906, 13.4756098, 0.6349737
0.7519531, -0.230957, -0.887207, -47.9878044, -160.6097565, 13.780488, 0.5426566
0.7460938, -0.2338867, -0.8959961, -47.9878044, -160.36586, 13.780488, 0.470985
0.7504883, -0.2475586, -0.9038086, -47.3170738, -159.2682953, 14.7560978, 0.3966278
0.7470703, -0.2641602, -0.9389648, -47.1341476, -158.4756165, 14.6951227, 0.2979324
0.7504883, -0.2602539, -0.9492188, -46.7682953, -157.9878082, 14.8170738, 0.2294499
0.7705078, -0.2490234, -0.9301758, -46.5243912, -157.3780518, 14.6341467, 0.0918135
0.78125, -0.2529297, -0.902832, -45.4878044, -155.1829376, 13.6585369, -0.0928206
0.7563477, -0.2749023, -0.847168, -44.6951218, -152.5, 12.6219511, -0.2559701
0.7319336, -0.2749023, -0.8530273, -43.841465, -151.7682953, 11.8292685, -0.3727932
0.668457, -0.246582, -0.9482422, -43.7195129, -153.1097565, 10.8536587, -0.4278477
0.6538086, -0.2392578, -0.9990234, -43.9634171, -154.6951294, 10.9146347, -0.4370794
0.6992188, -0.2333984, -1.0175781, -45.1829262, -155.5487823, 12.2560978, -0.4530251
0.7373047, -0.2363281, -0.9936523, -45.1219521, -153.7195129, 12.0121956, -0.4066987
0.7817383, -0.2563477, -0.9316406, -43.7804871, -150.4878082, 11.219512, -0.2838331
0.7504883, -0.2641602, -0.9389648, -42.3170738, -150.2439117, 10.8536587, -0.1284047
0.7299805, -0.2695312, -0.9511719, -39.0243912, -150.6097565, 11.4634151, 0.0280308
0.6943359, -0.2788086, -0.9516602, -37.4390259, -150.4878082, 12.1341467, 0.1710384
0.6806641, -0.2822266, -0.9516602, -35.3658562, -148.6585388, 13.1707315, 0.2695659
0.6572266, -0.2602539, -0.96875, -33.9024391, -149.146347, 12.8658543, 0.3335164
0.6577148, -0.2460938, -0.9760742, -33.5975609, -150.3048859, 12.6829271, 0.3664149
0.6787109, -0.2124023, -0.9990234, -34.1463432, -150.6097565, 12.1341467, 0.4066987
0.6865234, -0.2128906, -1.0014648, -34.7560997, -150.4878082, 12.0121956, 0.4288548
0.7050781, -0.2250977, -0.9804688, -35.8536606, -149.8780518, 11.341464, 0.4238193
0.7094727, -0.2412109, -0.953125, -35.6707344, -149.6341553, 11.4634151, 0.4483253
0.6884766, -0.2451172, -0.9199219, -35.0609779, -147.9268341, 10.7317076, 0.4996872
0.6328125, -0.2333984, -0.9155273, -34.5121956, -147.9268341, 10.060976, 0.5873045
0.6030273, -0.222168, -0.9228516, -33.9634171, -149.146347, 9.7560978, 0.6453803
0.5737305, -0.215332, -0.9545898, -34.0243912, -150.4878082, 9.7560978, 0.5873045
0.5732422, -0.215332, -0.9672852, -34.6341476, -152.6829376, 10.4268293, 0.4716564
0.6040039, -0.206543, -0.9921875, -34.6341476, -153.1707306, 10.7317076, 0.3899138
0.628418, -0.1899414, -0.9921875, -35, -153.1707306, 10.5487804, 0.2925612
0.6679688, -0.1884766, -0.9560547, -35.5487823, -151.2195129, 9.5731707, 0.181445
0.6655273, -0.199707, -0.934082, -35.6707344, -150.6097565, 9.2682924, -0.0162814
0.6279297, -0.2539062, -0.9379883, -34.5121956, -150.6097565, 8.6585369, -0.3781643
0.5800781, -0.284668, -0.9902344, -33.5365868, -151.1585388, 8.841464, -0.6480659
0.5668945, -0.2749023, -1.0146484, -31.1585369, -152.2561035, 9.2073174, -0.7481041
0.5625, -0.2490234, -1.0209961, -30, -152.2561035, 8.9634151, -0.8046693
0.5703125, -0.2460938, -1.012207, -27.5, -150.9756165, 8.841464, -0.8649271
0.5717773, -0.2353516, -1.0102539, -27.0731716, -149.6951294, 8.841464, -0.9008469
0.5615234, -0.2231445, -1.0214844, -26.0975609, -149.0243988, 8.9024391, -0.8820478
0.5649414, -0.2045898, -1.0244141, -24.8780499, -150.0609741, 9.1463413, -0.7979553
0.5703125, -0.2075195, -1.0195312, -25, -149.5731812, 9.3292685, -0.6400092
0.559082, -0.2143555, -1.0126953, -24.9390259, -147.4390259, 9.5731707, -0.4285191
0.5444336, -0.2084961, -1.0107422, -24.8170738, -146.7073212, 9.9390249, -0.1754025
0.5253906, -0.1655273, -1.0043945, -25.2439022, -146.7682953, 9.6951218, 0.0740215
0.5039062, -0.1381836, -0.9692383, -25.6707325, -146.7682953, 9.3902445, 0.2855116
0.4970703, -0.1552734, -0.9472656, -27.3780499, -147.5609741, 9.2682924, 0.4338903
0.46875, -0.2246094, -0.9628906, -27.6829281, -148.5975647, 9.6341467, 0.5013657
0.4614258, -0.2490234, -1, -27.1951218, -150.8536682, 11.4634151, 0.508751
0.46875, -0.2426758, -1.0507812, -26.4634151, -151.5853729, 12.0731707, 0.4630961
0.4814453, -0.2133789, -1.046875, -25.7926826, -150.1219482, 12.3170738, 0.4038453
0.4956055, -0.1416016, -1.0053711, -26.8902454, -147.9878082, 10.060976, 0.3254597
0.4873047, -0.1254883, -0.9946289, -28.0487804, -148.0487823, 9.4512196, 0.232639
