Application:, Trigno Discover (1.6.5)
Date/Time:, 29/01/2025 10:02:53
Collection Length (seconds):, 42.4305
wrist (81457), , , , , , bicep (81139)
sensor mode: 609, , , , , , sensor mode: 40
ACC X (G), ACC Y (G), ACC Z (G), GYRO X (deg/s), GYRO Y (deg/s), GYRO Z (deg/s), EMG 1 (mV)
370.3704 Hz, 370.3704 Hz, 370.3704 Hz, 370.3704 Hz, 370.3704 Hz, 370.3704 Hz, 2148.1481 Hz
0.6811523, -0.171875, -0.2856445, -47.8658562, -27.3780499, 1.7682927, -0.0396124
0.6708984, -0.1669922, -0.2832031, -47.6829262, -27.2560978, 1.6463414, -0.0392767
0.6674805, -0.1621094, -0.2797852, -47.4390259, -26.9512196, 1.1585366, -0.0345769
0.668457, -0.1621094, -0.2724609, -47.5, -27.1951218, 0.6707317, -0.0352483
0.6674805, -0.1660156, -0.2695312, -47.8048782, -27.2560978, 0.2439024, -0.0406195
0.6865234, -0.1762695, -0.262207, -47.4390259, -27.6829281, -0.7926829, -0.0409552
0.6904297, -0.1821289, -0.2729492, -47.0121956, -27.6829281, -1.402439, -0.0419623
0.6875, -0.1860352, -0.2866211, -46.7682953, -27.1341476, -1.5853659, -0.0406195
0.6870117, -0.1821289, -0.2905273, -46.5853653, -26.7682934, -1.2804878, -0.0379339
0.6938477, -0.1699219, -0.293457, -46.4024391, -25.6097565, -1.2804878, -0.0386053
0.6972656, -0.1601562, -0.2954102, -46.1585388, -25.3048782, -1.402439, -0.0365911
0.7006836, -0.1552734, -0.2944336, -46.0975609, -25.4878063, -2.5609756, -0.0473335
0.7104492, -0.1547852, -0.2875977, -45.7317085, -25.7317085, -2.9268293, -0.0607614
0.7114258, -0.1616211, -0.2817383, -46.0365868, -25.9146347, -3.4756098, -0.0688182
0.7124023, -0.1708984, -0.28125, -45.1219521, -25.6097565, -4.1463413, -0.056733
0.7128906, -0.1743164, -0.2832031, -44.4512215, -25.1829281, -4.390244, -0.0392767
0.6967773, -0.1679688, -0.2978516, -43.2317085, -24.7560978, -4.5731707, -0.0298772
0.6923828, -0.1660156, -0.3027344, -42.8048782, -24.0853672, -4.6341462, -0.0137636
0.6801758, -0.1567383, -0.3105469, -43.2317085, -24.3902435, -5, -0.011078
0.6787109, -0.152832, -0.3056641, -43.7195129, -24.5121956, -5, -0.0124208
0.6811523, -0.137207, -0.2802734, -44.7560997, -23.780489, -5.0609756, -0.0137636
0.6948242, -0.1352539, -0.2529297, -45.1219521, -23.9024391, -5.4268293, -0.0124208
0.6992188, -0.1416016, -0.2490234, -44.9390259, -24.5121956, -7.0121951, -0.0137636
0.7094727, -0.1542969, -0.2421875, -44.4512215, -24.9390259, -7.4390244, -0.017792
0.715332, -0.1601562, -0.25, -44.2073174, -25.6097565, -7.6829271, -0.0184634
0.7255859, -0.1650391, -0.2548828, -43.2926826, -25.3658543, -7.8658538, -0.0285344
0.7265625, -0.1704102, -0.2626953, -42.9268303, -24.8170738, -8.1097565, -0.0292058
0.7265625, -0.1728516, -0.2724609, -42.0731735, -24.5121956, -8.2926826, -0.0305486
0.7255859, -0.1708984, -0.2783203, -41.4634171, -24.4512196, -8.2926826, -0.0352483
0.7241211, -0.1655273, -0.284668, -40.9756088, -24.6951218, -8.9634151, -0.0406195
0.7285156, -0.1650391, -0.2836914, -40.6097565, -24.8170738, -9.4512196, -0.0439765
0.7426758, -0.1640625, -0.2768555, -40, -24.7560978, -10.6707315, -0.0476692
0.7480469, -0.1694336, -0.2739258, -39.2073174, -24.5731716, -11.280488, -0.0540475
0.7553711, -0.1728516, -0.2709961, -37.5609779, -24.0853672, -12.0121956, -0.0527047
0.762207, -0.1699219, -0.2749023, -37.1341476, -23.9634151, -12.6829271, -0.0520333
0.7631836, -0.1699219, -0.277832, -36.0365868, -22.9268303, -13.4146347, -0.049012
0.7641602, -0.1704102, -0.2749023, -35.7317085, -22.7439022, -14.1463413, -0.0459907
0.7695312, -0.1748047, -0.2670898, -35.4878044, -22.6219521, -14.8170738, -0.0459907
0.7709961, -0.1835938, -0.2670898, -34.9390259, -22.560976, -16.1585369, -0.0480049
0.7666016, -0.1865234, -0.2695312, -34.6951218, -22.3780499, -16.7682934, -0.0527047
0.7646484, -0.1826172, -0.269043, -34.1463432, -22.0121956, -18.1097565, -0.0516976
0.7714844, -0.1796875, -0.2666016, -33.6585388, -21.8902435, -18.5365849, -0.0580758
0.7919922, -0.1899414, -0.2685547, -32.3170738, -22.8048782, -19.8170738, -0.0547189
0.8129883, -0.1987305, -0.2788086, -31.6463413, -22.8048782, -20.4268303, -0.0446479
0.8212891, -0.2021484, -0.2817383, -30.1219521, -22.2560978, -21.7073174, -0.0473335
0.8310547, -0.2016602, -0.2885742, -29.2682934, -21.4634151, -22.0731716, -0.0419623
0.8325195, -0.1992188, -0.2919922, -27.0731716, -18.780489, -23.1707325, -0.0359197
0.8217773, -0.1816406, -0.3071289, -24.6951218, -16.7073174, -23.9634151, -0.0339055
0.8164062, -0.1679688, -0.3149414, -23.9024391, -16.2195129, -24.5121956, -0.0513619
0.8100586, -0.1494141, -0.3393555, -22.9268303, -15.1829271, -25.2439022, -0.0594186
0.8100586, -0.144043, -0.3447266, -22.9268303, -14.3902445, -25.9146347, -0.0480049
0.8115234, -0.1313477, -0.3442383, -23.2317085, -13.4146347, -26.7073174, -0.03122
0.8100586, -0.1298828, -0.3452148, -23.2317085, -12.7439032, -26.9512196, -0.0124208
0.8125, -0.125, -0.3525391, -23.0487804, -11.219512, -27.8048782, 0.0090639
0.8007812, -0.1079102, -0.3657227, -22.8658543, -10.2439022, -28.0487804, 0.0117494
0.7944336, -0.0961914, -0.375, -22.6219521, -8.4146347, -27.560976, 0.0117494
0.7924805, -0.0786133, -0.3764648, -23.0487804, -7.6829271, -27.5, 0.0151064
0.7890625, -0.0712891, -0.3730469, -23.9024391, -6.2195125, -27.8048782, 0.0184634
0.7954102, -0.0620117, -0.3520508, -25.3048782, -5.1219511, -28.2926826, 0.0124208
0.7993164, -0.065918, -0.3378906, -25.7926826, -5.0609756, -28.4756107, 0.014435
0.8115234, -0.0810547, -0.3125, -26.0975609, -4.5731707, -29.2682934, 0.0023499
0.8193359, -0.0961914, -0.3129883, -26.4024391, -4.5731707, -29.6951218, -0.0261845
0.8369141, -0.1142578, -0.3168945, -26.9512196, -4.1463413, -29.5731716, -0.0540475
0.8432617, -0.1206055, -0.3183594, -27.6219521, -3.7804878, -29.4512196, -0.0795605
0.8691406, -0.1245117, -0.3164062, -28.1097565, -2.8658538, -29.1463413, -0.0782177
0.890625, -0.1264648, -0.3110352, -27.9878063, -2.5609756, -29.2073174, -0.0607614
0.8994141, -0.1201172, -0.3076172, -27.9268303, -1.8902439, -29.5121956, -0.035584
0.921875, -0.1113281, -0.2978516, -27.8658543, -1.1585366, -30.4878063, -0.0114137
0.9208984, -0.1118164, -0.2983398, -27.6829281, -1.0365853, -30.6707325, 0.0050355
0.9360352, -0.1108398, -0.2954102, -27.4390259, -1.402439, -31.280489, 0.0184634
0.9375, -0.1152344, -0.2900391, -27.1341476, -1.5853659, -31.4634151, 0.014435
0.9384766, -0.1308594, -0.2875977, -26.1585369, -2.1341465, -31.9512196, 0.014435
0.934082, -0.137207, -0.2875977, -25.8536587, -2.3170731, -32.3170738, 0.021149
0.9223633, -0.1484375, -0.284668, -24.3292694, -2.0731707, -32.5, 0.0184634
0.9111328, -0.1416016, -0.2749023, -23.2317085, -1.7682927, -32.5, 0.0117494
0.9057617, -0.1293945, -0.2543945, -20.7926826, -1.8292683, -32.9878044, -0.0003357
0.9067383, -0.1220703, -0.2539062, -19.939024, -2.3780489, -33.841465, -0.0124208
0.9057617, -0.1123047, -0.2553711, -18.6585369, -3.4756098, -34.6341476, -0.0288701
0.9160156, -0.0961914, -0.2543945, -18.2317085, -3.7804878, -34.9390259, -0.0382696
0.921875, -0.0893555, -0.2475586, -18.4146347, -3.8414636, -34.6951218, -0.0473335
0.9326172, -0.0825195, -0.2353516, -17.9268303, -4.5121951, -35.1219521, -0.0486763
0.9375, -0.0795898, -0.2416992, -17.3170738, -4.7560978, -34.9390259, -0.0469978
0.9443359, -0.0722656, -0.2661133, -16.0975609, -5.9756098, -35.1829262, -0.0473335
0.9458008, -0.0703125, -0.2773438, -15.4878054, -6.3414636, -35.1829262, -0.049012
0.9511719, -0.0639648, -0.2924805, -14.3292685, -6.5243902, -34.9390259, -0.0500191
0.9511719, -0.0600586, -0.2954102, -14.0853662, -6.2195125, -34.7560997, -0.0446479
0.9487305, -0.0527344, -0.2880859, -12.6829271, -5.670732, -34.6951218, -0.0446479
0.9345703, -0.0507812, -0.2924805, -12.0121956, -5.3658538, -34.8170738, -0.056733
0.9272461, -0.0522461, -0.2944336, -11.5853662, -5.7926831, -34.6951218, -0.056733
0.9121094, -0.0527344, -0.3046875, -11.341464, -5.7317076, -33.9634171, -0.0584115
0.9052734, -0.0463867, -0.3066406, -11.6463413, -5.4268293, -33.5365868, -0.0647898
0.8999023, -0.0273438, -0.3154297, -11.8292685, -5.3658538, -32.7439041, -0.0621042
0.9003906, -0.0175781, -0.3164062, -12.1341467, -5.4878049, -32.7439041, -0.0661326
0.9106445, 0.0039062, -0.3125, -13.3536587, -6.0365853, -32.5609779, -0.0681468
0.9174805, 0.0136719, -0.3066406, -13.9024391, -6.280488, -32.3170738, -0.0654612
0.9370117, 0.0185547, -0.2905273, -14.9390249, -6.5243902, -31.9512196, -0.0584115
0.9467773, 0.0170898, -0.2836914, -14.6341467, -7.0731707, -32.2560997, -0.0540475
0.9599609, 0.0019531, -0.2866211, -14.3292685, -8.1097565, -31.6463413, -0.0513619
0.9741211, -0.0185547, -0.3007812, -14.0243902, -8.2926826, -31.280489, -0.0574044
0.9746094, -0.0258789, -0.3095703, -13.5365858, -8.4146347, -30.7926846, -0.0594186
0.9799805, -0.0371094, -0.3139648, -12.560976, -7.9268293, -30.6097565, -0.0547189
0.9794922, -0.0410156, -0.3115234, -11.8902445, -7.8658538, -30.5487804, -0.0530404
0.9873047, -0.0512695, -0.3134766, -9.8780489, -8.4146347, -31.0365868, -0.0516976
0.9907227, -0.0566406, -0.3164062, -9.3292685, -8.5975609, -31.341465, -0.0433051
1.0043945, -0.0712891, -0.3217773, -8.1097565, -8.9024391, -31.8902454, -0.0412909
1.0097656, -0.0756836, -0.3261719, -7.1951222, -8.780488, -32.2560997, -0.0392767
1.0234375, -0.0864258, -0.3188477, -6.1585369, -7.9878049, -32.0731697, -0.0392767
1.027832, -0.0917969, -0.3183594, -5.4268293, -7.5609756, -32.1951218, -0.0386053
1.0322266, -0.0942383, -0.3310547, -3.2926829, -6.5853658, -32.8658562, -0.0419623
1.0307617, -0.0859375, -0.3383789, -2.7439024, -5.8536587, -32.8048782, -0.0493477
1.0327148, -0.078125, -0.340332, -1.4634147, -4.6341462, -33.3536606, -0.0533761
1.0327148, -0.0664062, -0.3413086, -0.3658537, -3.8414636, -33.5975609, -0.06009
1.0371094, -0.0561523, -0.3422852, 0.6097561, -3.7195122, -33.7195129, -0.0708324
1.0322266, -0.0498047, -0.3515625, 0.9756098, -3.0487804, -33.9634171, -0.0795605
1.0297852, -0.0483398, -0.3588867, 1.1585366, -2.8658538, -34.1463432, -0.0795605
1.0229492, -0.0336914, -0.3618164, 0.9146342, -2.5, -34.0243912, -0.0647898
1.0244141, -0.0307617, -0.3583984, 1.0365853, -2.2560976, -33.9024391, -0.0302129
1.0239258, -0.0224609, -0.3476562, 1.3414634, -1.2195122, -33.9024391, -0.014435
1.0249023, -0.0224609, -0.3466797, 1.3414634, -0.9756098, -34.0243912, 0.0114137
1.0273438, -0.0205078, -0.3496094, 1.5243902, -0.7317073, -33.9024391, 0.0265202
1.0317383, -0.0175781, -0.3510742, 1.0365853, -0.6707317, -33.7804871, 0.0285344
1.0297852, -0.0136719, -0.3500977, 0.6707317, 0.1829268, -33.6585388, 0.0265202
1.0292969, -0.0024414, -0.3422852, 1.1585366, 0.9756098, -33.4146347, 0.0184634
1.0283203, 0.0073242, -0.3364258, 2.0121951, 1.2195122, -33.2926826, 0.0104067
1.0224609, 0.0205078, -0.3354492, 3.6585367, 1.5243902, -32.6219521, -0.0090639
1.0200195, 0.0214844, -0.3461914, 4.3292685, 1.7073171, -32.6829262, -0.0339055
1.0126953, 0.0356445, -0.3666992, 4.6951222, 2.0731707, -32.1341476, -0.0412909
1.0078125, 0.0341797, -0.3740234, 4.390244, 2.0121951, -31.8292694, -0.0446479
1.0087891, 0.0317383, -0.3793945, 4.3292685, 2.3170731, -31.5243912, -0.0446479
1.003418, 0.0302734, -0.3798828, 4.390244, 2.4390244, -31.4634151, -0.0392767
1.0063477, 0.0356445, -0.3710938, 5.4878049, 2.7439024, -30.8536587, -0.0406195
1.0029297, 0.0454102, -0.3598633, 6.4634147, 3.5365853, -30.4268303, -0.0352483
1.0024414, 0.0478516, -0.3588867, 7.6829271, 4.390244, -30.3658543, -0.0352483
0.9873047, 0.0527344, -0.3657227, 8.2317076, 4.7560978, -29.8780499, -0.0369268
0.9829102, 0.0478516, -0.3681641, 7.6829271, 4.8170733, -29.3902454, -0.0419623
0.9790039, 0.0458984, -0.3579102, 7.1341467, 4.6341462, -28.0487804, -0.0506905
0.9819336, 0.0380859, -0.3486328, 7.0731707, 4.6341462, -27.4390259, -0.0580758
0.987793, 0.0327148, -0.3349609, 7.6219516, 4.6341462, -27.1951218, -0.0661326
0.9892578, 0.0307617, -0.3251953, 7.9268293, 5.1829271, -26.6463413, -0.0708324
0.9921875, 0.0224609, -0.315918, 8.5975609, 5.4268293, -26.0975609, -0.0694896
0.9882812, 0.0166016, -0.3173828, 8.6585369, 5.7317076, -25.9146347, -0.0708324
0.9868164, 0.0151367, -0.3188477, 8.3536587, 5.609756, -25.5487804, -0.070161
0.9760742, 0.0170898, -0.3178711, 7.6219516, 5.4268293, -24.8780499, -0.0728466
0.9731445, 0.0195312, -0.3173828, 7.3170733, 5.1829271, -24.3292694, -0.070161
0.9790039, 0.0161133, -0.3164062, 7.8048782, 4.7560978, -23.6585369, -0.0664683
0.9833984, 0.0126953, -0.3129883, 8.1707315, 4.6951222, -23.4756107, -0.0627756
0.9868164, 0.0151367, -0.3193359, 8.780488, 4.6951222, -22.9268303, -0.0621042
0.9921875, 0.0102539, -0.3222656, 8.719512, 4.6341462, -23.0487804, -0.0547189
0.9916992, 0.0102539, -0.3261719, 8.841464, 4.6341462, -22.6219521, -0.0473335
0.9956055, 0.0107422, -0.3286133, 8.5975609, 4.5731707, -22.439024, -0.0386053
0.9926758, 0.0146484, -0.3286133, 8.6585369, 4.5121951, -21.8902435, -0.0292058
0.987793, 0.0063477, -0.3413086, 8.841464, 4.390244, -21.7073174, -0.0305486
0.9907227, 0.0004883, -0.3500977, 8.780488, 4.0853658, -21.0975609, -0.0204776
0.9956055, -0.0039062, -0.3540039, 9.0853662, 4.1463413, -20.8536587, -0.0097353
0.9956055, -0.0019531, -0.3535156, 9.3902445, 5, -20.7926826, -0.0285344
0.9970703, -0.003418, -0.3525391, 10.4268293, 6.0975609, -20.8536587, -0.0352483
1.0009766, -0.0014648, -0.3505859, 11.280488, 6.5853658, -20.9146347, -0.0339055
1.0014648, -0.0078125, -0.355957, 11.5243902, 6.3414636, -20.9146347, -0.0365911
0.9980469, -0.0087891, -0.3569336, 11.5243902, 6.7073174, -20.7926826, -0.0318914
0.9926758, -0.0131836, -0.3520508, 11.4024391, 6.9512196, -20.3048782, -0.0325628
0.9882812, -0.015625, -0.3505859, 11.6463413, 7.5609756, -20.3658543, -0.0318914
0.9868164, -0.0068359, -0.347168, 12.6829271, 8.1707315, -20.2439022, -0.0318914
0.9829102, -0.0063477, -0.3378906, 13.4146347, 8.2926826, -20.060976, -0.0325628
0.9814453, -0.0058594, -0.3398438, 14.7560978, 7.9878049, -20.4268303, -0.0271916
0.9785156, -0.012207, -0.3447266, 15.060976, 7.9878049, -20.4268303, -0.0392767
0.9804688, -0.0161133, -0.3422852, 15.7926836, 7.9878049, -20.060976, -0.0433051
0.9829102, -0.0283203, -0.3378906, 16.7073174, 8.780488, -19.3902435, -0.0399481
0.9829102, -0.0307617, -0.3364258, 17.3780499, 9.0853662, -19.4512196, -0.0426337
0.9868164, -0.0239258, -0.3266602, 19.2682934, 9.5121956, -19.8170738, -0.0459907
0.987793, -0.0205078, -0.3242188, 20, 9.6341467, -20, -0.0543832
0.9951172, -0.0253906, -0.3203125, 20.9756107, 9.5731707, -20.4268303, -0.056733
1.0024414, -0.0249023, -0.3183594, 21.5243912, 9.0243902, -20.6097565, -0.063447
1.0029297, -0.0200195, -0.324707, 22.439024, 9.3902445, -20.1829281, -0.0681468
0.9960938, 0.0146484, -0.3232422, 22.8658543, 10.1829271, -19.8780499, -0.0607614
0.9912109, 0.0371094, -0.3183594, 23.4756107, 11.8292685, -19.6341476, -0.0594186
0.9907227, 0.0634766, -0.3237305, 23.4756107, 11.6463413, -19.7560978, -0.0661326
0.9882812, 0.0654297, -0.3325195, 23.5365868, 10.3658543, -20.3658543, -0.056733
0.9858398, 0.0537109, -0.3603516, 21.7682934, 8.0487804, -19.7560978, -0.063447
0.9882812, 0.0493164, -0.3740234, 20.4878044, 7.8048782, -18.9634151, -0.0882887
0.9892578, 0.0356445, -0.3789062, 18.780489, 8.4146347, -17.5, -0.0772107
0.987793, 0.0351562, -0.3710938, 18.5365849, 9.0853662, -17.1951218, -0.066804
0.9838867, 0.0395508, -0.355957, 19.0243912, 10.7926836, -17.439024, -0.0446479
0.9814453, 0.0361328, -0.3500977, 19.1463413, 10.6707315, -17.560976, -0.0204776
0.9863281, 0.0302734, -0.3457031, 17.9878044, 10.060976, -17.2560978, -0.0151064
0.9897461, 0.0258789, -0.3344727, 17.1951218, 9.5731707, -16.7682934, -0.0137636
1.0014648, 0.0239258, -0.3339844, 16.0975609, 9.0853662, -15.9146347, -0.0097353
1.0048828, 0.0268555, -0.3330078, 15.6707325, 8.9024391, -15.6707325, -0.0063783
1.0102539, 0.0263672, -0.3325195, 16.4024391, 7.9268293, -15.3658543, -0.0043641
1.0224609, 0.0356445, -0.3393555, 17.5, 7.5609756, -15, -0.0057069
1.0209961, 0.0356445, -0.3476562, 17.3780499, 7.4390244, -14.5731707, -0.011078
1.0151367, 0.0473633, -0.3457031, 16.5853653, 7.8048782, -14.2073174, -0.0151064
1.0083008, 0.0556641, -0.34375, 16.3414631, 8.1097565, -14.0243902, -0.0231632
1.0043945, 0.0673828, -0.3359375, 15.6097565, 7.8048782, -13.841464, -0.0292058
1.0058594, 0.0605469, -0.3334961, 15.6097565, 7.5609756, -13.5365858, -0.0325628
1.0039062, 0.0576172, -0.34375, 15.5487804, 6.280488, -13.3536587, -0.0359197
1.0024414, 0.046875, -0.3535156, 15.4268293, 5.9146342, -13.0487804, -0.0392767
1.0039062, 0.0341797, -0.3544922, 14.6341467, 5.7926831, -12.6219511, -0.0426337
0.9975586, 0.0268555, -0.3457031, 14.0853662, 6.0365853, -12.5, -0.0392767
0.9921875, 0.0283203, -0.3447266, 13.2926836, 6.5243902, -12.1341467, -0.0392767
0.9746094, 0.0463867, -0.3457031, 12.5, 7.0121951, -11.1585369, -0.0365911
0.9672852, 0.0625, -0.3447266, 12.4390249, 6.7682929, -11.341464, -0.0345769
0.9746094, 0.0756836, -0.3500977, 11.8902445, 5.9146342, -11.280488, -0.0335698
0.9819336, 0.0766602, -0.3461914, 11.8292685, 4.8780489, -11.8292685, -0.0315557
0.9941406, 0.0668945, -0.347168, 11.219512, 4.2073174, -10.9756098, -0.0352483
1.0029297, 0.0532227, -0.3466797, 10.5487804, 4.0853658, -10.6707315, -0.0426337
1.0068359, 0.0351562, -0.34375, 10.2439022, 4.6341462, -9.6951218, -0.0466621
0.9926758, 0.0273438, -0.3339844, 9.5731707, 5.1219511, -9.3902445, -0.0543832
0.9785156, 0.0307617, -0.3330078, 9.1463413, 5.9146342, -9.0243902, -0.0560616
0.9501953, 0.0429688, -0.3383789, 9.0243902, 5.9146342, -9.0853662, -0.0500191
0.9467773, 0.0532227, -0.3452148, 8.3536587, 4.8170733, -8.4756098, -0.0560616
0.9492188, 0.0693359, -0.3496094, 7.1951222, 3.9024391, -7.7439027, -0.0637827
0.953125, 0.0703125, -0.3525391, 6.890244, 2.9878049, -7.8658538, -0.0654612
0.9624023, 0.0683594, -0.3515625, 6.5243902, 2.9878049, -7.6219516, -0.0621042
0.9599609, 0.0644531, -0.3447266, 6.0975609, 3.2926829, -7.0731707, -0.0621042
0.9550781, 0.0581055, -0.3408203, 5.609756, 3.9024391, -6.5243902, -0.0621042
0.9541016, 0.0537109, -0.3408203, 5.5487804, 3.7195122, -6.2195125, -0.0594186
0.9580078, 0.0419922, -0.3393555, 5.4878049, 3.0487804, -5.9146342, -0.0654612
0.949707, 0.0395508, -0.3359375, 5.2439027, 3.1097562, -5.609756, -0.0728466
0.9477539, 0.0400391, -0.3349609, 5.0609756, 2.6829269, -5.1829271, -0.0916457
0.9492188, 0.0410156, -0.3286133, 4.9390244, 2.6219513, -4.6951222, -0.102388
0.9511719, 0.0415039, -0.3305664, 4.2682929, 2.1341465, -4.7560978, -0.0889601
0.9501953, 0.0415039, -0.328125, 3.9024391, 1.5243902, -4.4512196, -0.0664683
0.9501953, 0.0415039, -0.3271484, 3.9634147, 1.0365853, -4.5731707, -0.0527047
0.9555664, 0.0361328, -0.3227539, 4.0243902, 0.3658537, -3.7195122, -0.0305486
0.9570312, 0.0366211, -0.3208008, 4.1463413, 0.6097561, -3.7804878, -0.0191348
0.9545898, 0.0361328, -0.3144531, 4.1463413, 0.5487805, -3.3536587, -0.0191348
0.9506836, 0.0336914, -0.3076172, 3.9634147, 0.1829268, -3.3536587, -0.0181277
0.9423828, 0.0288086, -0.3046875, 4.0243902, -0.7926829, -3.0487804, -0.0198062
0.9360352, 0.0336914, -0.3076172, 4.1463413, -1.402439, -3.1707318, -0.0231632
0.934082, 0.0361328, -0.3100586, 3.7804878, -2.3780489, -2.4390244, -0.0302129
0.9360352, 0.0390625, -0.3129883, 4.0243902, -3.5365853, -2.3170731, -0.0325628
0.9394531, 0.0410156, -0.3120117, 4.5121951, -3.4146342, -2.3780489, -0.0433051
0.9448242, 0.0400391, -0.3188477, 4.6341462, -4.2073174, -2.4390244, -0.0500191
0.9418945, 0.0380859, -0.3237305, 4.7560978, -4.6951222, -1.9512196, -0.0506905
0.9448242, 0.0400391, -0.3203125, 4.7560978, -5.1219511, -1.5853659, -0.056733
0.940918, 0.0424805, -0.3115234, 4.6341462, -4.9390244, -1.402439, -0.0560616
0.9404297, 0.0439453, -0.3041992, 4.7560978, -4.8780489, -1.5243902, -0.0553902
0.9355469, 0.0419922, -0.300293, 4.9390244, -5.1829271, -1.8292683, -0.0557259
0.9223633, 0.0288086, -0.3022461, 5, -6.3414636, -1.402439, -0.0614328
0.9228516, 0.0229492, -0.3105469, 5, -7.2560978, -1.2804878, -0.06009
0.9262695, 0.0195312, -0.3144531, 5, -7.7439027, -0.8536586, -0.0621042
0.9243164, 0.0146484, -0.3115234, 6.0365853, -8.0487804, -0.4878049, -0.0664683
0.9291992, 0.0126953, -0.3110352, 6.8292685, -8.1707315, -0.7926829, -0.063447
0.9316406, 0.0063477, -0.3173828, 8.0487804, -8.5975609, -1.2195122, -0.063447
0.9306641, 0.0083008, -0.3178711, 7.8658538, -8.9024391, -0.9756098, -0.0694896
0.9272461, 0.0249023, -0.3134766, 7.7439027, -9.0853662, -0.7926829, -0.076875
0.9243164, 0.0361328, -0.3129883, 7.8048782, -9.1463413, -0.6097561, -0.0798962
0.9213867, 0.0517578, -0.3105469, 7.8658538, -9.6341467, -0.6707317, -0.0822461
0.9277344, 0.0605469, -0.3134766, 7.9268293, -10.1219511, -0.8536586, -0.0842603
0.9306641, 0.0585938, -0.3237305, 7.9268293, -11.4024391, -0.1219512, -0.0835889
0.9482422, 0.0615234, -0.3334961, 7.6219516, -11.7682934, 0.6707317, -0.0909743
0.9521484, 0.0615234, -0.3295898, 7.1951222, -11.219512, 0.9756098, -0.087953
0.9594727, 0.0615234, -0.3295898, 6.7073174, -11.219512, 1.097561, -0.0809033
0.9580078, 0.0571289, -0.3334961, 6.6463418, -11.280488, 1.0365853, -0.076875
0.9521484, 0.0493164, -0.3374023, 5.4878049, -12.0121956, 1.402439, -0.0765393
0.9467773, 0.0458984, -0.3413086, 5.1829271, -12.1341467, 1.7682927, -0.0795605
0.9448242, 0.0527344, -0.3442383, 4.4512196, -12.0731707, 2.2560976, -0.070161
0.949707, 0.0527344, -0.3432617, 4.3292685, -11.9512196, 2.195122, -0.06009
0.9624023, 0.0522461, -0.3393555, 4.0853658, -12.5, 1.9512196, -0.056733
0.9643555, 0.0527344, -0.3442383, 4.0243902, -12.6219511, 2.1341465, -0.0473335
0.9775391, 0.0498047, -0.3486328, 4.1463413, -12.6219511, 2.9268293, -0.0463264
0.9814453, 0.0561523, -0.3496094, 3.7195122, -12.2560978, 2.9878049, -0.0476692
0.9873047, 0.0600586, -0.3500977, 3.2317073, -11.6463413, 3.1707318, -0.0621042
0.9907227, 0.0561523, -0.3510742, 2.195122, -11.7073174, 3.2317073, -0.070161
0.9853516, 0.0537109, -0.3544922, 1.9512196, -12.1951218, 3.3536587, -0.06009
0.9780273, 0.059082, -0.3549805, 0.6097561, -12.1341467, 3.9024391, -0.0466621
0.9711914, 0.0664062, -0.3583984, -0.1829268, -12.1341467, 4.2682929, -0.0265202
0.9770508, 0.0737305, -0.3632812, -1.7073171, -12.0121956, 4.6951222, -0.017792
0.9799805, 0.0712891, -0.3613281, -2.5609756, -11.9512196, 4.390244, -0.0083925
0.9853516, 0.0668945, -0.3505859, -3.7804878, -13.2317076, 4.4512196, -0.0057069
0.9907227, 0.0668945, -0.34375, -4.0853658, -13.1097565, 4.7560978, -0.0010071
0.996582, 0.074707, -0.328125, -3.7804878, -11.8902445, 5.1829271, 0.0063783
1, 0.0751953, -0.3295898, -3.5975611, -11.4024391, 5.3048782, -0.0003357
0.9975586, 0.074707, -0.3339844, -3.6585367, -11.5853662, 5.2439027, -0.0083925
0.9956055, 0.0629883, -0.3457031, -4.8780489, -12.8658543, 5.2439027, -0.0137636
1, 0.0507812, -0.3408203, -5.5487804, -13.2926836, 5.670732, -0.0167849
1, 0.0380859, -0.3344727, -6.280488, -13.5365858, 6.2195125, -0.0224918
1, 0.0375977, -0.3295898, -6.1585369, -13.1097565, 6.280488, -0.0285344
0.9990234, 0.0424805, -0.3364258, -5.0609756, -12.2560978, 6.4024391, -0.027863
0.9990234, 0.0498047, -0.340332, -5, -12.5, 6.3414636, -0.0285344
0.9980469, 0.0654297, -0.3496094, -4.6341462, -12.9268293, 6.8292685, -0.0352483
1.0068359, 0.0751953, -0.3476562, -4.8780489, -12.7439032, 7.0731707, -0.0433051
1.0219727, 0.0898438, -0.3432617, -4.8780489, -12.4390249, 7.1951222, -0.0500191
1.0380859, 0.0859375, -0.3374023, -5.1829271, -12.5, 7.0121951, -0.0540475
1.0458984, 0.0766602, -0.3295898, -5.5487804, -13.2926836, 6.890244, -0.0547189
1.0522461, 0.0532227, -0.3222656, -5.9756098, -13.4146347, 7.3780489, -0.0574044
1.0527344, 0.0410156, -0.3144531, -6.0365853, -13.3536587, 7.5609756, -0.0574044
1.0512695, 0.0341797, -0.3139648, -5.8536587, -12.5, 7.9268293, -0.056733
1.0458984, 0.0341797, -0.3139648, -5.2439027, -12.3780489, 7.8658538, -0.0557259
1.0419922, 0.043457, -0.3139648, -5.1219511, -12.5, 7.1341467, -0.0392767
1.0429688, 0.0424805, -0.3232422, -5.0609756, -13.1707315, 6.890244, -0.0318914
1.0493164, 0.0556641, -0.3325195, -5.3048782, -13.7195129, 7.1951222, -0.0352483
1.0585938, 0.0600586, -0.3364258, -5.609756, -13.7195129, 7.2560978, -0.0339055
1.0683594, 0.0595703, -0.3388672, -5.2439027, -13.1707315, 7.5609756, -0.0386053
1.0678711, 0.0615234, -0.3442383, -5.0609756, -12.8048782, 7.2560978, -0.0439765
1.0683594, 0.0561523, -0.3457031, -4.7560978, -12.0731707, 7.4390244, -0.0533761
1.0615234, 0.0512695, -0.3388672, -5.0609756, -11.4024391, 7.4390244, -0.063447
1.0551758, 0.0517578, -0.3388672, -5.4878049, -11.0365858, 7.3780489, -0.070161
1.0366211, 0.0522461, -0.324707, -6.5243902, -10.9146347, 6.8292685, -0.0916457
1.0239258, 0.0595703, -0.3183594, -7.1951222, -10.9146347, 6.7682929, -0.1044022
1.0092773, 0.0717773, -0.309082, -7.8658538, -10.9756098, 6.9512196, -0.0983597
1.0107422, 0.078125, -0.3056641, -7.6829271, -11.219512, 6.890244, -0.0815747
1.0268555, 0.0683594, -0.3032227, -7.5, -12.9878054, 6.1585369, -0.0694896
1.03125, 0.0634766, -0.3051758, -7.1341467, -13.2317076, 6.7073174, -0.0580758
1.0375977, 0.050293, -0.3129883, -7.2560978, -12.6219511, 7.1341467, -0.0691539
1.0405273, 0.0419922, -0.3120117, -7.6219516, -11.9512196, 7.2560978, -0.070161
1.0336914, 0.0395508, -0.3051758, -7.4390244, -10.4268293, 7.0731707, -0.0382696
1.0200195, 0.0419922, -0.2861328, -6.5243902, -9.9390249, 6.5853658, -0.0046998
1.0131836, 0.0449219, -0.2797852, -6.4634147, -10.2439022, 6.3414636, 0.0171206
1.0043945, 0.0405273, -0.2758789, -5.609756, -11.341464, 5.7317076, 0.0238346
1.0024414, 0.0380859, -0.28125, -5.1829271, -11.5853662, 5.5487804, 0.0292058
1.0014648, 0.0297852, -0.2880859, -5.7317076, -12.1951218, 6.1585369, 0.0318914
0.9980469, 0.0268555, -0.293457, -5.670732, -12.2560978, 6.0975609, 0.0305486
0.9960938, 0.0268555, -0.2988281, -5.1829271, -12.0121956, 6.280488, 0.0238346
0.996582, 0.0366211, -0.3007812, -4.7560978, -12.0121956, 6.0365853, 0.0218204
0.9946289, 0.0405273, -0.3041992, -5.2439027, -12.1951218, 5.609756, 0.0171206
0.9916992, 0.0595703, -0.3037109, -5.7317076, -12.4390249, 5.7926831, 0.0036927
0.9892578, 0.0683594, -0.3032227, -6.5853658, -12.560976, 5.9146342, -0.0117494
0.9956055, 0.0717773, -0.3056641, -7.6829271, -13.2926836, 5.5487804, -0.0298772
1.0024414, 0.0668945, -0.3085938, -8.1707315, -13.780488, 5.4268293, -0.0386053
1.0097656, 0.0532227, -0.3129883, -8.780488, -14.3902445, 6.0975609, -0.0486763
1.0146484, 0.0439453, -0.3178711, -9.0243902, -14.3292685, 6.2195125, -0.0513619
1.0092773, 0.0322266, -0.3198242, -8.841464, -13.2317076, 6.5853658, -0.0540475
1.0009766, 0.0336914, -0.3198242, -9.2073174, -12.5, 6.6463418, -0.0627756
0.9853516, 0.0380859, -0.3129883, -9.3902445, -11.4634151, 6.3414636, -0.0607614
0.9707031, 0.0385742, -0.296875, -9.3902445, -11.4024391, 6.0975609, -0.06009
0.9697266, 0.0356445, -0.2924805, -9.5121956, -12.4390249, 5.4878049, -0.056733
0.9702148, 0.0268555, -0.2905273, -9.4512196, -13.1097565, 5.0609756, -0.0459907
0.9702148, 0.0249023, -0.2910156, -9.8170738, -13.9634151, 5.3658538, -0.0406195
0.9648438, 0.03125, -0.2758789, -10.3048782, -12.6219511, 5.7926831, -0.0392767
0.9628906, 0.0361328, -0.2709961, -10.1219511, -12.2560978, 5.609756, -0.0298772
0.9541016, 0.0356445, -0.2705078, -10.2439022, -12.4390249, 5, -0.0352483
0.9536133, 0.0400391, -0.2724609, -10.3048782, -13.0487804, 4.8780489, -0.0412909
0.9536133, 0.0332031, -0.2788086, -10.4268293, -14.1463413, 5.0609756, -0.0459907
0.9628906, 0.0239258, -0.28125, -10.1829271, -14.1463413, 5, -0.0527047
0.9736328, 0.0112305, -0.2661133, -10, -14.2073174, 4.6951222, -0.0486763
0.9663086, 0.0107422, -0.2612305, -9.5731707, -13.5975609, 4.5121951, -0.0433051
0.956543, 0.012207, -0.2631836, -9.0853662, -13.1707315, 4.0243902, -0.0419623
0.9414062, 0.0205078, -0.2685547, -8.841464, -13.0487804, 4.0853658, -0.0318914
0.9365234, 0.0234375, -0.2749023, -9.1463413, -13.841464, 3.7195122, -0.0218204
0.921875, 0.0361328, -0.2832031, -9.8170738, -14.7560978, 4.3292685, -0.0097353
0.9199219, 0.0439453, -0.2910156, -10.2439022, -14.7560978, 4.3292685, -0.0036927
0.9238281, 0.050293, -0.2900391, -10.4268293, -15, 4.2682929, -0.0016785
0.9365234, 0.0527344, -0.2905273, -10.4268293, -15.2439032, 4.0853658, 0.0070497
0.9545898, 0.0351562, -0.2939453, -10.5487804, -16.0365849, 3.7195122, 0.0063783
0.9638672, 0.0292969, -0.2929688, -10.3048782, -16.3414631, 3.9634147, 0.0023499
0.9780273, 0.0141602, -0.2919922, -10.3658543, -15.4268293, 4.5731707, -0.0030213
0.9804688, 0.0200195, -0.2836914, -10.2439022, -14.7560978, 4.5121951, -0.0057069
0.9819336, 0.0263672, -0.284668, -9.7560978, -13.5365858, 4.3292685, -0.0063783
0.9824219, 0.0195312, -0.2841797, -9.0243902, -13.4146347, 3.8414636, -0.0151064
0.9814453, 0.0205078, -0.2880859, -8.9634151, -14.2073174, 3.3536587, -0.014435
0.9775391, 0.0048828, -0.2929688, -9.0853662, -14.5121956, 3.6585367, -0.0204776
0.9785156, 0.0019531, -0.2939453, -9.0853662, -14.6341467, 3.6585367, -0.0248417
0.9848633, -0.0107422, -0.2929688, -8.719512, -14.0243902, 3.7804878, -0.0285344
0.9848633, -0.012207, -0.2998047, -8.841464, -14.1463413, 3.5975611, -0.0406195
0.9755859, -0.0024414, -0.3076172, -8.2317076, -13.6585369, 3.3536587, -0.0433051
0.9785156, 0.0063477, -0.3149414, -7.8048782, -13.3536587, 3.3536587, -0.0480049
0.9770508, 0.0224609, -0.3208008, -8.1707315, -13.4756098, 3.1097562, -0.0516976
0.9912109, 0.0253906, -0.3203125, -8.2926826, -13.5975609, 3.1097562, -0.056733
0.9946289, 0.0249023, -0.3203125, -8.4756098, -13.7195129, 2.6219513, -0.0540475
1.0024414, 0.0151367, -0.3193359, -8.3536587, -13.4146347, 2.8658538, -0.0513619
1.0014648, 0.0102539, -0.3139648, -8.9024391, -13.2926836, 2.9268293, -0.0513619
0.9995117, -0.0014648, -0.3139648, -8.780488, -12.4390249, 2.6829269, -0.0574044
0.9980469, -0.0073242, -0.3129883, -8.780488, -12.4390249, 2.9878049, -0.0674754
0.9853516, -0.0048828, -0.3149414, -8.4146347, -12.1951218, 3.1707318, -0.0718395
0.9848633, -0.0019531, -0.3066406, -8.3536587, -11.5853662, 2.7439024, -0.076875
0.9829102, 0.019043, -0.2958984, -7.9878049, -10.8536587, 2.6829269, -0.070161
0.9794922, 0.027832, -0.2958984, -8.1707315, -10.7317076, 2.5, -0.0718395
0.9819336, 0.0444336, -0.2993164, -8.4146347, -10.9146347, 2.1341465, -0.0691539
0.9882812, 0.0429688, -0.2949219, -8.6585369, -11.341464, 2.1341465, -0.0607614
0.9946289, 0.0336914, -0.2905273, -9.6341467, -11.5853662, 2.195122, -0.0560616
0.9858398, 0.0146484, -0.2880859, -10.1829271, -11.5243902, 2.1341465, -0.0594186
0.9873047, 0.0043945, -0.2910156, -10.6097565, -11.5853662, 2.6829269, -0.0513619
0.9790039, -0.0200195, -0.2885742, -10.5487804, -11.219512, 2.6219513, -0.0547189
0.9692383, -0.0263672, -0.2900391, -10.2439022, -11.0975609, 2.195122, -0.0597543
0.9516602, -0.0341797, -0.2929688, -9.4512196, -11.0365858, 2.4390244, -0.0607614
0.9511719, -0.0244141, -0.2905273, -8.9634151, -10.7926836, 2.0121951, -0.0731823
0.9536133, -0.0053711, -0.2924805, -8.1707315, -11.1585369, 1.8292683, -0.0889601
0.9575195, 0.0068359, -0.2929688, -7.8658538, -10.9146347, 1.5243902, -0.0929885
0.9707031, 0.0249023, -0.2978516, -8.2317076, -11.280488, 1.2804878, -0.0795605
0.9736328, 0.0380859, -0.3081055, -8.719512, -11.7682934, 1.3414634, -0.0708324
0.9765625, 0.0380859, -0.3100586, -9.5731707, -11.5853662, 1.9512196, -0.0661326
0.9858398, 0.0375977, -0.3066406, -10.5487804, -11.7073174, 2.1341465, -0.0527047
0.9863281, 0.0341797, -0.3076172, -11.5243902, -11.7073174, 2.8658538, -0.0486763
0.9946289, 0.0214844, -0.3100586, -12.0731707, -11.9512196, 2.9268293, -0.0386053
0.996582, 0.0175781, -0.3173828, -12.4390249, -11.7073174, 2.9268293, -0.0302129
0.9882812, 0.0136719, -0.3276367, -13.1707315, -11.4634151, 3.5365853, -0.0318914
0.9858398, 0.0161133, -0.3266602, -13.841464, -11.1585369, 3.8414636, -0.0339055
0.9863281, 0.0244141, -0.3339844, -15.1219511, -10.7317076, 3.9024391, -0.0345769
0.9873047, 0.0249023, -0.3349609, -15.6707325, -11.0365858, 3.9024391, -0.0386053
0.9897461, 0.0288086, -0.3330078, -15.9146347, -10.8536587, 3.9634147, -0.0453193
0.9912109, 0.0283203, -0.3173828, -15.6707325, -10.6097565, 4.2073174, -0.0580758
0.9907227, 0.0244141, -0.3105469, -14.7560978, -9.5731707, 4.6341462, -0.0825818
0.9892578, 0.0146484, -0.2944336, -14.3292685, -9.2682924, 4.2682929, -0.0973526
0.9853516, 0.0068359, -0.2875977, -13.6585369, -8.4146347, 3.9634147, -0.0997024
0.9663086, -0.0161133, -0.2856445, -13.6585369, -8.0487804, 3.8414636, -0.0809033
0.9541016, -0.0214844, -0.2822266, -13.1097565, -7.9878049, 3.4756098, -0.056733
0.9384766, -0.0332031, -0.2836914, -12.1951218, -8.0487804, 4.0853658, -0.0318914
0.934082, -0.034668, -0.2875977, -11.7073174, -7.8048782, 4.2073174, -0.0114137
0.9282227, -0.0209961, -0.2861328, -10.2439022, -8.0487804, 3.6585367, 0.0077211
0.9243164, -0.0058594, -0.2851562, -9.3292685, -7.7439027, 3.5365853, 0.0198062
0.9208984, 0.0273438, -0.2836914, -8.841464, -7.5, 3.3536587, 0.0302129
0.9306641, 0.0405273, -0.2807617, -8.4146347, -7.3170733, 3.1097562, 0.0258488
0.9326172, 0.0395508, -0.284668, -8.9024391, -8.5365858, 2.8658538, 0.0157778
0.9477539, 0.0341797, -0.2807617, -9.6951218, -9.4512196, 2.8658538, 0.0124208
0.9516602, 0.0283203, -0.284668, -9.7560978, -9.5731707, 3.1097562, -0.0083925
0.9501953, 0.0224609, -0.2875977, -9.6951218, -8.4756098, 3.5365853, -0.027863
0.9511719, 0.0205078, -0.2875977, -9.1463413, -8.4146347, 3.9634147, -0.0379339
0.9414062, 0.019043, -0.2827148, -9.1463413, -8.2926826, 4.0853658, -0.0459907
0.9360352, 0.0224609, -0.2866211, -8.6585369, -8.1707315, 3.9024391, -0.049012
0.9277344, 0.0317383, -0.2939453, -7.9878049, -8.5975609, 4.2073174, -0.0594186
0.9326172, 0.0322266, -0.2929688, -8.4146347, -8.9634151, 4.3292685, -0.0664683
0.9379883, 0.0356445, -0.2983398, -8.2317076, -9.3292685, 4.5121951, -0.073518
0.9423828, 0.0307617, -0.2929688, -8.2317076, -9.2682924, 4.0853658, -0.0785534
0.9428711, 0.0268555, -0.2895508, -8.719512, -8.841464, 4.6341462, -0.0775463
0.940918, 0.0292969, -0.2944336, -8.2317076, -8.1097565, 4.6951222, -0.0755322
0.9394531, 0.0336914, -0.2944336, -8.1707315, -7.9268293, 5.1829271, -0.0715038
0.9335938, 0.0307617, -0.3041992, -8.3536587, -7.8658538, 5.7926831, -0.0661326
0.9248047, 0.0297852, -0.3027344, -8.5365858, -7.8658538, 5.7317076, -0.0728466
0.9199219, 0.0302734, -0.3012695, -8.5365858, -7.7439027, 5.9146342, -0.0688182
0.918457, 0.0244141, -0.2958984, -9.0243902, -7.6829271, 5.8536587, -0.0647898
0.9145508, 0.0209961, -0.2954102, -9.2073174, -8.1707315, 5.5487804, -0.0647898
0.9145508, 0.0131836, -0.2919922, -9.5121956, -8.1707315, 5.3658538, -0.070161
0.9174805, 0.0019531, -0.2832031, -9.9390249, -8.3536587, 5.4878049, -0.070161
0.9155273, -0.0039062, -0.2749023, -9.8170738, -8.3536587, 5.4878049, -0.063447
0.9174805, -0.0092773, -0.2768555, -9.5121956, -8.4146347, 5.3658538, -0.063447
0.9223633, -0.0068359, -0.2822266, -8.5975609, -8.4146347, 5.3048782, -0.0594186
0.9189453, -0.0063477, -0.2836914, -8.2926826, -8.2926826, 5.2439027, -0.0604257
0.9277344, -0.0102539, -0.2866211, -8.3536587, -8.719512, 5.2439027, -0.0661326
0.9238281, -0.0078125, -0.2871094, -7.9878049, -8.841464, 5, -0.0715038
0.9272461, -0.0126953, -0.2875977, -7.7439027, -8.5365858, 5.1829271, -0.0758679
0.9287109, -0.0102539, -0.2880859, -7.1951222, -8.5365858, 5, -0.0741894
0.9267578, -0.003418, -0.2788086, -6.1585369, -8.2926826, 4.9390244, -0.0674754
0.921875, -0.0009766, -0.2788086, -5.9146342, -7.9878049, 5.0609756, -0.0614328
0.9204102, 0.0112305, -0.2744141, -5.7317076, -8.1707315, 4.6951222, -0.0500191
0.9189453, 0.0102539, -0.2729492, -5.670732, -8.4756098, 4.6951222, -0.0473335
0.921875, 0.0048828, -0.2788086, -5.4878049, -9.3902445, 4.3292685, -0.0396124
0.9194336, 0.0078125, -0.2783203, -4.6341462, -9.6951218, 4.7560978, -0.0332341
0.9213867, 0.0087891, -0.2895508, -4.1463413, -9.2682924, 5, -0.0224918
0.9257812, 0.0063477, -0.2919922, -3.2317073, -9.0243902, 5.0609756, -0.0208133
0.9233398, 0.0136719, -0.2924805, -2.9268293, -9.1463413, 4.9390244, -0.0151064
0.9199219, 0.0083008, -0.2954102, -1.7682927, -9.0243902, 4.6951222, -0.0164492
0.921875, 0.0068359, -0.2939453, -1.1585366, -9.2073174, 4.390244, -0.0171206
0.9291992, 0.0009766, -0.2890625, -0.1829268, -8.9634151, 4.3292685, -0.0191348
0.9282227, -0.0039062, -0.2885742, -0.1219512, -8.780488, 4.2073174, -0.0151064
0.9223633, -0.0019531, -0.2944336, 0.2439024, -8.2317076, 4.3292685, -0.0124208
0.9208984, 0.0058594, -0.2939453, 0.2439024, -8.0487804, 4.5121951, -0.0184634
0.9199219, 0.0102539, -0.296875, -0.1219512, -7.9878049, 4.8780489, -0.0191348
0.909668, 0.0253906, -0.3046875, 0, -8.1097565, 4.8170733, -0.024506
0.9135742, 0.0302734, -0.3110352, 0.4268293, -7.9268293, 5, -0.0218204
0.9267578, 0.0380859, -0.3242188, 0.7926829, -8.0487804, 5.5487804, -0.0305486
0.9296875, 0.0419922, -0.3295898, 0.7926829, -8.0487804, 5.609756, -0.0500191
0.9379883, 0.043457, -0.3310547, 0.3658537, -7.1341467, 5.670732, -0.0607614
0.9414062, 0.0356445, -0.3291016, -0.1829268, -6.5853658, 5.670732, -0.0486763
0.9384766, 0.0244141, -0.3222656, -1.6463414, -6.0975609, 5.9146342, -0.0473335
0.9379883, 0.0161133, -0.3120117, -2.0731707, -5.9146342, 5.609756, -0.0721752
0.9248047, 0.0102539, -0.2915039, -2.6829269, -5.670732, 5.9146342, -0.0758679
0.9111328, 0.0102539, -0.2841797, -2.9268293, -5.670732, 6.0365853, -0.0597543
0.9082031, 0.0141602, -0.2861328, -3.5365853, -5.7317076, 6.0975609, -0.0459907
0.8999023, 0.0214844, -0.2978516, -4.6951222, -6.2195125, 6.4634147, -0.0328985
0.9008789, 0.0200195, -0.3037109, -5.1829271, -7.0121951, 6.3414636, -0.0057069
0.9150391, 0.0209961, -0.3154297, -6.2195125, -7.8048782, 6.6463418, 0.0305486
0.9248047, 0.019043, -0.3222656, -6.3414636, -8.1707315, 6.8292685, 0.0610971
0.940918, 0.0175781, -0.3364258, -7.1341467, -7.7439027, 6.4634147, 0.0849317
0.9477539, 0.0141602, -0.3334961, -7.7439027, -7.5609756, 6.5243902, 0.0929885
0.9477539, 0.0024414, -0.3291016, -7.8658538, -7.0121951, 6.6463418, 0.0835889
0.949707, 0.0009766, -0.3305664, -7.9878049, -6.5853658, 6.5853658, 0.0688182
0.9453125, 0.0004883, -0.3261719, -8.4146347, -6.3414636, 6.3414636, 0.0379339
0.9423828, 0.0083008, -0.3261719, -8.719512, -6.4634147, 6.5853658, 0.0151064
0.9418945, 0.0102539, -0.3237305, -8.6585369, -5.8536587, 6.5243902, -0.0057069
0.9389648, 0.0249023, -0.3208008, -9.0853662, -6.0975609, 6.2195125, -0.0285344
0.9462891, 0.0273438, -0.3237305, -9.2073174, -6.280488, 5.9756098, -0.0339055
0.9570312, 0.0297852, -0.3251953, -9.9390249, -6.5853658, 5.7926831, -0.0459907
0.9609375, 0.0263672, -0.3237305, -10.3048782, -6.5243902, 6.0365853, -0.056733
0.9624023, 0.0166016, -0.3193359, -11.0365858, -6.6463418, 6.4024391, -0.0647898
0.965332, 0.015625, -0.3188477, -11.280488, -6.3414636, 6.6463418, -0.0755322
0.9614258, 0.0146484, -0.3164062, -11.0365858, -5.1219511, 6.8292685, -0.0815747
0.949707, 0.0180664, -0.3139648, -10.6097565, -4.8170733, 6.6463418, -0.0849317
0.9448242, 0.0180664, -0.3178711, -11.0365858, -4.6341462, 6.5243902, -0.0849317
0.9394531, 0.0151367, -0.3095703, -10.9146347, -4.8170733, 6.3414636, -0.0842603
0.9433594, 0.0097656, -0.3081055, -11.6463413, -5.609756, 6.2195125, -0.0862745
0.949707, -0.0004883, -0.3032227, -11.8292685, -6.0365853, 6.280488, -0.0856031
0.9541016, -0.0009766, -0.3061523, -11.7073174, -5.9146342, 6.4024391, -0.0862745
0.9560547, -0.0004883, -0.2944336, -11.341464, -5.1219511, 6.0975609, -0.0983597
0.9501953, 0.0078125, -0.2875977, -11.219512, -4.7560978, 6.4024391, -0.1064164
0.9477539, 0.0244141, -0.2841797, -11.219512, -4.4512196, 6.0365853, -0.1017166
0.9521484, 0.0317383, -0.2802734, -11.4634151, -5, 6.0365853, -0.0956741
0.9453125, 0.0351562, -0.2802734, -11.5853662, -5.9756098, 5.670732, -0.0929885
0.949707, 0.0327148, -0.2792969, -11.6463413, -6.5853658, 5.9756098, -0.0822461
0.9521484, 0.0263672, -0.2836914, -12.0731707, -7.0121951, 5.9756098, -0.0755322
0.9555664, 0.0073242, -0.2856445, -12.560976, -7.3780489, 6.4634147, -0.0748608
0.9536133, 0, -0.2871094, -12.8048782, -7.6829271, 6.5243902, -0.070161
0.9526367, -0.0078125, -0.2885742, -12.3780489, -7.2560978, 6.280488, -0.0661326
0.9545898, -0.0087891, -0.2875977, -11.8902445, -7.0121951, 5.9146342, -0.0688182
0.953125, -0.0087891, -0.2954102, -11.0365858, -7.5, 5.609756, -0.06009
0.9516602, -0.0078125, -0.3037109, -10.8536587, -8.0487804, 5.609756, -0.0580758
0.9599609, -0.0019531, -0.309082, -10.4268293, -8.0487804, 5.4878049, -0.056733
0.9619141, 0.0053711, -0.3125, -10.4268293, -7.9268293, 5.609756, -0.0540475
0.9638672, 0.0170898, -0.3154297, -10.1219511, -7.4390244, 5.3658538, -0.0520333
0.9677734, 0.0258789, -0.3178711, -10.4268293, -7.1951222, 5.3048782, -0.0527047
0.9638672, 0.0288086, -0.3120117, -10.9756098, -6.6463418, 5.3048782, -0.0426337
0.9536133, 0.0356445, -0.3056641, -11.4024391, -6.8292685, 5.3658538, -0.0433051
0.9526367, 0.0336914, -0.3056641, -12.0731707, -6.7073174, 5.3048782, -0.0412909
0.9541016, 0.0253906, -0.3144531, -12.3170738, -7.5, 5.1829271, -0.0406195
0.9492188, 0.019043, -0.315918, -12.3170738, -7.2560978, 5.2439027, -0.0342412
0.9550781, 0.0053711, -0.3320312, -12.7439032, -7.6829271, 5.3048782, -0.0399481
0.953125, -0.0043945, -0.3334961, -12.8658543, -7.1341467, 5.5487804, -0.0406195
0.9477539, -0.0039062, -0.3256836, -12.6829271, -6.280488, 5.1829271, -0.0533761
0.9448242, -0.003418, -0.3178711, -12.7439032, -5.670732, 4.8780489, -0.0486763
0.9404297, -0.0004883, -0.3110352, -12.3780489, -5.4268293, 4.2073174, -0.0305486
0.9384766, 0.0112305, -0.3061523, -12.3170738, -5.609756, 3.9634147, -0.0198062
0.9394531, 0.0141602, -0.3041992, -12.6219511, -5.3658538, 4.0853658, -0.0057069
0.940918, 0.03125, -0.2954102, -12.6829271, -5.4268293, 4.0853658, -0.0016785
0.9472656, 0.0390625, -0.2929688, -12.9268293, -5.3658538, 3.9024391, 0.010071
0.9521484, 0.0390625, -0.2954102, -13.841464, -6.0365853, 4.0243902, 0.0198062
0.9555664, 0.0336914, -0.2905273, -13.9634151, -6.3414636, 4.2682929, 0.0181277
0.9609375, 0.0229492, -0.2856445, -15.3048782, -6.5243902, 4.5731707, 0.0104067
0.9589844, 0.0180664, -0.2841797, -15.5487804, -6.5853658, 4.8170733, -0.0030213
0.9560547, 0.0083008, -0.2734375, -15.7317076, -6.8292685, 4.5731707, -0.0083925
0.9526367, 0.0048828, -0.2680664, -15.5487804, -6.5243902, 4.6951222, -0.0137636
0.9438477, 0.0053711, -0.2636719, -15.2439032, -7.0121951, 4.5731707, -0.0198062
0.9399414, -0.0029297, -0.2666016, -15.3048782, -7.0731707, 4.1463413, -0.0164492
0.9404297, -0.0068359, -0.2685547, -14.8170738, -7.9878049, 3.8414636, -0.0164492
0.9428711, -0.0043945, -0.2675781, -14.4512196, -7.8048782, 4.1463413, -0.0127565
0.9458008, 0.0019531, -0.2661133, -14.0853662, -7.7439027, 4.1463413, -0.0164492
0.9482422, 0.0053711, -0.2714844, -13.0487804, -7.5, 2.9878049, -0.0204776
0.9492188, 0.0024414, -0.2783203, -12.9268293, -7.8658538, 2.8658538, -0.0221561
0.9467773, -0.0092773, -0.2939453, -12.3780489, -8.4146347, 2.6829269, -0.0191348
0.9438477, -0.0234375, -0.2978516, -12.560976, -8.841464, 2.8658538, -0.0194705
0.9467773, -0.0317383, -0.3066406, -12.3780489, -8.4146347, 3.1097562, -0.0204776
0.9467773, -0.0322266, -0.3095703, -11.9512196, -7.8048782, 2.8658538, -0.027863
0.9423828, -0.0166016, -0.3105469, -11.341464, -7.2560978, 2.4390244, -0.0365911
0.9414062, 0.0004883, -0.3110352, -11.0975609, -6.9512196, 1.7073171, -0.0365911
0.9443359, 0.0068359, -0.3129883, -11.0365858, -7.3780489, 1.2195122, -0.042298
0.9536133, 0.0141602, -0.3178711, -11.7682934, -7.5609756, 1.6463414, -0.0547189
0.9604492, 0.0214844, -0.3208008, -12.0121956, -8.1707315, 2.0121951, -0.0574044
0.9711914, 0.0380859, -0.3305664, -12.4390249, -7.6219516, 2.195122, -0.0594186
0.9731445, 0.0415039, -0.3378906, -12.8658543, -7.0731707, 2.5609756, -0.0553902
0.9702148, 0.0385742, -0.3457031, -13.1707315, -6.8292685, 2.6829269, -0.0533761
0.9682617, 0.0356445, -0.3500977, -13.9634151, -6.890244, 3.2317073, -0.0513619
0.953125, 0.0239258, -0.3540039, -15, -6.7682929, 3.3536587, -0.0557259
0.9521484, 0.0234375, -0.3486328, -15.4878054, -6.7682929, 3.7804878, -0.0580758
0.9462891, 0.0092773, -0.3461914, -15.8536587, -5.8536587, 3.6585367, -0.056733
0.9433594, 0.0019531, -0.3334961, -16.0365849, -5.7317076, 3.2926829, -0.06009
0.9389648, -0.0009766, -0.3300781, -15.7926836, -5.4878049, 3.1707318, -0.063447
0.9472656, -0.0043945, -0.3198242, -15.6097565, -5.7317076, 3.5365853, -0.063447
0.9536133, -0.0009766, -0.3164062, -15.7317076, -5.7317076, 2.9878049, -0.0607614
0.9584961, 0.0024414, -0.3012695, -15.3658543, -4.9390244, 3.2317073, -0.0637827
0.9604492, 0.0092773, -0.3007812, -15.060976, -4.5731707, 3.2317073, -0.0691539
0.965332, 0.0170898, -0.3007812, -14.8170738, -4.0243902, 2.6829269, -0.0674754
0.9692383, 0.0200195, -0.296875, -15.2439032, -4.3292685, 2.6829269, -0.0607614
0.9682617, 0.0063477, -0.2978516, -15.4878054, -4.9390244, 2.6829269, -0.0483406
0.9746094, -0.0053711, -0.2983398, -15.7317076, -5.4878049, 2.6829269, -0.0463264
0.9731445, -0.0239258, -0.2895508, -15.7317076, -5.3658538, 2.4390244, -0.0412909
0.972168, -0.0302734, -0.2763672, -15.6707325, -5.1219511, 2.6829269, -0.0392767
0.9697266, -0.0283203, -0.2739258, -15.2439032, -4.6951222, 2.2560976, -0.0392767
0.9594727, -0.0268555, -0.2719727, -15.1219511, -4.5731707, 1.8902439, -0.0419623
0.9609375, -0.0180664, -0.2768555, -14.6341467, -5.1829271, 1.5853659, -0.0419623
0.9624023, -0.0175781, -0.2885742, -14.6341467, -6.4024391, 1.1585366, -0.0345769
0.9682617, -0.0180664, -0.2915039, -14.8780489, -6.8292685, 0.9756098, -0.0285344
0.9794922, -0.0200195, -0.2954102, -14.6341467, -7.0121951, 0.8536586, -0.0231632
0.9848633, -0.0205078, -0.2924805, -14.5731707, -6.7682929, 0.9756098, -0.0204776
0.9882812, -0.0214844, -0.3017578, -14.1463413, -6.280488, 0.8536586, -0.017792
0.984375, -0.019043, -0.3022461, -13.9024391, -6.280488, 0.3658537, -0.0258488
0.9746094, -0.027832, -0.3076172, -13.5365858, -6.280488, 0.2439024, -0.0258488
0.9658203, -0.0273438, -0.3100586, -13.5975609, -6.2195125, 0.3048781, -0.0251774
0.9702148, -0.0297852, -0.3125, -13.1707315, -6.7682929, 0, -0.0298772
0.965332, -0.0292969, -0.3139648, -12.6829271, -6.6463418, -0.2439024, -0.0285344
0.9633789, -0.027832, -0.3222656, -12.4390249, -6.890244, -0.5487805, -0.03122
0.9624023, -0.012207, -0.3237305, -12.4390249, -6.7682929, -0.7926829, -0.0352483
0.9604492, -0.0024414, -0.324707, -12.7439032, -6.7073174, -0.7926829, -0.0396124
0.9663086, 0.0185547, -0.3208008, -12.7439032, -6.4634147, -0.6097561, -0.0459907
0.9682617, 0.0263672, -0.3242188, -13.2926836, -6.5853658, -0.6097561, -0.0547189
0.9731445, 0.0239258, -0.3349609, -13.4756098, -7.6829271, -0.4878049, -0.06009
0.9702148, 0.0224609, -0.3442383, -14.2073174, -8.2317076, -0.0609756, -0.0782177
0.9750977, 0.0205078, -0.355957, -15.7317076, -8.780488, 0.9146342, -0.0809033
0.9697266, 0.019043, -0.3476562, -16.0975609, -8.3536587, 1.2195122, -0.0762036
0.9658203, 0.0229492, -0.3374023, -16.9512196, -7.1341467, 2.0121951, -0.0647898
0.9628906, 0.0283203, -0.3310547, -17.2560978, -6.5853658, 2.0121951, -0.056733
0.9609375, 0.0356445, -0.3330078, -17.3780499, -6.6463418, 1.6463414, -0.0406195
0.9658203, 0.0390625, -0.3349609, -18.1707325, -7.4390244, 2.1341465, -0.0318914
0.9755859, 0.0395508, -0.3364258, -18.4756107, -7.9268293, 2.3780489, -0.0271916
0.980957, 0.0307617, -0.3334961, -18.9634151, -8.1097565, 2.6219513, -0.0238346
0.9897461, 0.0273438, -0.3349609, -19.2073174, -7.8048782, 2.9268293, -0.0305486
1.0009766, 0.0151367, -0.3266602, -19.5731716, -6.890244, 3.2926829, -0.0372625
0.9995117, 0.0068359, -0.3237305, -19.939024, -6.280488, 3.4146342, -0.0459907
0.9887695, -0.0004883, -0.315918, -19.8780499, -5.4878049, 3.3536587, -0.0513619
0.972168, -0.0083008, -0.3120117, -19.939024, -5.3658538, 3.1097562, -0.0476692
0.9667969, -0.0136719, -0.3125, -20.1219521, -5.1219511, 2.9878049, -0.0527047
0.9575195, -0.0175781, -0.3081055, -20, -5.4878049, 3.0487804, -0.063447
0.9599609, -0.019043, -0.3041992, -19.939024, -5.3658538, 2.804878, -0.066804
0.9619141, -0.0200195, -0.3071289, -19.2682934, -5.4878049, 2.0731707, -0.0651255
0.9658203, -0.0185547, -0.3134766, -18.9024391, -5.4268293, 2.1341465, -0.0708324
0.9702148, -0.0112305, -0.3286133, -19.1463413, -5.2439027, 2.0121951, -0.0715038
0.9692383, -0.0083008, -0.3330078, -19.6951218, -5.4268293, 2.1341465, -0.0674754
0.9765625, -0.0073242, -0.3198242, -19.5731716, -5.0609756, 2.1341465, -0.0718395
0.9746094, -0.0068359, -0.3164062, -19.4512196, -4.9390244, 2.0121951, -0.0674754
0.9785156, -0.0136719, -0.3066406, -19.0243912, -5.4268293, 1.8292683, -0.0647898
0.9760742, -0.0234375, -0.3037109, -18.9634151, -5.4268293, 1.4634147, -0.0580758
0.972168, -0.0249023, -0.3051758, -18.4756107, -5.0609756, 1.5243902, -0.0513619
0.9677734, -0.0371094, -0.3198242, -18.1097565, -5.4878049, 1.402439, -0.0503548
0.9604492, -0.0385742, -0.3242188, -17.9878044, -5.4268293, 1.5243902, -0.049012
0.9575195, -0.0375977, -0.328125, -17.5, -5.9756098, 1.402439, -0.0533761
0.9580078, -0.0322266, -0.3310547, -17.3780499, -6.0365853, 1.5853659, -0.0520333
0.9570312, -0.0200195, -0.3276367, -17.1951218, -5.7926831, 1.402439, -0.0480049
0.9555664, -0.0112305, -0.3271484, -17.1951218, -5.7317076, 1.2804878, -0.0513619
0.9487305, 0.0009766, -0.3168945, -17.7439022, -5.7926831, 1.3414634, -0.0527047
0.9516602, 0.0092773, -0.3173828, -17.8658543, -6.1585369, 1.2804878, -0.056733
0.9482422, 0.0151367, -0.3129883, -18.6585369, -6.7682929, 2.0731707, -0.0513619
0.9511719, 0.019043, -0.3173828, -18.9024391, -7.3780489, 1.9512196, -0.0453193
0.9541016, 0.0161133, -0.3198242, -19.0853672, -8.1707315, 2.5609756, -0.0433051
0.9536133, 0.0209961, -0.3408203, -20, -8.4756098, 3.1707318, -0.0352483
0.9560547, 0.0200195, -0.3481445, -20.6097565, -8.719512, 3.4756098, -0.0251774
0.9545898, 0.015625, -0.3520508, -21.8902435, -9.3902445, 4.0853658, -0.0231632
0.956543, 0.0102539, -0.3540039, -22.0731716, -9.3902445, 4.3292685, -0.0318914
0.9506836, 0.0019531, -0.3520508, -22.8658543, -9.3292685, 4.2073174, -0.0416266
0.9492188, -0.0004883, -0.3496094, -23.1707325, -9.2682924, 4.5731707, -0.0352483
0.9501953, -0.0014648, -0.3461914, -23.4756107, -8.9634151, 4.8170733, -0.0154421
0.9453125, 0.0053711, -0.3369141, -23.4756107, -8.841464, 4.6341462, 0.0023499
0.9521484, 0.015625, -0.3237305, -23.7195129, -8.5365858, 4.8780489, 0.0114137
0.9584961, 0.0258789, -0.3100586, -24.0853672, -8.5365858, 5, 0.0157778
0.9589844, 0.0292969, -0.2978516, -24.9390259, -8.9634151, 5, 0.0184634
0.9628906, 0.0214844, -0.2744141, -25.3048782, -9.2682924, 4.6341462, 0.0238346
0.9658203, 0.0151367, -0.2719727, -25.3658543, -9.5121956, 4.6951222, 0.0130922
0.9716797, -0.0058594, -0.2744141, -25.2439022, -10.4878054, 4.5121951, 0.0090639
0.9663086, -0.0200195, -0.2802734, -25.2439022, -10.8536587, 5.0609756, 0.0063783
0.9619141, -0.0439453, -0.2963867, -24.6341476, -11.280488, 5.1219511, -0.0003357
0.9594727, -0.050293, -0.2998047, -24.0853672, -11.4024391, 5.1829271, -0.0137636
0.9560547, -0.0625, -0.3061523, -23.3536587, -11.0365858, 4.8170733, -0.0412909
0.9619141, -0.0625, -0.3056641, -22.9268303, -11.0365858, 4.390244, -0.0506905
0.9707031, -0.0625, -0.315918, -22.1341476, -11.219512, 3.3536587, -0.0540475
0.984375, -0.0561523, -0.3183594, -21.8292694, -11.1585369, 3.1707318, -0.0540475
0.9897461, -0.0478516, -0.3178711, -21.0975609, -10.8536587, 2.804878, -0.0426337
0.9990234, -0.0380859, -0.3149414, -20.6097565, -10.3658543, 2.0731707, -0.0379339
1.0039062, -0.0336914, -0.3144531, -20.2439022, -10.2439022, 1.8292683, -0.0352483
0.9990234, -0.0292969, -0.3193359, -19.5731716, -10.4268293, 1.6463414, -0.0406195
0.9956055, -0.0317383, -0.3232422, -19.4512196, -10.3658543, 1.7682927, -0.0406195
0.9775391, -0.0249023, -0.331543, -20, -10, 2.3780489, -0.0372625
0.9697266, -0.0224609, -0.3310547, -20.3048782, -9.6951218, 2.3780489, -0.0298772
0.9604492, -0.0102539, -0.3261719, -20.8536587, -9.2073174, 2.3170731, -0.0318914
0.9584961, -0.0063477, -0.3251953, -20.7926826, -9.2682924, 2.0121951, -0.042298
0.9580078, -0.0058594, -0.3266602, -21.4634151, -10.4268293, 1.7682927, -0.0533761
0.965332, -0.0136719, -0.3359375, -21.8292694, -10.7317076, 1.5853659, -0.0651255
0.9697266, -0.0146484, -0.3427734, -21.9512196, -10.7317076, 1.7682927, -0.076875
0.9692383, -0.0229492, -0.3569336, -22.3780499, -10.2439022, 2.3170731, -0.0862745
0.9633789, -0.0229492, -0.3657227, -22.1951218, -9.7560978, 2.4390244, -0.0892958
0.949707, -0.0146484, -0.3818359, -22.6219521, -8.5365858, 2.9268293, -0.0839246
0.9428711, -0.0024414, -0.3842773, -22.6829281, -8.1097565, 3.1097562, -0.070161
0.9301758, 0.027832, -0.3730469, -23.6585369, -7.3170733, 3.7804878, -0.0594186
0.9277344, 0.0405273, -0.3676758, -23.7195129, -7.0731707, 3.6585367, -0.0352483
0.9272461, 0.0463867, -0.3535156, -24.3902435, -7.5609756, 3.1707318, -0.0077211
0.9501953, 0.0375977, -0.3515625, -25.060976, -8.1097565, 2.8658538, 0.014435
0.9521484, 0.027832, -0.3500977, -26.280489, -9.5731707, 3.0487804, 0.0204776
0.9624023, 0.0073242, -0.347168, -26.5853672, -10, 3.8414636, 0.0151064
0.96875, 0.0004883, -0.3398438, -27.6829281, -9.4512196, 4.5121951, 0.0130922
0.9624023, -0.0019531, -0.3295898, -27.3170738, -8.5975609, 4.8170733, 0.0023499
0.9580078, -0.0048828, -0.3242188, -26.8902454, -8.2926826, 4.7560978, -0.014435
0.9550781, -0.0102539, -0.3242188, -25.9756107, -9.0243902, 4.0243902, -0.0221561
0.9545898, -0.0146484, -0.3251953, -25.7926826, -9.8780489, 4.0243902, -0.0325628
0.9550781, -0.015625, -0.3266602, -25.3048782, -10.4268293, 4.4512196, -0.0412909
0.9589844, -0.0166016, -0.3232422, -25.3048782, -10.3048782, 4.6341462, -0.0419623
0.9663086, -0.0200195, -0.3120117, -24.6951218, -10.2439022, 4.5121951, -0.0486763
0.9702148, -0.0273438, -0.3007812, -24.2682934, -10.2439022, 4.3292685, -0.0459907
0.9697266, -0.0375977, -0.2978516, -23.4146347, -11.1585369, 3.9024391, -0.0480049
0.9736328, -0.0454102, -0.2978516, -22.8658543, -11.5853662, 3.6585367, -0.0506905
0.9716797, -0.0478516, -0.3041992, -22.6829281, -12.1951218, 4.0243902, -0.0466621
0.9677734, -0.0444336, -0.3115234, -21.8292694, -12.1341467, 4.0853658, -0.0459907
0.9667969, -0.0380859, -0.3164062, -21.280489, -11.8902445, 3.9634147, -0.0463264
0.9663086, -0.0249023, -0.3276367, -20.5487804, -12.6219511, 3.5975611, -0.0426337
0.9707031, -0.0234375, -0.3295898, -20.4878044, -13.1707315, 3.4146342, -0.0426337
0.9799805, -0.0219727, -0.3295898, -20.4268303, -13.780488, 2.8658538, -0.0406195
0.9882812, -0.0219727, -0.3242188, -20.2439022, -13.7195129, 3.1097562, -0.0342412
0.9975586, -0.0273438, -0.2973633, -20.4268303, -13.2926836, 3.1707318, -0.03122
0.9970703, -0.0317383, -0.277832, -20.1829281, -12.9268293, 3.1707318, -0.0352483
0.9951172, -0.0336914, -0.2744141, -19.0853672, -13.4146347, 2.7439024, -0.0352483
0.9799805, -0.0458984, -0.2900391, -18.4146347, -13.780488, 2.6219513, -0.0328985
0.980957, -0.0498047, -0.296875, -17.3780499, -15, 2.5, -0.0352483
0.9794922, -0.0644531, -0.3164062, -16.5243912, -16.0365849, 2.5, -0.0339055
0.9833984, -0.0644531, -0.3227539, -16.4024391, -15.9756098, 2.4390244, -0.0271916
0.9775391, -0.0571289, -0.3413086, -15.6097565, -15.6707325, 2.5609756, -0.0339055
0.9750977, -0.0537109, -0.3535156, -15.3048782, -15.4878054, 2.2560976, -0.0392767
0.9736328, -0.0322266, -0.362793, -14.8780489, -14.3902445, 2.0121951, -0.0352483
0.9794922, -0.0288086, -0.3618164, -15.1219511, -14.2682934, 1.9512196, -0.0325628
0.9858398, -0.0166016, -0.3603516, -15.1219511, -14.2682934, 1.7682927, -0.0352483
0.9951172, -0.0112305, -0.3588867, -14.9390249, -13.9634151, 1.7682927, -0.0258488
1.0004883, -0.0102539, -0.3632812, -14.9390249, -14.0853662, 1.7073171, -0.0184634
1.0004883, -0.0078125, -0.3618164, -15.6097565, -14.0243902, 1.7073171, -0.027863
0.9970703, -0.0068359, -0.362793, -15.7317076, -13.4756098, 2.195122, -0.0248417
0.987793, -0.003418, -0.3710938, -16.280489, -12.6829271, 2.7439024, -0.0191348
0.9814453, 0, -0.3701172, -16.4634151, -11.8902445, 3.2317073, -0.0218204
0.9755859, 0.0161133, -0.3652344, -16.5853653, -11.0975609, 3.7804878, -0.0224918
0.9716797, 0.0219727, -0.3598633, -16.8902435, -10.6097565, 3.7195122, -0.0251774
0.9716797, 0.0292969, -0.3481445, -17.6219521, -11.1585369, 3.5975611, -0.0258488
0.9760742, 0.0317383, -0.3486328, -17.8658543, -10.8536587, 3.5365853, -0.027863
0.9770508, 0.03125, -0.3500977, -18.6585369, -11.341464, 3.4756098, -0.0251774
0.9736328, 0.0273438, -0.3481445, -19.0853672, -11.5853662, 4.0853658, -0.0198062
0.972168, 0.0200195, -0.3452148, -19.6951218, -10.9756098, 4.6951222, -0.0191348
0.9667969, 0.0058594, -0.3354492, -19.6341476, -11.0975609, 4.4512196, -0.0271916
0.9667969, -0.0014648, -0.3266602, -18.7195129, -11.1585369, 4.3292685, -0.0419623
0.9599609, -0.0117188, -0.3193359, -17.8048782, -11.280488, 4.2682929, -0.0580758
0.9560547, -0.0097656, -0.315918, -17.3170738, -11.0365858, 4.390244, -0.0527047
0.9555664, -0.0102539, -0.3183594, -16.5243912, -11.1585369, 4.4512196, -0.0406195
0.9536133, -0.0043945, -0.3144531, -16.4024391, -11.0975609, 4.2073174, -0.0406195
0.9560547, -0.0048828, -0.3085938, -15.8536587, -11.7073174, 4.0243902, -0.0382696
0.956543, -0.0087891, -0.3066406, -15.7317076, -12.6219511, 3.6585367, -0.0352483
0.96875, -0.0151367, -0.3134766, -15.3658543, -13.2926836, 4.0853658, -0.0379339
0.9760742, -0.0200195, -0.3076172, -15.060976, -13.3536587, 4.5121951, -0.0406195
0.9790039, -0.019043, -0.3076172, -14.0243902, -12.560976, 4.5731707, -0.0553902
0.9746094, -0.0200195, -0.3051758, -13.5365858, -12.4390249, 4.390244, -0.0644541
0.9770508, -0.0166016, -0.3085938, -12.0121956, -12.4390249, 4.0853658, -0.06009
0.9746094, -0.0175781, -0.3222656, -11.7682934, -13.5975609, 3.9634147, -0.0597543
0.9760742, -0.0175781, -0.3320312, -11.5853662, -13.9634151, 4.1463413, -0.06009
0.9790039, -0.0097656, -0.328125, -11.5243902, -13.841464, 4.5731707, -0.0651255
0.9838867, -0.0097656, -0.3310547, -11.0975609, -13.4756098, 4.5121951, -0.0728466
0.9858398, 0.0024414, -0.3339844, -10.8536587, -13.1097565, 4.2073174, -0.0674754
0.9936523, 0.0019531, -0.3359375, -10.6707315, -12.9878054, 4.0243902, -0.0711681
1.0019531, 0.0024414, -0.3354492, -10.5487804, -13.4146347, 4.0243902, -0.0711681
0.9995117, -0.0151367, -0.3378906, -10.8536587, -13.7195129, 4.1463413, -0.0674754
0.9975586, -0.019043, -0.3398438, -11.280488, -13.4756098, 4.3292685, -0.0627756
0.9887695, -0.0195312, -0.3291016, -11.280488, -13.1707315, 4.4512196, -0.0594186
0.9790039, -0.012207, -0.324707, -11.4024391, -11.8902445, 4.5121951, -0.070161
0.9697266, -0.0004883, -0.3300781, -10.2439022, -11.7073174, 4.2073174, -0.0835889
0.9682617, 0.0004883, -0.3378906, -10.060976, -12.3780489, 3.8414636, -0.0782177
0.980957, -0.0073242, -0.34375, -10.1829271, -13.841464, 3.2926829, -0.0882887
0.9892578, -0.015625, -0.3432617, -10.8536587, -14.1463413, 3.5975611, -0.1050736
0.9990234, -0.0249023, -0.3261719, -11.4024391, -13.1707315, 4.4512196, -0.0929885
1, -0.0273438, -0.3139648, -11.0365858, -12.0731707, 4.4512196, -0.076875
0.9848633, -0.0258789, -0.3007812, -9.6951218, -10.7926836, 3.6585367, -0.0580758
0.9667969, -0.0244141, -0.3129883, -9.1463413, -10.7926836, 3.5975611, -0.0372625
0.9575195, -0.0229492, -0.3222656, -8.4756098, -11.8292685, 3.2317073, -0.0164492
0.9438477, -0.0126953, -0.3378906, -8.4146347, -12.2560978, 3.2317073, -0.0087282
0.9443359, -0.0087891, -0.3422852, -9.3292685, -12.5, 4.0243902, -0.0070497
0.9550781, 0.0073242, -0.324707, -8.6585369, -11.6463413, 4.2073174, -0.0057069
0.9594727, 0.0102539, -0.3208008, -8.2317076, -11.4634151, 3.7804878, -0.0063783
0.9589844, 0.0107422, -0.3164062, -6.8292685, -11.4634151, 3.0487804, -0.0151064
0.9589844, 0.0078125, -0.3183594, -7.0121951, -11.5853662, 3.1097562, -0.0258488
0.9541016, 0.0004883, -0.3149414, -7.6829271, -11.8902445, 3.3536587, -0.0345769
0.9521484, -0.0068359, -0.3071289, -7.8048782, -11.341464, 3.6585367, -0.0453193
0.9545898, -0.0136719, -0.2978516, -7.1341467, -11.280488, 3.6585367, -0.0574044
0.9521484, -0.0170898, -0.2944336, -6.5853658, -11.341464, 3.6585367, -0.0627756
0.9511719, -0.0146484, -0.2963867, -5.9146342, -11.6463413, 3.0487804, -0.0694896
0.9492188, -0.0126953, -0.3217773, -5.7317076, -12.560976, 3.3536587, -0.0661326
0.9462891, -0.0102539, -0.3291016, -5.7926831, -12.560976, 3.7804878, -0.0661326
0.9506836, 0.0004883, -0.3359375, -6.890244, -12.1951218, 4.1463413, -0.0647898
0.9570312, 0.0107422, -0.3349609, -6.9512196, -12.3170738, 4.0243902, -0.0721752
0.9614258, 0.015625, -0.3291016, -6.6463418, -12.6219511, 3.5365853, -0.070161
0.9633789, 0.015625, -0.3300781, -6.5243902, -12.7439032, 3.4756098, -0.0721752
0.965332, 0.0083008, -0.3232422, -7.2560978, -12.7439032, 3.9024391, -0.0822461
0.9663086, 0.0048828, -0.315918, -7.6829271, -12.1341467, 4.2682929, -0.0950027
0.9658203, 0.003418, -0.3056641, -7.9878049, -11.7682934, 4.1463413, -0.0916457
0.9594727, -0.0058594, -0.3208008, -7.9268293, -11.7682934, 3.7195122, -0.0943313
0.9506836, -0.0092773, -0.3305664, -7.6829271, -12.8658543, 3.8414636, -0.0943313
0.9404297, -0.0043945, -0.3564453, -8.5975609, -12.8658543, 4.4512196, -0.0896315
0.9399414, 0.0019531, -0.355957, -9.1463413, -12.6219511, 4.9390244, -0.0882887
0.9443359, 0.0117188, -0.347168, -9.5731707, -11.219512, 5.3658538, -0.0809033
0.9472656, 0.0200195, -0.3427734, -9.6341467, -10.9756098, 4.8170733, -0.0822461
0.9472656, 0.0244141, -0.3417969, -9.2073174, -11.341464, 4.1463413, -0.0829175
0.9467773, 0.0200195, -0.3398438, -9.0853662, -11.5243902, 3.9634147, -0.0842603
0.9604492, 0.0117188, -0.3374023, -9.6951218, -11.7073174, 4.6341462, -0.0809033
0.9614258, 0.0004883, -0.3276367, -9.8170738, -11.1585369, 4.9390244, -0.0795605
0.9672852, -0.0131836, -0.3129883, -9.6951218, -10.1219511, 4.8780489, -0.0829175
0.9550781, -0.0170898, -0.3081055, -9.5121956, -9.8780489, 4.8170733, -0.0788891
0.9506836, -0.0180664, -0.309082, -7.9268293, -9.5121956, 4.1463413, -0.0718395
0.9458008, -0.0205078, -0.3110352, -7.4390244, -9.9390249, 3.9024391, -0.0647898
0.9389648, -0.0195312, -0.3110352, -7.4390244, -9.8170738, 3.9024391, -0.0641184
0.9438477, -0.0087891, -0.3139648, -7.1951222, -10.060976, 3.9634147, -0.0610971
0.9462891, -0.0058594, -0.3149414, -6.9512196, -9.8780489, 3.6585367, -0.06009
0.9501953, -0.0058594, -0.309082, -6.5853658, -10.3048782, 3.1097562, -0.0560616
0.9545898, -0.0117188, -0.3105469, -6.7073174, -10.4878054, 2.9878049, -0.0476692
0.9550781, -0.0195312, -0.3056641, -6.4024391, -10.6097565, 3.4756098, -0.0459907
0.9589844, -0.019043, -0.3041992, -6.2195125, -10.4878054, 3.3536587, -0.0473335
0.9555664, -0.0288086, -0.2973633, -5.3048782, -10.3048782, 3.4756098, -0.0406195
0.9526367, -0.034668, -0.2958984, -4.6341462, -10.060976, 3.3536587, -0.0379339
0.953125, -0.0336914, -0.2949219, -4.0853658, -10.060976, 2.6829269, -0.0359197
0.9526367, -0.0283203, -0.2958984, -3.6585367, -10.7926836, 2.6829269, -0.0433051
0.9536133, -0.0273438, -0.2910156, -3.8414636, -10.9756098, 2.6219513, -0.0392767
0.9589844, -0.0288086, -0.2851562, -3.9634147, -11.4634151, 2.5, -0.0359197
0.9555664, -0.0229492, -0.2836914, -4.0243902, -11.0975609, 2.3780489, -0.0372625
0.9526367, -0.0209961, -0.2910156, -3.5975611, -11.5243902, 2.3780489, -0.0433051
0.9501953, -0.0200195, -0.2963867, -3.7804878, -11.5243902, 2.5609756, -0.0446479
0.9428711, -0.0102539, -0.3149414, -4.0243902, -11.6463413, 2.6219513, -0.0433051
0.9404297, -0.0073242, -0.3227539, -4.5121951, -11.7073174, 2.804878, -0.0399481
0.940918, 0.0117188, -0.3242188, -5.609756, -11.7682934, 2.9268293, -0.0372625
0.9458008, 0.0151367, -0.3125, -5.609756, -11.7073174, 3.1097562, -0.0352483
0.949707, 0.0151367, -0.3134766, -5.670732, -11.5243902, 2.9878049, -0.0305486
0.9511719, 0.0102539, -0.3168945, -6.4634147, -11.8902445, 2.2560976, -0.035584
0.9521484, 0.0107422, -0.3203125, -6.7073174, -11.7682934, 2.6829269, -0.0342412
0.9545898, 0.0048828, -0.3217773, -7.0731707, -11.4024391, 2.7439024, -0.03122
0.9555664, -0.0014648, -0.3237305, -7.3780489, -11.1585369, 2.6829269, -0.0308843
0.9472656, -0.0014648, -0.3110352, -7.1951222, -10.7317076, 2.804878, -0.0325628
0.9477539, -0.0073242, -0.3081055, -6.7073174, -10.5487804, 2.9268293, -0.0332341
0.9472656, 0, -0.3183594, -6.2195125, -10.3658543, 2.2560976, -0.0332341
0.9482422, 0.0009766, -0.3208008, -6.4024391, -10.6097565, 2.3780489, -0.0302129
0.9428711, -0.0107422, -0.3325195, -6.7682929, -10.9146347, 2.2560976, -0.0251774
0.9453125, -0.0126953, -0.3457031, -7.0731707, -10.7317076, 2.5, -0.0224918
0.9506836, -0.0053711, -0.34375, -7.4390244, -10.2439022, 2.804878, -0.0265202
0.9555664, -0.0097656, -0.3398438, -7.3170733, -9.3292685, 2.6219513, -0.0238346
0.9570312, -0.0073242, -0.3374023, -6.8292685, -8.780488, 2.5609756, -0.0164492
0.9545898, -0.0024414, -0.3310547, -7.0731707, -8.780488, 2.0731707, -0.0117494
0.9545898, -0.0014648, -0.3325195, -7.3170733, -8.5365858, 2.0731707, -0.0171206
0.9541016, 0.0029297, -0.3261719, -7.8658538, -8.5975609, 2.4390244, -0.0204776
0.9594727, 0.0063477, -0.3188477, -8.2317076, -8.5975609, 2.3780489, -0.0204776
0.9609375, 0.0058594, -0.3139648, -8.2317076, -7.9268293, 2.6829269, -0.0234989
0.9589844, 0.0039062, -0.3164062, -8.1707315, -8.1707315, 2.4390244, -0.0271916
0.9526367, 0.0136719, -0.3139648, -8.9634151, -8.0487804, 2.9268293, -0.0248417
0.9501953, 0.0200195, -0.3071289, -9.4512196, -7.9268293, 2.9268293, -0.0204776
0.9506836, 0.019043, -0.3061523, -9.7560978, -8.1097565, 2.9878049, -0.0218204
0.9501953, 0.0039062, -0.3071289, -9.8780489, -8.841464, 2.3780489, -0.0208133
0.9541016, -0.0083008, -0.3085938, -10, -9.3292685, 2.5609756, -0.0218204
0.9550781, -0.0283203, -0.3066406, -10.4878054, -9.5731707, 2.804878, -0.0231632
0.9555664, -0.0351562, -0.3076172, -10.3658543, -8.9024391, 3.1097562, -0.0251774
0.9570312, -0.0419922, -0.300293, -9.2682924, -8.3536587, 2.5, -0.0271916
0.956543, -0.0390625, -0.2993164, -8.4146347, -8.2317076, 2.3780489, -0.0271916
0.9570312, -0.0390625, -0.3100586, -7.5609756, -8.3536587, 1.6463414, -0.027863
0.9638672, -0.0273438, -0.3061523, -7.0121951, -8.4146347, 1.5243902, -0.0298772
0.9692383, -0.0283203, -0.3037109, -6.7682929, -8.719512, 1.5243902, -0.0332341
0.980957, -0.0258789, -0.2963867, -6.8292685, -8.6585369, 1.402439, -0.0305486
0.9785156, -0.0214844, -0.3012695, -6.6463418, -8.3536587, 1.1585366, -0.0352483
0.972168, -0.012207, -0.3164062, -6.7682929, -8.1097565, 1.1585366, -0.0345769
0.965332, -0.0126953, -0.3178711, -7.1341467, -8.2926826, 1.3414634, -0.0365911
0.9604492, -0.0053711, -0.3085938, -7.5, -8.3536587, 1.2195122, -0.0453193
0.9545898, 0.0019531, -0.3017578, -7.2560978, -8.2926826, 1.5853659, -0.0466621
0.9536133, 0.0073242, -0.2978516, -7.0121951, -8.2317076, 1.4634147, -0.0352483
0.953125, 0.0102539, -0.2973633, -6.9512196, -8.1097565, 1.2804878, -0.0198062
0.9550781, 0.0078125, -0.3076172, -7.0121951, -8.6585369, 0.7317073, -0.0057069
0.9604492, -0.012207, -0.3217773, -7.3170733, -8.9634151, 0.5487805, -0.0003357
0.9604492, -0.0175781, -0.3212891, -7.8048782, -9.8170738, 1.097561, 0.0020142
0.9638672, -0.0317383, -0.3203125, -8.0487804, -9.4512196, 1.5243902, 0.0020142
0.9663086, -0.034668, -0.3237305, -7.6829271, -8.719512, 1.5853659, 0.0003357
0.9555664, -0.0249023, -0.3232422, -6.9512196, -7.3780489, 1.4634147, 0.0063783
0.9506836, -0.0195312, -0.3232422, -6.5853658, -7.1951222, 1.2804878, 0.0060426
0.9511719, -0.0087891, -0.3198242, -6.5243902, -7.3780489, 0.6707317, -0.0083925
0.9482422, -0.0053711, -0.3154297, -6.5853658, -7.5, 0.7317073, -0.011078
0.9536133, 0.0043945, -0.3056641, -7.1951222, -7.8048782, 0.4878049, -0.0137636
0.9555664, 0.0078125, -0.3100586, -7.4390244, -7.9268293, 0.6097561, -0.0127565
0.9545898, 0.0058594, -0.3305664, -8.1707315, -8.1097565, 0.9146342, -0.0218204
0.953125, -0.003418, -0.3339844, -8.9024391, -8.4756098, 1.402439, -0.0258488
0.9516602, -0.0078125, -0.3320312, -9.8780489, -8.4146347, 1.9512196, -0.0325628
0.9462891, -0.0083008, -0.3154297, -9.6341467, -8.2317076, 2.0121951, -0.0379339
0.9453125, -0.0043945, -0.3110352, -9.2073174, -7.1951222, 1.8292683, -0.0352483
0.9438477, 0.0073242, -0.3007812, -9.6341467, -6.9512196, 1.2195122, -0.0365911
0.9458008, 0.0078125, -0.2978516, -10.060976, -7.2560978, 0.9756098, -0.0433051
0.9482422, 0.0019531, -0.3007812, -10.6707315, -8.5365858, 0.9756098, -0.0506905
0.9526367, -0.0068359, -0.2993164, -11.1585369, -9.2073174, 0.9756098, -0.0412909
0.9638672, -0.0195312, -0.3056641, -10.8536587, -9.3902445, 1.5853659, -0.03122
0.9697266, -0.0239258, -0.3081055, -10.4268293, -8.841464, 1.8292683, -0.0271916
0.9672852, -0.019043, -0.3105469, -10.1829271, -7.1951222, 1.8292683, -0.0251774
0.9550781, -0.0107422, -0.3095703, -10.1219511, -6.5853658, 1.7073171, -0.0285344
0.9492188, -0.0039062, -0.3100586, -9.9390249, -6.7073174, 1.2195122, -0.0372625
0.9492188, -0.0068359, -0.3139648, -10.060976, -7.3170733, 1.0365853, -0.0473335
0.9526367, -0.0131836, -0.315918, -10.4268293, -8.4146347, 0.9756098, -0.049012
0.9628906, -0.0273438, -0.3222656, -10.1219511, -8.2317076, 1.0365853, -0.0547189
0.9667969, -0.03125, -0.3203125, -9.8780489, -7.8658538, 1.097561, -0.0647898
0.9682617, -0.0224609, -0.3261719, -9.4512196, -6.5243902, 1.1585366, -0.0782177
0.9643555, -0.0166016, -0.3300781, -9.2682924, -5.8536587, 1.1585366, -0.0802319
0.9570312, -0.0073242, -0.3388672, -9.5731707, -5.7317076, 0.7926829, -0.081239
0.9545898, -0.0068359, -0.340332, -9.8170738, -6.3414636, 0.9146342, -0.070161
0.956543, -0.0073242, -0.340332, -10.9146347, -6.9512196, 0.7926829, -0.0587472
0.9672852, -0.012207, -0.3300781, -11.219512, -7.0731707, 1.402439, -0.0439765
0.9726562, -0.0097656, -0.3222656, -11.5243902, -6.0975609, 1.2195122, -0.0104067
0.972168, -0.0097656, -0.3144531, -11.7682934, -5.3048782, 1.2804878, 0.0104067
0.9672852, -0.0073242, -0.3085938, -11.5243902, -4.6951222, 1.0365853, 0.017792
0.9580078, -0.0131836, -0.309082, -11.341464, -5.2439027, 0.7926829, 0.0292058
0.956543, -0.0151367, -0.3110352, -11.7073174, -5.9756098, 1.0365853, 0.0238346
0.953125, -0.0292969, -0.3110352, -12.3780489, -6.4634147, 1.1585366, 0.0194705
0.9580078, -0.0375977, -0.3037109, -12.3780489, -6.2195125, 1.402439, -0.0063783
0.956543, -0.0400391, -0.2924805, -11.4634151, -5.670732, 0.9756098, -0.0204776
0.9536133, -0.0380859, -0.2895508, -11.0365858, -5.2439027, 0.6707317, -0.0302129
0.9433594, -0.0375977, -0.2998047, -10.4878054, -5.670732, 0.4268293, -0.0372625
0.9384766, -0.0317383, -0.3066406, -10.9146347, -5.9756098, 0.3048781, -0.0345769
0.9399414, -0.0258789, -0.3085938, -11.4634151, -6.1585369, 0.3048781, -0.0298772
0.9418945, -0.0141602, -0.3027344, -11.5853662, -6.280488, 0.4878049, -0.0352483
0.9448242, -0.0092773, -0.3046875, -11.341464, -6.1585369, 0.1219512, -0.0446479
0.9580078, -0.0073242, -0.3100586, -10.7317076, -6.6463418, -0.4268293, -0.0527047
0.9599609, -0.0087891, -0.3095703, -11.0975609, -7.0121951, -0.1829268, -0.06009
0.9619141, -0.0180664, -0.3129883, -11.5853662, -7.0731707, 0.1219512, -0.070161
0.9643555, -0.0219727, -0.3085938, -11.8902445, -6.890244, 0.2439024, -0.0772107
0.9624023, -0.0214844, -0.3032227, -11.9512196, -6.4634147, 0.4268293, -0.0748608
0.9584961, -0.0229492, -0.3007812, -11.4024391, -6.2195125, 0.3048781, -0.0681468
0.9511719, -0.0136719, -0.3120117, -10.8536587, -6.5243902, 0.3048781, -0.0674754
0.9511719, -0.0117188, -0.3154297, -10.4878054, -6.5243902, 0.3658537, -0.0621042
0.9555664, -0.0136719, -0.3173828, -10.7317076, -6.9512196, 0.0609756, -0.0547189
0.9599609, -0.0141602, -0.3129883, -10.7317076, -6.7682929, -0.1219512, -0.0553902
0.9575195, -0.0180664, -0.3110352, -11.0365858, -7.0121951, -0.4878049, -0.0516976
0.949707, -0.0234375, -0.3125, -10.4878054, -6.7073174, 0, -0.0486763
0.949707, -0.0180664, -0.3100586, -10.3048782, -6.4024391, 0, -0.0446479
0.9433594, -0.0136719, -0.3144531, -9.8780489, -6.0975609, 0.0609756, -0.0463264
0.9458008, -0.0073242, -0.315918, -9.7560978, -6.280488, -0.4268293, -0.0647898
0.9458008, -0.0180664, -0.3193359, -10.2439022, -7.4390244, -0.7926829, -0.0762036
0.9487305, -0.027832, -0.324707, -10.3048782, -7.7439027, -0.6707317, -0.0728466
0.9550781, -0.0371094, -0.328125, -10.1829271, -7.6219516, -0.3048781, -0.0621042
0.9658203, -0.0385742, -0.3291016, -10.1829271, -7.6219516, -0.4268293, -0.0550546
0.9672852, -0.0375977, -0.3334961, -9.3902445, -6.4024391, -0.6097561, -0.0439765
0.9638672, -0.0273438, -0.3349609, -9.3902445, -6.3414636, -0.5487805, -0.0372625
0.9575195, -0.0205078, -0.3330078, -9.3902445, -5.7926831, -0.6707317, -0.0352483
0.9599609, -0.0131836, -0.3271484, -9.8780489, -6.0365853, -0.3048781, -0.0332341
0.965332, -0.0112305, -0.3217773, -10.1219511, -5.9756098, -0.3658537, -0.0318914
0.9638672, -0.0068359, -0.3227539, -10.1829271, -6.1585369, -0.6707317, -0.0231632
0.9628906, -0.0102539, -0.3251953, -10.3048782, -6.280488, -0.8536586, -0.027863
0.9628906, -0.019043, -0.331543, -11.0975609, -6.7682929, -0.4268293, -0.0258488
0.965332, -0.0219727, -0.3310547, -11.1585369, -6.5853658, -0.0609756, -0.027863
0.9638672, -0.03125, -0.3222656, -10.9756098, -5.7317076, 0.0609756, -0.0271916
0.9599609, -0.0356445, -0.3076172, -10.5487804, -5, 0.0609756, -0.0231632
0.9526367, -0.0317383, -0.3041992, -10.060976, -4.3292685, -0.6707317, -0.0191348
0.9428711, -0.0253906, -0.3017578, -9.4512196, -4.0243902, -0.9756098, -0.0164492
0.9404297, -0.027832, -0.300293, -9.4512196, -4.5121951, -1.097561, -0.0191348
0.9360352, -0.0268555, -0.3081055, -9.6341467, -5.7317076, -1.097561, -0.017792
0.9418945, -0.027832, -0.3066406, -9.7560978, -5.8536587, -1.097561, -0.0204776
0.9418945, -0.019043, -0.3081055, -9.7560978, -5.4878049, -0.9146342, -0.0285344
0.9467773, -0.012207, -0.3037109, -9.6341467, -4.9390244, -0.7317073, -0.0439765
0.9477539, -0.0004883, -0.3007812, -9.6341467, -4.5121951, -0.9756098, -0.0379339
0.9487305, 0.0083008, -0.3037109, -9.3902445, -4.6951222, -1.3414634, -0.0365911
0.9506836, 0.0063477, -0.3183594, -9.7560978, -5.8536587, -1.7073171, -0.0332341
0.9619141, -0.0073242, -0.3334961, -10.1829271, -6.5853658, -1.3414634, -0.0231632
0.9609375, -0.0141602, -0.3334961, -11.0365858, -6.5853658, -0.4268293, -0.0231632
0.9619141, -0.0214844, -0.3256836, -11.5243902, -5.8536587, 0.1829268, -0.017792
0.9638672, -0.0219727, -0.3217773, -11.0365858, -5.1829271, -0.0609756, -0.0137636
0.9575195, -0.0136719, -0.3217773, -10.4268293, -4.3292685, -0.6707317, 0.0016785
0.953125, -0.0083008, -0.3217773, -10.2439022, -4.5121951, -0.7926829, 0.0036927
0.9570312, -0.0043945, -0.3291016, -10.6097565, -5.3658538, -0.6097561, 0.0006714
0.9594727, -0.003418, -0.3320312, -11.4024391, -5.670732, -0.5487805, -0.0003357
0.9614258, -0.0107422, -0.3295898, -12.3170738, -5.8536587, -0.1219512, -0.0083925
0.9643555, -0.012207, -0.3300781, -12.3780489, -5.4878049, 0.2439024, -0.0248417
0.9619141, -0.0058594, -0.3344727, -12.0731707, -4.9390244, 0.3048781, -0.0251774
0.9648438, -0.0083008, -0.3374023, -11.7682934, -4.8780489, 0.1829268, -0.0379339
0.965332, -0.0102539, -0.3383789, -12.5, -4.6951222, 0.1829268, -0.0527047
0.9702148, -0.0166016, -0.331543, -12.6219511, -5.1219511, 0.1219512, -0.0533761
0.9746094, -0.0185547, -0.3237305, -12.6219511, -4.6951222, 0, -0.0594186
0.9716797, -0.0166016, -0.3237305, -12.4390249, -4.2682929, -0.0609756, -0.0627756
0.9711914, -0.0209961, -0.3232422, -12.8658543, -4.2682929, 0, -0.0594186
0.9638672, -0.0170898, -0.3242188, -12.6829271, -4.0853658, 0.0609756, -0.0516976
0.9624023, -0.0131836, -0.3232422, -13.1097565, -4.0243902, 0.2439024, -0.0513619
0.9677734, -0.0078125, -0.3144531, -12.8658543, -3.8414636, 0.6707317, -0.0557259
0.9726562, 0.0004883, -0.309082, -12.9878054, -3.8414636, 0.3658537, -0.0486763
0.980957, 0.0024414, -0.3085938, -12.9878054, -4.4512196, 0.3048781, -0.0520333
0.9785156, -0.0102539, -0.3139648, -13.2317076, -4.6951222, 0, -0.0480049
0.9790039, -0.0195312, -0.315918, -13.7195129, -4.6951222, 0.4878049, -0.0419623
0.9804688, -0.0356445, -0.3188477, -13.841464, -4.4512196, 0.7926829, -0.0547189
0.9746094, -0.0361328, -0.3173828, -13.4146347, -4.3292685, 0.8536586, -0.0493477
0.96875, -0.0390625, -0.3173828, -13.0487804, -3.7804878, 0.6097561, -0.0433051
0.9746094, -0.0302734, -0.3154297, -12.9878054, -3.5365853, 0.4268293, -0.0500191
0.9638672, -0.0209961, -0.3105469, -12.7439032, -3.8414636, -0.2439024, -0.0580758
0.9663086, -0.015625, -0.3105469, -12.8048782, -4.0853658, -0.6707317, -0.0533761
0.9702148, -0.003418, -0.3061523, -13.1707315, -4.390244, -0.4878049, -0.0473335
0.9716797, -0.0019531, -0.3076172, -13.1707315, -4.6951222, -0.5487805, -0.0433051
0.9638672, -0.0058594, -0.3071289, -12.9878054, -4.7560978, -0.3048781, -0.0446479
0.9589844, -0.0141602, -0.3134766, -13.3536587, -4.8780489, -0.1829268, -0.0459907
0.9521484, -0.0185547, -0.3115234, -13.780488, -5.1829271, 0, -0.0527047
0.9501953, -0.0239258, -0.3095703, -13.841464, -5.7926831, 0.1829268, -0.0540475
0.9541016, -0.0297852, -0.3051758, -13.841464, -5.9756098, 0.2439024, -0.063447
0.9589844, -0.0366211, -0.3105469, -13.3536587, -6.9512196, -0.0609756, -0.0597543
0.9633789, -0.0351562, -0.3154297, -13.2317076, -6.890244, -0.0609756, -0.0587472
0.9755859, -0.0253906, -0.3256836, -12.560976, -6.7073174, -0.1219512, -0.0439765
0.9780273, -0.0214844, -0.324707, -12.560976, -6.8292685, -0.0609756, -0.0379339
0.9814453, -0.019043, -0.3334961, -12.2560978, -7.0121951, 0.1219512, -0.0419623
0.9804688, -0.0161133, -0.3364258, -12.3780489, -6.890244, 0.3048781, -0.0359197
0.9790039, -0.0170898, -0.3378906, -12.6829271, -6.9512196, 0.3048781, -0.0292058
0.9736328, -0.0102539, -0.3369141, -12.8658543, -6.7073174, 0.3658537, -0.0302129
0.96875, -0.012207, -0.3388672, -13.3536587, -6.7073174, 0.6707317, -0.0325628
0.9501953, -0.0073242, -0.3476562, -13.780488, -6.8292685, 0.9756098, -0.0392767
0.9443359, -0.0117188, -0.3530273, -14.2073174, -6.890244, 1.6463414, -0.0480049
0.9414062, -0.0087891, -0.3554688, -15.2439032, -6.9512196, 2.0731707, -0.0486763
0.9443359, -0.0087891, -0.3525391, -15.4878054, -6.8292685, 2.4390244, -0.0466621
0.9487305, -0.003418, -0.3442383, -16.0975609, -6.4024391, 2.3170731, -0.0580758
0.9477539, -0.0014648, -0.3369141, -15.9756098, -6.2195125, 2.4390244, -0.0553902
0.9467773, 0.0009766, -0.3359375, -15.7926836, -6.0975609, 2.195122, -0.0560616
0.9414062, 0.0014648, -0.3374023, -15.7926836, -6.0365853, 2.195122, -0.0647898
0.9321289, 0.0053711, -0.3383789, -17.439024, -5.9146342, 2.8658538, -0.0862745
0.9233398, -0.0043945, -0.3310547, -18.3536587, -5.7926831, 3.3536587, -0.1030594
0.9223633, -0.0136719, -0.328125, -20.2439022, -6.4024391, 3.9634147, -0.1050736
0.9243164, -0.0195312, -0.3227539, -21.0365868, -7.4390244, 3.4146342, -0.1104448
0.9257812, -0.0136719, -0.3188477, -21.5243912, -7.3780489, 3.2926829, -0.0990311
0.9423828, -0.0063477, -0.3115234, -21.8292694, -6.9512196, 3.4146342, -0.0809033
0.9521484, -0.0043945, -0.3105469, -22.0731716, -7.0121951, 3.3536587, -0.0748608
0.9599609, -0.0068359, -0.3217773, -23.1097565, -7.6829271, 3.2317073, -0.073518
0.9614258, -0.0102539, -0.3261719, -23.6585369, -8.1707315, 3.3536587, -0.0674754
0.9692383, -0.015625, -0.3305664, -24.1463413, -8.3536587, 3.8414636, -0.0661326
0.9667969, -0.0136719, -0.3330078, -24.1463413, -8.0487804, 4.2682929, -0.0681468
0.9633789, -0.0205078, -0.3173828, -24.2682934, -7.3170733, 4.390244, -0.070161
0.9624023, -0.0263672, -0.3041992, -24.0853672, -7.1951222, 4.0243902, -0.070161
0.9570312, -0.0268555, -0.3032227, -23.780489, -7.3780489, 3.5975611, -0.0694896
0.9472656, -0.0249023, -0.3120117, -24.8170738, -8.1097565, 4.2073174, -0.0721752
0.9467773, -0.0263672, -0.3120117, -25.3658543, -7.6829271, 4.5731707, -0.0795605
0.9472656, -0.0151367, -0.3139648, -26.2195129, -7.8048782, 4.8780489, -0.0758679
0.9453125, -0.0092773, -0.3188477, -26.2195129, -7.8658538, 4.8170733, -0.066804
0.9418945, 0.003418, -0.3276367, -26.7073174, -7.3780489, 5.1219511, -0.06009
0.9423828, 0.0053711, -0.3291016, -27.560976, -7.4390244, 5.2439027, -0.0550546
0.9521484, -0.0058594, -0.3330078, -28.1097565, -7.1341467, 5.609756, -0.0500191
0.9555664, -0.0107422, -0.3310547, -28.5365868, -7.1341467, 5.609756, -0.0433051
0.9487305, -0.0102539, -0.3291016, -28.5365868, -6.4634147, 5.9146342, -0.0527047
0.9453125, -0.0141602, -0.3208008, -28.0487804, -5.8536587, 5.9146342, -0.0688182
0.9453125, -0.0244141, -0.3212891, -27.560976, -5.5487804, 5.7926831, -0.0775463
0.9423828, -0.0390625, -0.3198242, -27.5, -6.4634147, 5.4878049, -0.0708324
0.9462891, -0.0419922, -0.324707, -27.2560978, -6.9512196, 5.7317076, -0.0513619
0.9536133, -0.0419922, -0.3286133, -26.9512196, -6.7682929, 5.9756098, -0.0406195
0.9580078, -0.0371094, -0.3271484, -26.280489, -6.0365853, 5.670732, -0.0614328
0.9648438, -0.0317383, -0.3208008, -25.1219521, -5.4268293, 5.1829271, -0.0715038
0.9663086, -0.0268555, -0.3188477, -25, -5.4268293, 4.9390244, -0.0862745
0.9750977, -0.0175781, -0.3125, -23.8414631, -5.4878049, 5.1219511, -0.1040665
0.980957, -0.0078125, -0.3071289, -23.3536587, -5.5487804, 5.1829271, -0.0929885
0.9853516, -0.0039062, -0.3110352, -23.0487804, -5.609756, 5, -0.0835889
0.987793, -0.0068359, -0.3120117, -22.9268303, -5.7317076, 4.8170733, -0.0607614
0.9819336, -0.0126953, -0.3056641, -23.4146347, -5.9756098, 4.7560978, -0.0154421
0.9750977, -0.0273438, -0.2944336, -23.0487804, -6.0975609, 5.609756, 0.0305486
0.9755859, -0.0317383, -0.2851562, -22.6829281, -6.1585369, 5.5487804, 0.066804
0.9692383, -0.0375977, -0.2773438, -21.5853672, -6.0975609, 5.3048782, 0.0903029
0.9628906, -0.0439453, -0.2783203, -20.6707325, -6.0365853, 5.1219511, 0.0997024
0.9609375, -0.046875, -0.2915039, -19.7560978, -7.1341467, 4.6341462, 0.0923171
0.9619141, -0.0493164, -0.293457, -19.5121956, -7.6829271, 4.7560978, 0.0694896
0.9736328, -0.0649414, -0.2949219, -18.780489, -8.2926826, 4.5121951, 0.0372625
0.9760742, -0.0654297, -0.2895508, -17.9878044, -8.3536587, 4.5731707, 0.0137636
0.9755859, -0.059082, -0.2910156, -16.3414631, -7.6829271, 4.390244, -0.0077211
0.9677734, -0.0444336, -0.300293, -15.4878054, -7.2560978, 4.2073174, -0.0224918
0.9614258, -0.0380859, -0.3081055, -15.3048782, -7.3170733, 3.9024391, -0.0298772
0.9526367, -0.0205078, -0.3168945, -16.0365849, -8.4146347, 3.9024391, -0.0433051
0.953125, -0.0126953, -0.3178711, -16.1585369, -8.841464, 3.8414636, -0.0493477
0.9570312, -0.0009766, -0.3149414, -15.8536587, -8.841464, 3.8414636, -0.0540475
0.9614258, -0.0043945, -0.315918, -15.6707325, -8.9024391, 3.7804878, -0.063447
0.9663086, -0.0229492, -0.3217773, -15.6707325, -9.3292685, 4.1463413, -0.0755322
0.9667969, -0.0356445, -0.3256836, -15.4878054, -9.4512196, 4.0243902, -0.0772107
0.9663086, -0.0458984, -0.340332, -14.8780489, -8.9024391, 4.5121951, -0.0762036
0.956543, -0.0488281, -0.3515625, -14.3902445, -8.5975609, 4.8780489, -0.0829175
0.9584961, -0.0454102, -0.3579102, -13.3536587, -7.9878049, 4.1463413, -0.0815747
0.9511719, -0.0390625, -0.3671875, -12.8048782, -8.2317076, 4.1463413, -0.0809033
0.9482422, -0.0317383, -0.3637695, -13.2926836, -8.1707315, 4.0243902, -0.0795605
0.9550781, -0.0024414, -0.3461914, -14.2682934, -7.8048782, 3.9634147, -0.073518
0.9580078, 0.0126953, -0.3325195, -14.8780489, -7.5, 4.1463413, -0.0755322
0.9648438, 0.0166016, -0.3095703, -15.8536587, -7.8658538, 3.9024391, -0.0889601
0.965332, 0.0166016, -0.3017578, -15.9146347, -8.719512, 3.7804878, -0.1050736
0.9804688, 0.0087891, -0.2895508, -17.0121956, -10.3048782, 4.2682929, -0.1077592
0.9829102, -0.0014648, -0.2851562, -17.2560978, -10.4878054, 4.6951222, -0.1030594
0.9892578, -0.0229492, -0.2724609, -16.8292694, -11.0365858, 5.609756, -0.094667
0.9794922, -0.0371094, -0.2807617, -16.4634151, -11.1585369, 5.609756, -0.0933242
0.9746094, -0.0385742, -0.2900391, -15.7317076, -11.4024391, 5.7926831, -0.0862745
0.9624023, -0.0405273, -0.2919922, -15.4878054, -11.5243902, 5.609756, -0.0866102
0.965332, -0.0458984, -0.2958984, -15.2439032, -12.0731707, 4.9390244, -0.0866102
0.9707031, -0.0458984, -0.3076172, -14.3902445, -13.2926836, 4.6951222, -0.076875
0.9741211, -0.0493164, -0.3129883, -13.841464, -13.4756098, 4.5121951, -0.0715038
0.9838867, -0.0551758, -0.3251953, -13.1097565, -13.4146347, 4.5731707, -0.0607614
0.9873047, -0.0615234, -0.328125, -12.560976, -13.0487804, 4.2682929, -0.0607614
0.9829102, -0.0546875, -0.3291016, -11.8292685, -12.3170738, 4.0243902, -0.0580758
0.9785156, -0.0522461, -0.3354492, -11.5243902, -12.1951218, 3.4756098, -0.0574044
0.9711914, -0.0522461, -0.3481445, -10.9756098, -12.4390249, 3.4756098, -0.0500191
0.9628906, -0.034668, -0.3500977, -11.0975609, -12.3170738, 3.2926829, -0.0459907
0.9624023, -0.0209961, -0.3500977, -11.5853662, -11.5243902, 3.4146342, -0.0419623
0.9624023, 0.0175781, -0.3334961, -11.8292685, -11.0975609, 3.4756098, -0.035584
0.9643555, 0.0292969, -0.3300781, -12.6219511, -10.7317076, 2.9268293, -0.0305486
0.9711914, 0.0249023, -0.3276367, -13.4146347, -11.8902445, 2.2560976, -0.0191348
0.9716797, 0.0141602, -0.324707, -14.0853662, -12.7439032, 2.3780489, -0.017792
0.9814453, -0.0219727, -0.328125, -15.1219511, -13.3536587, 3.6585367, -0.0191348
0.9770508, -0.0410156, -0.3305664, -14.7560978, -13.1097565, 4.0243902, -0.0090639
0.9692383, -0.0600586, -0.3305664, -13.6585369, -12.0731707, 4.0243902, -0.0151064
0.9609375, -0.0585938, -0.3330078, -12.9268293, -11.4634151, 3.7195122, -0.0191348
0.940918, -0.046875, -0.3369141, -11.8292685, -10.9146347, 3.5975611, -0.017792
0.9418945, -0.0317383, -0.3398438, -11.6463413, -11.1585369, 3.4756098, -0.0198062
0.9526367, -0.0288086, -0.3369141, -11.4634151, -11.9512196, 2.8658538, -0.0097353
0.9731445, -0.0249023, -0.3266602, -11.5853662, -12.2560978, 2.6219513, -0.0073854
0.9785156, -0.0234375, -0.3256836, -11.1585369, -12.5, 2.3780489, -0.0083925
0.987793, -0.0224609, -0.3266602, -11.1585369, -12.0731707, 2.804878, -0.0020142
0.9853516, -0.0224609, -0.328125, -11.0365858, -11.6463413, 2.9878049, -0.0057069
0.9731445, -0.0180664, -0.3364258, -10.7926836, -11.8292685, 3.4756098, -0.0070497
0.965332, -0.0170898, -0.3466797, -10.9146347, -11.9512196, 3.4756098, -0.0060426
0.9541016, -0.0185547, -0.3520508, -11.341464, -12.6829271, 3.7804878, -0.0097353
0.953125, -0.0200195, -0.359375, -11.6463413, -12.9878054, 3.7804878, -0.0157778
0.9545898, -0.0131836, -0.3530273, -12.3780489, -13.1097565, 4.2682929, -0.0218204
0.9433594, 0.0180664, -0.3398438, -13.1707315, -12.6219511, 4.5121951, -0.0285344
0.9379883, 0.0361328, -0.3393555, -14.2073174, -11.4024391, 4.3292685, -0.0365911
0.940918, 0.0463867, -0.3544922, -14.7560978, -11.5853662, 4.390244, -0.0392767
0.9428711, 0.0410156, -0.3647461, -16.9512196, -13.6585369, 4.0853658, -0.0406195
0.956543, 0.0112305, -0.3676758, -19.1463413, -16.0365849, 4.8780489, -0.0493477
0.9648438, -0.0024414, -0.3549805, -19.6951218, -16.2195129, 5.670732, -0.056733
0.9785156, -0.027832, -0.3251953, -19.6341476, -15.1829271, 6.0365853, -0.0553902
0.9682617, -0.0336914, -0.3139648, -19.2073174, -14.3292685, 6.2195125, -0.0493477
0.9335938, -0.0327148, -0.3012695, -18.5365849, -12.8658543, 5.7926831, -0.0486763
0.9179688, -0.0249023, -0.2944336, -18.4756107, -13.1707315, 5.9146342, -0.0459907
0.8959961, -0.0141602, -0.2924805, -19.2073174, -15.4268293, 5.7317076, -0.0406195
0.9121094, -0.0053711, -0.2832031, -19.2682934, -16.9512196, 5.7926831, -0.0392767
0.9272461, -0.0048828, -0.2851562, -19.6341476, -19.4512196, 5.4268293, -0.0379339
0.953125, -0.0239258, -0.2861328, -19.3902435, -20.7926826, 5.1219511, -0.0516976
0.9580078, -0.0332031, -0.2929688, -18.9634151, -21.0975609, 5.3048782, -0.0627756
0.9633789, -0.0444336, -0.3095703, -18.4756107, -20.3048782, 6.0365853, -0.0688182
0.9584961, -0.0424805, -0.315918, -18.1707325, -20.060976, 6.0365853, -0.0721752
0.9433594, -0.0454102, -0.3393555, -17.1951218, -20.3658543, 6.2195125, -0.0688182
0.9389648, -0.0410156, -0.3608398, -17.1341476, -20.6097565, 6.0975609, -0.063447
0.934082, -0.0307617, -0.3950195, -16.9512196, -21.8902435, 6.280488, -0.0553902
0.9335938, -0.0224609, -0.4121094, -17.1951218, -22.1951218, 6.5243902, -0.0627756
0.9404297, -0.0097656, -0.4287109, -17.5, -22.0121956, 6.9512196, -0.0614328
0.9516602, 0.0048828, -0.4350586, -17.6219521, -21.5853672, 7.1341467, -0.056733
0.949707, 0.0112305, -0.4365234, -17.3780499, -20.3658543, 7.1341467, -0.0540475
0.9555664, 0.0112305, -0.4277344, -18.2926826, -20.1829281, 7.1951222, -0.0520333
0.956543, 0.0073242, -0.4179688, -18.8414631, -20.3048782, 7.3170733, -0.0436408
0.9575195, 0.0068359, -0.3989258, -20.3658543, -20.7926826, 7.8658538, -0.0459907
0.9555664, 0.0024414, -0.3935547, -20.5487804, -20.9756107, 8.4756098, -0.0446479
0.9511719, -0.0068359, -0.3823242, -21.4024391, -21.4024391, 9.1463413, -0.0372625
0.9516602, -0.0078125, -0.3828125, -21.8292694, -21.7682934, 9.2073174, -0.0386053
0.9541016, -0.0058594, -0.3740234, -22.439024, -22.5, 10.060976, -0.0406195
0.9516602, -0.0009766, -0.3696289, -22.6829281, -22.6829281, 10.4268293, -0.0396124
0.9580078, -0.0048828, -0.3623047, -23.1707325, -23.7195129, 10.7317076, -0.0379339
0.9643555, -0.0019531, -0.3579102, -23.4146347, -24.1463413, 10.9756098, -0.0433051
0.9638672, -0.0092773, -0.3510742, -24.2073174, -25.060976, 11.5243902, -0.0433051
0.9711914, -0.0063477, -0.3427734, -24.6951218, -25.6707325, 11.9512196, -0.0392767
0.9677734, -0.0073242, -0.3359375, -25.2439022, -25.9756107, 12.0121956, -0.0392767
0.9609375, -0.003418, -0.3330078, -26.0365868, -27.1341476, 12.3780489, -0.0419623
0.9521484, -0.0024414, -0.3388672, -26.2195129, -28.0487804, 12.5, -0.0406195
0.9438477, -0.0058594, -0.3500977, -26.5243912, -29.6951218, 13.1707315, -0.0379339
0.9428711, -0.0029297, -0.3574219, -26.8902454, -30.6097565, 13.4756098, -0.0392767
0.9492188, -0.015625, -0.3540039, -27.6219521, -32.0121956, 13.5365858, -0.0379339
0.9482422, -0.0200195, -0.340332, -27.7439022, -32.1951218, 13.4756098, -0.0379339
0.9584961, -0.0302734, -0.3242188, -27.3780499, -32.9878044, 13.2317076, -0.0419623
0.9575195, -0.0361328, -0.3066406, -27.0731716, -33.7195129, 12.9878054, -0.0406195
0.9599609, -0.0336914, -0.3032227, -26.1585369, -34.3292694, 12.6829271, -0.0325628
0.9550781, -0.03125, -0.3129883, -25.2439022, -35.9146347, 12.8658543, -0.0271916
0.9526367, -0.0292969, -0.3339844, -24.9390259, -36.7682953, 12.8048782, -0.0285344
0.9487305, -0.0180664, -0.3896484, -25.1219521, -38.9024391, 13.2317076, -0.0315557
0.9462891, -0.0092773, -0.4101562, -25.3658543, -39.8170738, 13.7195129, -0.0365911
0.9541016, 0.0087891, -0.4355469, -25.7317085, -40.1219521, 14.5121956, -0.0449836
0.9560547, 0.0170898, -0.4355469, -26.3414631, -40, 14.5121956, -0.0506905
0.9604492, 0.0244141, -0.4199219, -26.7073174, -39.6951218, 14.4512196, -0.0433051
0.9619141, 0.0234375, -0.4042969, -27.3780499, -39.8170738, 14.5731707, -0.0275273
0.9619141, 0.0112305, -0.3701172, -28.3536587, -40.9756088, 14.0853662, -0.0130922
0.9580078, -0.0112305, -0.3691406, -28.780489, -42.0121956, 14.0853662, 0.0023499
0.9589844, -0.0239258, -0.3769531, -29.4512196, -43.9634171, 14.0243902, 0.0050355
0.9624023, -0.0400391, -0.4086914, -30.060976, -45.7926826, 14.4512196, 0.0050355
0.9667969, -0.0541992, -0.4335938, -30.2439022, -46.4024391, 15.060976, 0.0120851
0.9755859, -0.0654297, -0.4604492, -29.3902454, -46.8292694, 15.5487804, 0.0191348
0.9790039, -0.065918, -0.4648438, -29.1463413, -46.5853653, 15.7317076, 0.0130922
0.9858398, -0.0556641, -0.4697266, -27.8658543, -45.1219521, 15.7926836, 0.0117494
0.9853516, -0.0454102, -0.4658203, -27.4390259, -44.6951218, 15.8536587, 0.0117494
0.9814453, -0.0292969, -0.4643555, -27.3170738, -43.7195129, 15.6707325, 0.0036927
0.9804688, -0.0219727, -0.4682617, -27.9268303, -43.841465, 15.8536587, -0.0137636
0.9770508, -0.0126953, -0.4853516, -29.0243912, -45.3658562, 15.8536587, -0.0258488
0.9848633, -0.0078125, -0.5083008, -30.1219521, -46.1585388, 15.7317076, -0.0298772
0.9921875, -0.0097656, -0.5166016, -31.341465, -47.9268303, 15.6707325, -0.0271916
0.9985352, -0.0234375, -0.5175781, -32.4390259, -47.9268303, 16.4024391, -0.0251774
0.9956055, -0.0253906, -0.5073242, -32.4390259, -47.4390259, 17.0121956, -0.0204776
0.9765625, -0.0297852, -0.4794922, -32.1951218, -45.7926826, 17.9268303, -0.0218204
0.9619141, -0.0258789, -0.4624023, -32.3170738, -45.3658562, 17.8658543, -0.0191348
0.925293, -0.0180664, -0.4448242, -32.1341476, -45.6097565, 18.0487804, -0.0157778
0.9238281, -0.0185547, -0.4355469, -32.5, -46.7682953, 17.9268303, -0.0090639
0.9296875, -0.0351562, -0.4150391, -33.5975609, -49.7560997, 17.1951218, -0.0097353
0.9423828, -0.0483398, -0.40625, -34.2073174, -51.0365868, 16.4024391, -0.011078
0.9604492, -0.0839844, -0.3974609, -33.7804871, -53.3536606, 15.8536587, -0.0151064
0.9628906, -0.1108398, -0.4003906, -33.0487823, -53.9634171, 15.6097565, -0.0104067
0.9575195, -0.1166992, -0.4121094, -30.8536587, -53.4756126, 15.3658543, -0.0171206
0.9384766, -0.1162109, -0.4365234, -28.7195129, -53.7804909, 15.3658543, -0.0352483
0.9291992, -0.1132812, -0.4462891, -27.9878063, -53.9024391, 15.3048782, -0.0399481
0.9233398, -0.0996094, -0.4633789, -26.4634151, -55.2439041, 14.8780489, -0.0486763
0.9267578, -0.0917969, -0.4760742, -25.8536587, -55.9146347, 14.5121956, -0.0647898
0.9458008, -0.0766602, -0.5102539, -25.4878063, -57.9268303, 13.9024391, -0.073518
0.9555664, -0.0708008, -0.5302734, -25.7926826, -58.841465, 13.7195129, -0.076875
0.9741211, -0.0615234, -0.5581055, -26.280489, -59.5121956, 13.7195129, -0.0809033
0.9833984, -0.050293, -0.5605469, -26.6463413, -59.5731735, 14.0243902, -0.0822461
0.9863281, -0.0517578, -0.5507812, -27.2560978, -59.3902435, 14.2682934, -0.0822461
0.9819336, -0.0522461, -0.5288086, -27.1341476, -59.3292694, 14.4512196, -0.0829175
0.9750977, -0.0571289, -0.519043, -27.0121956, -59.5731735, 14.5121956, -0.0809033
0.956543, -0.0732422, -0.5053711, -26.8902454, -60.9146347, 14.3902445, -0.0825818
0.9477539, -0.0795898, -0.5063477, -26.6463413, -61.9512215, 14.3292685, -0.0755322
0.9335938, -0.1020508, -0.5205078, -26.8902454, -64.5121994, 14.3902445, -0.0822461
0.9262695, -0.1088867, -0.5336914, -26.7073174, -65.6097565, 14.7560978, -0.0822461
0.9243164, -0.105957, -0.5546875, -26.4024391, -66.2195129, 15.7317076, -0.0862745
0.925293, -0.0981445, -0.5566406, -25.6097565, -66.5243912, 15.6097565, -0.0866102
0.9331055, -0.0878906, -0.5688477, -24.6951218, -66.8292694, 15.060976, -0.0795605
0.9399414, -0.0849609, -0.5629883, -23.8414631, -67.3780518, 14.6341467, -0.0829175
0.9389648, -0.0883789, -0.5556641, -23.2317085, -68.5365906, 14.3902445, -0.0889601
0.9433594, -0.1000977, -0.5244141, -23.0487804, -68.9634171, 14.3902445, -0.0839246
0.9418945, -0.1005859, -0.5107422, -21.280489, -69.4512177, 14.6341467, -0.076875
0.9355469, -0.1083984, -0.5078125, -19.8170738, -70.3048782, 14.5121956, -0.0795605
0.9272461, -0.1118164, -0.5258789, -19.1463413, -70.9756088, 14.6341467, -0.0741894
0.9169922, -0.1083984, -0.5864258, -18.5975609, -73.2926865, 14.8780489, -0.0721752
0.9189453, -0.1064453, -0.6079102, -18.3536587, -74.4512177, 15.3048782, -0.0654612
0.9306641, -0.0805664, -0.6279297, -18.3536587, -74.7560959, 15.6707325, -0.0594186
0.9360352, -0.0703125, -0.6220703, -17.8658543, -74.2682953, 15.6707325, -0.056733
0.9399414, -0.0561523, -0.625, -16.7682934, -73.6585388, 15.8536587, -0.0500191
0.9326172, -0.0375977, -0.6469727, -16.7073174, -73.4756088, 16.280489, -0.0506905
0.9243164, -0.0288086, -0.6557617, -17.8658543, -74.0853653, 17.1951218, -0.0506905
0.9194336, -0.0102539, -0.6362305, -18.8414631, -74.5731735, 17.560976, -0.0520333
0.9238281, -0.0107422, -0.6137695, -21.6463413, -75.6707306, 18.2926826, -0.0459907
0.9238281, -0.0112305, -0.5737305, -23.9024391, -77.6219559, 18.9024391, -0.0412909
0.9248047, -0.0107422, -0.5576172, -24.6951218, -78.7195129, 18.7195129, -0.0473335
0.9155273, -0.0146484, -0.5429688, -26.0365868, -80.7317123, 19.2682934, -0.0466621
0.9121094, -0.019043, -0.5371094, -26.7073174, -82.1341476, 19.4512196, -0.0386053
0.9179688, -0.0507812, -0.5249023, -27.4390259, -85.7317123, 19.3902435, -0.0386053
0.9169922, -0.0756836, -0.527832, -27.3780499, -87.6219559, 19.2682934, -0.0553902
0.9106445, -0.1191406, -0.5473633, -26.3414631, -90.7317123, 19.6951218, -0.0728466
0.9072266, -0.1445312, -0.5888672, -25.6097565, -92.0731735, 19.6951218, -0.0755322
0.902832, -0.1523438, -0.6152344, -23.780489, -93.0487823, 19.939024, -0.0715038
0.9018555, -0.1557617, -0.6713867, -22.8048782, -93.1707306, 20.1829281, -0.0500191
0.90625, -0.1567383, -0.6923828, -21.0365868, -94.146347, 19.4512196, -0.0238346
0.9223633, -0.1411133, -0.7197266, -19.939024, -94.5121994, 18.8414631, 0.0023499
0.9335938, -0.1381836, -0.7275391, -19.6341476, -94.3292694, 18.4146347, 0.0251774
0.9580078, -0.1225586, -0.7211914, -18.5975609, -93.2317123, 17.7439022, 0.0345769
0.9658203, -0.1162109, -0.7114258, -18.2926826, -92.7439041, 17.560976, 0.027863
0.9741211, -0.1123047, -0.6977539, -17.0121956, -92.2561035, 17.2560978, 0.0305486
0.9736328, -0.1113281, -0.690918, -16.4634151, -92.6219559, 17.1951218, 0.0218204
0.9555664, -0.1181641, -0.6777344, -15.9756098, -93.5975647, 17.9878044, 0.0077211
0.9423828, -0.1176758, -0.6572266, -15.3048782, -93.6585388, 18.4146347, -0.0057069
0.9389648, -0.1137695, -0.6484375, -14.1463413, -93.9024429, 18.9634151, -0.0117494
0.9228516, -0.0961914, -0.6459961, -13.5975609, -94.0243912, 18.9024391, -0.0255131
0.90625, -0.0805664, -0.6621094, -12.8658543, -95.0609741, 18.7195129, -0.0419623
0.8862305, -0.0610352, -0.6977539, -12.9878054, -96.0975647, 18.3536587, -0.0493477
0.8876953, -0.0585938, -0.7177734, -13.7195129, -97.0731735, 18.5975609, -0.0527047
0.8920898, -0.0683594, -0.7539062, -14.8170738, -99.6951218, 18.4146347, -0.063447
0.9018555, -0.074707, -0.769043, -15.6097565, -100.7317123, 18.2926826, -0.0795605
0.9121094, -0.0893555, -0.7695312, -15.8536587, -101.1585388, 19.0853672, -0.0809033
0.9145508, -0.0908203, -0.7597656, -16.0975609, -99.9390259, 19.5121956, -0.076875
0.9174805, -0.0888672, -0.7480469, -15.4878054, -98.1707306, 19.5121956, -0.0674754
0.9086914, -0.0878906, -0.7421875, -15.1829271, -97.4390259, 19.3902435, -0.049012
0.9047852, -0.0859375, -0.734375, -14.8780489, -97.6219559, 19.5121956, -0.0463264
0.8964844, -0.0898438, -0.7216797, -15.3658543, -98.5365906, 19.2073174, -0.056733
0.8945312, -0.0996094, -0.7114258, -15.1829271, -100.6097565, 19.4512196, -0.0627756
0.8867188, -0.1137695, -0.6962891, -14.8170738, -101.5853653, 19.939024, -0.0688182
0.8803711, -0.1118164, -0.6992188, -14.2073174, -101.8292694, 19.8780499, -0.0681468
0.8530273, -0.0986328, -0.7456055, -13.5365858, -102.2561035, 20.1219521, -0.0674754
0.8427734, -0.0830078, -0.7763672, -13.1707315, -102.7439041, 20.3658543, -0.0688182
0.8291016, -0.0634766, -0.8354492, -13.7195129, -104.2682953, 20.6097565, -0.0741894
0.8349609, -0.0639648, -0.8476562, -14.0243902, -105.18293, 21.0365868, -0.0782177
0.8686523, -0.081543, -0.8232422, -15.3048782, -107.1951218, 21.3414631, -0.0815747
0.9003906, -0.1025391, -0.7729492, -15.3658543, -107.0731735, 21.4634151, -0.0809033
0.9067383, -0.1113281, -0.7504883, -14.2073174, -105.1219559, 21.8902435, -0.0741894
0.8891602, -0.1264648, -0.7216797, -13.9634151, -104.2682953, 21.6463413, -0.0647898
0.875, -0.1342773, -0.7226562, -12.7439032, -103.6585388, 21.4634151, -0.0674754
0.8442383, -0.1630859, -0.7514648, -11.9512196, -106.7073212, 21.4024391, -0.0661326
0.8291016, -0.1743164, -0.7724609, -11.6463413, -108.9024429, 21.7073174, -0.0547189
0.8305664, -0.1865234, -0.7998047, -10.4878054, -111.7073212, 22.560976, -0.0486763
0.8413086, -0.1904297, -0.8105469, -9.6951218, -112.0731735, 22.6219521, -0.0446479
0.8623047, -0.1855469, -0.8266602, -8.0487804, -111.4634171, 21.6463413, -0.0379339
0.8671875, -0.1762695, -0.8256836, -7.2560978, -110.5487823, 20.9146347, -0.0332341
0.8544922, -0.1401367, -0.8056641, -6.1585369, -107.7439041, 19.8780499, -0.0305486
0.8237305, -0.0917969, -0.800293, -5.670732, -106.7073212, 19.3902435, -0.0339055
0.8095703, -0.0825195, -0.800293, -5.9756098, -106.7682953, 19.2682934, -0.0318914
0.7915039, -0.0756836, -0.7939453, -6.4024391, -107.9268341, 19.2682934, -0.0352483
0.7856445, -0.0776367, -0.7861328, -7.7439027, -110.9756088, 19.3902435, -0.0359197
0.7856445, -0.1015625, -0.7827148, -8.780488, -114.4512253, 20.3048782, -0.03122
0.7905273, -0.1166992, -0.7861328, -8.780488, -115.9146347, 20.1829281, -0.0352483
0.793457, -0.1464844, -0.824707, -8.5365858, -118.1707382, 20.7317085, -0.0292058
0.7919922, -0.1508789, -0.8447266, -7.9878049, -118.5365906, 21.1585369, -0.0224918
0.7885742, -0.1577148, -0.8798828, -7.3780489, -118.7195129, 21.4634151, -0.0171206
0.793457, -0.152832, -0.8891602, -6.8292685, -118.2317123, 21.5243912, -0.0325628
0.8056641, -0.1416016, -0.9067383, -6.7073174, -117.4390259, 20.7926826, -0.0446479
0.8134766, -0.1328125, -0.9111328, -6.9512196, -117.3780518, 20.3658543, -0.0540475
0.8105469, -0.1342773, -0.9047852, -7.3170733, -117.1951218, 20.1829281, -0.0439765
0.8154297, -0.1376953, -0.8852539, -7.6219516, -116.7682953, 20.060976, -0.0224918
0.8120117, -0.1469727, -0.8754883, -6.890244, -117.1951218, 20.3658543, -0.0171206
0.796875, -0.1591797, -0.8710938, -4.6951222, -117.7439041, 21.3414631, -0.03122
0.7880859, -0.1601562, -0.875, -3.5365853, -118.1097565, 21.8902435, -0.0298772
0.7768555, -0.1557617, -0.8852539, -1.4634147, -118.5365906, 22.5, -0.0184634
0.7739258, -0.1513672, -0.8857422, -0.8536586, -118.7804871, 22.560976, -0.0070497
0.7763672, -0.1435547, -0.8847656, -0.4268293, -118.9024429, 21.8292694, 0.0157778
0.7783203, -0.1411133, -0.8828125, -0.2439024, -119.3902435, 21.7073174, 0.0238346
0.777832, -0.1430664, -0.8710938, -0.2439024, -120.3048782, 21.0365868, 0.0285344
0.7744141, -0.1430664, -0.8662109, 0.1219512, -120.5487823, 21.2195129, 0.03122
0.7636719, -0.140625, -0.8730469, 1.2804878, -120.9146347, 21.5243912, 0.0221561
0.75, -0.1376953, -0.8876953, 1.5243902, -121.1585388, 22.2560978, 0.0130922
0.7412109, -0.1333008, -0.8989258, 1.6463414, -121.4634171, 22.439024, 0.0010071
0.7387695, -0.1333008, -0.90625, 1.5853659, -122.0731735, 22.439024, -0.0151064
0.7402344, -0.1367188, -0.8989258, 1.7682927, -122.4390259, 22.0731716, -0.0285344
0.7480469, -0.1601562, -0.8896484, 2.0731707, -124.3292694, 21.6463413, -0.0382696
0.7456055, -0.168457, -0.8950195, 2.3780489, -124.8780518, 21.8902435, -0.0399481
0.7426758, -0.1669922, -0.9111328, 3.6585367, -125.0609818, 22.439024, -0.0473335
0.7456055, -0.1655273, -0.9179688, 3.7195122, -124.5121994, 22.560976, -0.0506905
0.737793, -0.1621094, -0.9194336, 4.0243902, -123.9634171, 21.8292694, -0.056733
0.7202148, -0.1450195, -0.9487305, 3.5365853, -123.9634171, 21.4024391, -0.0580758
0.7050781, -0.1220703, -0.9726562, 2.8658538, -123.7195129, 21.280489, -0.0594186
0.6923828, -0.0805664, -1.0078125, 1.1585366, -124.2073212, 21.8292694, -0.0607614
0.6933594, -0.0668945, -1.0092773, 0.1829268, -124.8170776, 21.8902435, -0.0540475
0.722168, -0.0717773, -0.9726562, -1.0365853, -125.4268341, 22.0121956, -0.0661326
0.730957, -0.0874023, -0.9492188, -1.1585366, -125.8536606, 22.0121956, -0.0809033
0.762207, -0.1367188, -0.9023438, -0.4268293, -126.7682953, 22.8658543, -0.0788891
0.7695312, -0.1665039, -0.8779297, 0.9146342, -127.1951218, 23.4756107, -0.0651255
0.7543945, -0.2211914, -0.8574219, 3.4756098, -128.2926788, 24.5121956, -0.056733
0.7363281, -0.2299805, -0.8759766, 5.1829271, -128.8414612, 25, -0.0533761
0.6865234, -0.2226562, -0.9462891, 7.3780489, -129.3902435, 25.6097565, -0.0553902
0.6582031, -0.1728516, -1.0087891, 8.2926826, -129.3902435, 25.6097565, -0.0553902
0.6645508, -0.1455078, -1.0175781, 8.9634151, -129.2682953, 24.6951218, -0.0553902
0.7011719, -0.1015625, -0.9848633, 8.1707315, -128.1097565, 22.6219521, -0.0486763
0.7241211, -0.0981445, -0.9467773, 7.9268293, -127.68293, 21.3414631, -0.0466621
0.7446289, -0.1357422, -0.8886719, 7.1951222, -128.4756165, 20.3658543, -0.0500191
0.7392578, -0.1660156, -0.8857422, 7.0731707, -129.5731812, 20.6097565, -0.0527047
0.7089844, -0.2265625, -0.9321289, 7.5, -133.2926788, 23.780489, -0.0500191
0.6928711, -0.2397461, -0.956543, 8.1707315, -134.0853729, 25.3658543, -0.0513619
0.6694336, -0.2338867, -0.9951172, 10.4878054, -133.5365906, 26.5853672, -0.0476692
0.6650391, -0.2089844, -1.0097656, 11.9512196, -132.1341553, 25.9756107, -0.0473335
0.6630859, -0.1474609, -1.0058594, 12.1951218, -128.7804871, 22.8048782, -0.0500191
0.6611328, -0.1088867, -0.987793, 11.1585369, -128.2317047, 21.5853672, -0.0433051
0.6630859, -0.1000977, -0.9760742, 7.0731707, -129.8170776, 20.1829281, -0.0386053
0.6713867, -0.1069336, -0.9682617, 3.5365853, -133.7804871, 20.8536587, -0.0352483
0.6787109, -0.1108398, -0.9638672, 2.5609756, -135.4268341, 21.5243912, -0.0298772
0.6723633, -0.1186523, -0.9760742, 2.5, -137.0731812, 23.0487804, -0.0258488
0.6660156, -0.1230469, -0.9858398, 3.3536587, -136.7073212, 23.9024391, -0.0275273
0.6513672, -0.1220703, -1.0087891, 5.2439027, -135.9146423, 24.5121956, -0.0234989
0.6435547, -0.121582, -1.019043, 6.280488, -135.5487823, 24.8170738, -0.014435
0.6386719, -0.15625, -1.003418, 7.0121951, -136.2195129, 25.3048782, -0.0097353
0.6494141, -0.1787109, -0.9819336, 7.4390244, -136.8292694, 25.4268303, -0.0083925
0.65625, -0.2226562, -0.9399414, 7.4390244, -137.3170776, 25.3048782, -0.0057069
0.640625, -0.2382812, -0.9145508, 8.3536587, -137.3170776, 25.060976, -0.0010071
0.6230469, -0.2353516, -0.9179688, 10.8536587, -136.0975647, 23.2926826, 0.0006714
0.5708008, -0.2167969, -0.9633789, 13.4146347, -136.5243988, 21.7073174, -0.0057069
0.5537109, -0.203125, -0.9946289, 14.3292685, -137.7439117, 21.0975609, -0.0057069
0.5302734, -0.1704102, -1.0576172, 13.9024391, -140.8536682, 21.0365868, -0.011078
0.534668, -0.1533203, -1.0908203, 12.8658543, -142.0731812, 21.4634151, -0.0097353
0.5625, -0.1157227, -1.1337891, 10.9146347, -143.3536682, 22.3780499, -0.011078
0.5869141, -0.1030273, -1.1420898, 9.7560978, -142.8048859, 23.1097565, -0.014435
0.628418, -0.0825195, -1.097168, 8.2926826, -139.7561035, 23.9024391, -0.014435
0.6484375, -0.0737305, -1.0585938, 7.8658538, -137.4390259, 24.1463413, -0.017792
0.6542969, -0.065918, -0.9731445, 7.1341467, -132.3780518, 23.7195129, -0.0140993
0.5991211, -0.0898438, -0.9335938, 6.890244, -130.7926788, 24.0853672, -0.0057069
0.5561523, -0.1069336, -0.9423828, 5.9756098, -132.0121918, 25.4268303, -0.0036927
0.4770508, -0.1469727, -1, 4.390244, -138.3536682, 28.0487804, -0.0003357
0.4536133, -0.1645508, -1.0439453, 3.7195122, -141.8292694, 29.2073174, -0.0104067
0.4467773, -0.1704102, -1.0917969, 3.2317073, -145.4268341, 31.0365868, -0.017792
0.4628906, -0.1640625, -1.0932617, 3.4756098, -145.2439117, 30.9146347, -0.0285344
0.5097656, -0.1552734, -1.0512695, 4.3292685, -142.1951294, 29.6341476, -0.0305486
0.5332031, -0.1611328, -1.0180664, 5.0609756, -140.9756165, 29.0243912, -0.0352483
0.559082, -0.1757812, -0.9619141, 5.3658538, -139.9390259, 28.9024391, -0.0419623
0.559082, -0.1855469, -0.9467773, 5.8536587, -140.3048859, 29.0853672, -0.0439765
0.5263672, -0.1972656, -0.9604492, 7.1951222, -142.86586, 30.2439022, -0.0433051
0.4765625, -0.1967773, -1.0361328, 8.2317076, -144.2073212, 30.7926846, -0.042298
0.4448242, -0.1889648, -1.0800781, 10.2439022, -146.0365906, 31.4024391, -0.0453193
0.4199219, -0.1674805, -1.1508789, 11.280488, -145.8536682, 32.5, -0.0513619
0.4287109, -0.1547852, -1.1601562, 10.9756098, -145.2439117, 32.9268303, -0.0480049
0.4760742, -0.1401367, -1.1230469, 9.3902445, -143.1707306, 32.6829262, -0.0459907
0.4980469, -0.1401367, -1.0908203, 8.4756098, -142.3780518, 31.8902454, -0.0473335
0.5102539, -0.1586914, -1.0537109, 6.1585369, -141.7682953, 31.6463413, -0.0486763
0.5029297, -0.1660156, -1.0541992, 5.9146342, -141.646347, 32.3780479, -0.0641184
0.4775391, -0.1777344, -1.0507812, 5.670732, -142.8048859, 33.1707306, -0.070161
0.4555664, -0.1948242, -1.0366211, 5.7317076, -143.1707306, 33.7804871, -0.0688182
0.4414062, -0.1967773, -1.0405273, 6.6463418, -143.1707306, 33.9634171, -0.076875
0.4042969, -0.1879883, -1.0805664, 7.0731707, -143.0487823, 33.9024391, -0.0715038
0.3842773, -0.1796875, -1.1010742, 6.4024391, -143.7804871, 33.9634171, -0.0758679
0.3798828, -0.1533203, -1.1044922, 4.2073174, -145, 34.1463432, -0.0755322
0.3876953, -0.1474609, -1.0883789, 2.6829269, -145.2439117, 33.9634171, -0.0741894
0.4072266, -0.1464844, -1.0419922, 0.8536586, -146.3414612, 32.9268303, -0.0741894
0.409668, -0.1591797, -1.0307617, 0.7317073, -146.8292694, 32.8658562, -0.076875
0.4057617, -0.2041016, -1.0415039, 1.2804878, -149.4512177, 33.9634171, -0.0755322
0.4018555, -0.2260742, -1.0522461, 1.5243902, -150.7926788, 34.8780479, -0.0715038
0.4052734, -0.2626953, -1.0688477, 2.9878049, -151.7682953, 36.6463432, -0.0708324
0.3925781, -0.2602539, -1.097168, 4.0853658, -151.2195129, 36.8292694, -0.0674754
0.3803711, -0.2456055, -1.1030273, 6.0975609, -148.7804871, 35.6707344, -0.063447
0.3608398, -0.2143555, -1.0986328, 6.9512196, -147.3780518, 34.5121956, -0.0587472
0.3554688, -0.203125, -1.078125, 8.1097565, -146.2195129, 32.1341476, -0.0547189
0.3574219, -0.2104492, -1.0273438, 8.9634151, -147.9268341, 31.6463413, -0.0527047
0.3579102, -0.2241211, -1.0151367, 9.6341467, -149.3292694, 31.8902454, -0.0594186
0.3427734, -0.2495117, -1.0336914, 11.4634151, -152.0731812, 32.8658562, -0.0580758
0.3325195, -0.2539062, -1.0581055, 12.5, -152.6219482, 33.5975609, -0.0493477
0.3276367, -0.2495117, -1.0844727, 13.841464, -152.1951294, 34.0853653, -0.0453193
0.3266602, -0.2421875, -1.081543, 14.0243902, -151.0365906, 33.5975609, -0.0399481
0.3149414, -0.2387695, -1.0566406, 13.9024391, -148.3536682, 32.5, -0.0379339
0.2783203, -0.2114258, -1.0615234, 13.780488, -147.6829376, 31.7682934, -0.0486763
0.2543945, -0.1923828, -1.0859375, 12.9878054, -147.8048859, 32.3170738, -0.0466621
0.2285156, -0.1499023, -1.1396484, 12.560976, -148.6585388, 32.5609779, -0.0459907
0.2299805, -0.1342773, -1.137207, 10.060976, -150.3048859, 33.7804871, -0.0459907
0.2597656, -0.121582, -1.0947266, 7.0731707, -150.0609741, 33.9634171, -0.0419623
0.2680664, -0.1274414, -1.0708008, 5.2439027, -149.2682953, 33.6585388, -0.0473335
0.2641602, -0.1391602, -1.0620117, 1.7682927, -148.6585388, 35.0609779, -0.0513619
0.2553711, -0.1464844, -1.078125, 0.6097561, -148.9024353, 35.8536606, -0.0513619
0.2294922, -0.1645508, -1.1166992, -1.6463414, -150.9146423, 37.9878044, -0.0426337
0.2250977, -0.1811523, -1.1220703, -2.6829269, -151.9512177, 38.9634171, -0.0379339
0.2460938, -0.2412109, -1.1030273, -2.9878049, -152.7439117, 40.1219521, -0.0433051
0.2539062, -0.2905273, -1.0810547, -2.5, -151.7073212, 40.4878044, -0.0386053
0.2514648, -0.3061523, -1.0761719, 1.2195122, -149.0243988, 40.4878044, -0.0352483
0.2397461, -0.3110352, -1.0688477, 3.5975611, -147.5609741, 40, -0.0402838
0.2314453, -0.3022461, -1.0717773, 7.0731707, -144.3902435, 38.1097565, -0.0419623
0.1962891, -0.2734375, -1.1005859, 8.0487804, -142.86586, 35.9146347, -0.0386053
0.1762695, -0.2583008, -1.1206055, 7.7439027, -143.1707306, 34.6341476, -0.0352483
0.1557617, -0.2436523, -1.1611328, 5.5487804, -145, 33.7804871, -0.0352483
0.1508789, -0.2421875, -1.1777344, 4.390244, -145.9756165, 33.7804871, -0.0352483
0.1845703, -0.2314453, -1.184082, 2.1341465, -147.1951294, 33.7804871, -0.0325628
0.2084961, -0.2299805, -1.171875, 1.6463414, -146.4634247, 33.3536606, -0.0339055
0.2524414, -0.2382812, -1.1079102, 1.5853659, -143.4756165, 32.9268303, -0.0285344
0.25, -0.253418, -1.0371094, 1.8902439, -140.9756165, 32.4390259, -0.0359197
0.2324219, -0.2583008, -1.0239258, 3.2926829, -136.8292694, 32.0731697, -0.0359197
0.1723633, -0.262207, -1.0087891, 4.6341462, -135.6707306, 32.0121956, -0.0459907
0.1376953, -0.2631836, -1.0126953, 6.6463418, -135.2439117, 32.1951218, -0.0530404
0.0634766, -0.2543945, -1.0488281, 7.6829271, -137.2561035, 31.8292694, -0.0503548
0.0375977, -0.2568359, -1.0664062, 7.3170733, -138.4146423, 32.0731697, -0.0473335
0.0249023, -0.2519531, -1.0766602, 5.3658538, -140.7926788, 32.6219521, -0.0473335
0.0336914, -0.2363281, -1.0751953, 4.0243902, -141.646347, 32.7439041, -0.0530404
0.0639648, -0.1948242, -1.0620117, 1.8902439, -142.6219482, 31.4024391, -0.0661326
0.0766602, -0.1826172, -1.0571289, 0.7317073, -142.9268341, 30.6707325, -0.056733
0.0922852, -0.1772461, -1.0566406, -2.2560976, -143.9634247, 31.0365868, -0.0540475
0.1040039, -0.2011719, -1.0522461, -3.7804878, -144.5121918, 32.2560997, -0.0580758
0.1079102, -0.2241211, -1.0541992, -5.1829271, -145.5487823, 35, -0.0574044
0.1069336, -0.2729492, -1.0625, -4.6951222, -145.6707306, 36.5853653, -0.0574044
0.1030273, -0.2919922, -1.0771484, -1.6463414, -144.7561035, 38.7804871, -0.0530404
0.0834961, -0.3027344, -1.1142578, 2.5609756, -142.0731812, 39.7560997, -0.0527047
0.0717773, -0.2993164, -1.1245117, 4.1463413, -140.5487823, 39.6341476, -0.0580758
0.078125, -0.2739258, -1.0869141, 4.7560978, -137.4390259, 37.2560997, -0.0540475
0.0786133, -0.2602539, -1.0424805, 4.2073174, -136.4024353, 35.9146347, -0.0527047
0.0615234, -0.2529297, -0.9672852, 2.8658538, -135.7317047, 33.2926826, -0.0560616
0.0390625, -0.2509766, -0.9609375, 2.3780489, -136.4634247, 32.5, -0.0580758
-0.0268555, -0.234375, -1.0170898, 1.7073171, -139.5121918, 33.5365868, -0.056733
-0.0527344, -0.2211914, -1.0878906, 1.1585366, -141.646347, 34.4512215, -0.0560616
-0.0458984, -0.2265625, -1.1098633, 0.7317073, -144.9390259, 35.8536606, -0.0500191
-0.003418, -0.2519531, -1.0883789, 0.7926829, -145.1219482, 36.341465, -0.0453193
0.0224609, -0.2734375, -1.0620117, 1.8292683, -142.5, 37.0121956, -0.0493477
0.0585938, -0.2993164, -1.0161133, 3.3536587, -137.6829376, 37.5, -0.0476692
0.0585938, -0.3007812, -1.0126953, 4.5731707, -135.36586, 37.2560997, -0.0463264
0.0336914, -0.2866211, -1.0395508, 6.4024391, -133.4756165, 37.1951218, -0.0480049
0.0209961, -0.2734375, -1.0517578, 6.5853658, -133.1097565, 36.9512215, -0.0513619
-0.0068359, -0.2475586, -1.0507812, 5.670732, -133.1097565, 35.7926826, -0.0506905
-0.0239258, -0.2368164, -1.0473633, 4.7560978, -133.3536682, 34.8780479, -0.0493477
-0.0571289, -0.2158203, -1.0698242, 1.2804878, -133.8414612, 34.5121956, -0.0412909
-0.0810547, -0.1782227, -1.1118164, -0.0609756, -134.5731812, 34.6341476, -0.0392767
-0.0791016, -0.1552734, -1.1137695, -3.9024391, -135.0609741, 35.7317085, -0.0399481
-0.059082, -0.1337891, -1.0566406, -5.5487804, -134.8170776, 35.8536606, -0.0382696
-0.0463867, -0.1513672, -1.0185547, -9.0853662, -133.4756165, 36.0365868, -0.0392767
-0.0385742, -0.2055664, -0.9760742, -11.219512, -133.7195129, 37.0121956, -0.0352483
-0.0463867, -0.2382812, -0.9755859, -11.6463413, -134.3902435, 38.6585388, -0.0345769
-0.0537109, -0.2958984, -0.9677734, -9.9390249, -135.7317047, 41.5853653, -0.0433051
-0.0488281, -0.3115234, -0.9643555, -8.4756098, -135.1829224, 42.3170738, -0.0594186
-0.0673828, -0.3149414, -0.9506836, -5.9756098, -131.8292694, 41.0365868, -0.070161
-0.0932617, -0.3066406, -0.9697266, -5.0609756, -129.6951294, 39.3292694, -0.0607614
-0.1616211, -0.2822266, -1.0253906, -4.5121951, -128.4146423, 36.8902435, -0.056733
-0.1831055, -0.2456055, -1.0488281, -4.8780489, -129.146347, 36.5243912, -0.0661326
-0.168457, -0.2368164, -1.0361328, -6.7682929, -131.8292694, 36.1585388, -0.0647898
-0.1201172, -0.2402344, -0.9931641, -8.4146347, -133.5975647, 35.0609779, -0.0580758
-0.0996094, -0.2548828, -0.9750977, -8.780488, -133.7195129, 34.7560997, -0.0480049
-0.081543, -0.2958984, -0.9638672, -6.9512196, -133.8414612, 35.6707344, -0.0433051
-0.0756836, -0.3129883, -0.965332, -5.1219511, -133.4146423, 36.7073174, -0.0392767
-0.0654297, -0.3349609, -0.9492188, -0.4268293, -130.7317047, 38.5975609, -0.0325628
-0.0610352, -0.3383789, -0.9384766, 1.402439, -128.4146423, 38.1707344, -0.0251774
-0.1020508, -0.3149414, -0.9575195, 4.0243902, -123.0487823, 36.0365868, -0.0057069
-0.1450195, -0.2856445, -0.9887695, 4.6341462, -121.0365906, 35, 0.0104067
-0.215332, -0.2246094, -1.0361328, 3.1097562, -119.146347, 34.0853653, 0.0258488
-0.2216797, -0.1748047, -1.0268555, 1.402439, -119.3902435, 34.0243912, 0.0359197
-0.2124023, -0.1591797, -1.012207, -3.4146342, -120.0609818, 33.5975609, 0.0345769
-0.1831055, -0.1347656, -0.9682617, -9.0853662, -121.2804871, 33.0487823, 0.03122
-0.1708984, -0.1357422, -0.9423828, -11.4634151, -121.4634171, 32.9878044, 0.014435
-0.1606445, -0.1621094, -0.8803711, -15.1829271, -121.4634171, 34.0853653, -0.0003357
-0.1606445, -0.1796875, -0.8535156, -16.4634151, -120.6707382, 35.1219521, -0.0164492
-0.1918945, -0.2192383, -0.831543, -17.439024, -119.7561035, 37.1951218, -0.024506
-0.2202148, -0.2392578, -0.8544922, -17.3170738, -119.6951218, 38.5365868, -0.0251774
-0.2739258, -0.2612305, -0.9438477, -17.439024, -122.1951218, 40.6707344, -0.0258488
-0.2851562, -0.2641602, -0.9912109, -17.6219521, -124.0243912, 41.5853653, -0.0288701
-0.2524414, -0.2514648, -1.0097656, -19.0853672, -125.7926865, 41.6463432, -0.0285344
-0.1962891, -0.222168, -0.9399414, -20.3658543, -124.3292694, 40.7317085, -0.024506
-0.1884766, -0.2036133, -0.9072266, -22.9878063, -118.1097565, 37.0121956, -0.024506
-0.2231445, -0.1860352, -0.8911133, -24.9390259, -113.9634171, 34.4512215, -0.0285344
-0.2456055, -0.1914062, -0.8979492, -25.1829281, -114.7561035, 34.4512215, -0.0285344
-0.246582, -0.2583008, -0.8725586, -24.7560978, -120.9756088, 36.8292694, -0.0231632
-0.2290039, -0.3100586, -0.8417969, -22.9878063, -124.2073212, 37.9268303, -0.024506
-0.2045898, -0.378418, -0.7817383, -18.4756107, -124.8780518, 38.5365868, -0.0406195
-0.2177734, -0.3793945, -0.7817383, -15.7926836, -122.0731735, 37.5609779, -0.0433051
-0.2944336, -0.3359375, -0.8510742, -9.8780489, -115.4268341, 34.3902435, -0.0459907
-0.3354492, -0.2973633, -0.8979492, -8.1097565, -113.7195129, 32.8048782, -0.0486763
-0.3808594, -0.2402344, -0.9414062, -7.5, -114.8170776, 31.0975609, -0.0352483
-0.3564453, -0.2392578, -0.9121094, -8.4756098, -117.3780518, 30.4268303, -0.0208133
-0.3242188, -0.25, -0.8911133, -8.6585369, -122.8048782, 30.5487804, -0.0218204
-0.2539062, -0.2807617, -0.8520508, -6.9512196, -125.2439041, 31.5243912, -0.017792
-0.2333984, -0.2900391, -0.8349609, -5.4268293, -123.7195129, 31.341465, -0.0164492
-0.2324219, -0.2866211, -0.8461914, -3.3536587, -118.7804871, 30.8536587, -0.0167849
-0.2587891, -0.2729492, -0.8789062, -3.0487804, -115.9146347, 30.4268303, -0.0191348
-0.3305664, -0.2299805, -0.9580078, -4.0243902, -114.0243912, 30.7317085, -0.0221561
-0.3515625, -0.1977539, -0.9892578, -5, -114.0853653, 31.5243912, -0.0275273
-0.3579102, -0.1601562, -1.0009766, -8.2317076, -115.5487823, 32.9268303, -0.024506
-0.3359375, -0.159668, -0.9824219, -9.6341467, -116.2195129, 33.3536606, -0.0271916
-0.2866211, -0.1845703, -0.9111328, -12.9878054, -115.36586, 33.6585388, -0.0369268
-0.2612305, -0.2148438, -0.8398438, -14.3292685, -114.5121994, 34.3902435, -0.0466621
