Application:, Trigno Discover (1.6.5)
Date/Time:, 05/02/2025 17:00:45
Collection Length (seconds):, 35.343
wrist (81457), , , , , , bicep (81139)
sensor mode: 609, , , , , , sensor mode: 40
ACC X (G), ACC Y (G), ACC Z (G), GYRO X (deg/s), GYRO Y (deg/s), GYRO Z (deg/s), EMG 1 (mV)
370.3704 Hz, 370.3704 Hz, 370.3704 Hz, 370.3704 Hz, 370.3704 Hz, 370.3704 Hz, 2148.1481 Hz
0.9516602, -0.2124023, -0.1201172, -13.7195129, 3.2926829, 0, -0.0179599
0.9462891, -0.2231445, -0.1352539, -14.0243902, 1.8902439, -0.3048781, -0.0184634
0.9443359, -0.234375, -0.1513672, -15.3048782, 0.9756098, -0.3048781, -0.0224918
0.9433594, -0.2324219, -0.1557617, -16.0975609, 0.3658537, -0.3048781, -0.0292058
0.9545898, -0.2197266, -0.1518555, -16.2195129, 0.3048781, 0.0609756, -0.026688
0.9536133, -0.2055664, -0.1445312, -15.4268293, 0.4878049, 0.0609756, -0.0236667
0.9663086, -0.1865234, -0.1386719, -14.1463413, 0.7317073, -0.4268293, -0.0221561
0.9702148, -0.1831055, -0.1396484, -14.0243902, 0.3658537, -0.3048781, -0.01561
0.9780273, -0.1962891, -0.1450195, -15.3658543, -0.0609756, 0, -0.0115816
0.9746094, -0.2060547, -0.1435547, -16.4024391, -0.6707317, 0.2439024, -0.0095674
0.9667969, -0.2314453, -0.1318359, -17.9878044, -1.4634147, 0.7926829, -0.0072175
0.9619141, -0.2382812, -0.1274414, -17.6829281, -1.6463414, 0.9756098, -0.0115816
0.9516602, -0.2402344, -0.1220703, -16.8902435, -2.5609756, 0.7317073, -0.008896
0.9438477, -0.2304688, -0.1362305, -15.9146347, -3.1097562, 0.1829268, -0.0075532
0.9458008, -0.2231445, -0.1430664, -16.4634151, -3.6585367, 0.1829268, -0.0068818
0.953125, -0.2202148, -0.1469727, -17.1951218, -4.6341462, -0.1829268, -0.005539
0.9536133, -0.2177734, -0.1464844, -17.7439022, -5.1829271, -0.4268293, -0.0149386
0.9628906, -0.2241211, -0.1425781, -18.5975609, -6.2195125, -0.1219512, -0.018967
0.9663086, -0.2275391, -0.1435547, -18.6585369, -6.4024391, -0.1219512, -0.0303807
0.9628906, -0.230957, -0.1464844, -18.2926826, -6.7073174, 0, -0.0404517
0.9609375, -0.2314453, -0.1469727, -18.4756107, -6.7073174, -0.1829268, -0.0491798
0.9580078, -0.2285156, -0.1464844, -18.5365849, -6.9512196, -0.3048781, -0.0592508
0.956543, -0.2270508, -0.1450195, -18.5365849, -7.3170733, 0, -0.0639506
0.953125, -0.2207031, -0.1435547, -19.0853672, -7.9878049, -0.4268293, -0.0505226
0.9536133, -0.2133789, -0.1376953, -18.2926826, -8.1097565, -0.1829268, -0.0176242
0.9555664, -0.2060547, -0.1425781, -17.8048782, -7.7439027, -0.1829268, 0.0229953
0.9594727, -0.2036133, -0.1542969, -16.6463413, -7.8658538, 0.3658537, 0.0555581
0.9633789, -0.2041016, -0.1650391, -16.6463413, -8.2926826, 0.3658537, 0.072343
0.9746094, -0.2099609, -0.168457, -16.8902435, -8.1707315, 0.9756098, 0.0716716
0.972168, -0.2167969, -0.1621094, -17.2560978, -8.0487804, 0.8536586, 0.0582437
0.9667969, -0.2294922, -0.1435547, -17.1341476, -7.6829271, 1.1585366, 0.0454871
0.9619141, -0.2304688, -0.1342773, -16.8292694, -7.2560978, 0.9756098, 0.0330663
0.9526367, -0.2260742, -0.1367188, -15.9756098, -6.9512196, 0.9146342, 0.0186313
0.9453125, -0.2177734, -0.1479492, -15.9146347, -7.0121951, 0.7926829, 0.0062104
0.9443359, -0.2167969, -0.1557617, -16.4634151, -7.8658538, 0.4268293, -0.0068818
0.9516602, -0.2270508, -0.1606445, -16.7073174, -8.6585369, 0.2439024, -0.0130922
0.9599609, -0.2275391, -0.1611328, -17.0731716, -8.9024391, 0.3658537, -0.0169528
0.9770508, -0.2397461, -0.1601562, -16.7682934, -8.5975609, 0.4268293, -0.018967
0.9819336, -0.2446289, -0.1577148, -16.4024391, -8.5365858, 0.1829268, -0.0243381
0.9848633, -0.2358398, -0.1665039, -15.4268293, -7.4390244, -0.1219512, -0.0323949
0.9790039, -0.2280273, -0.1777344, -15.4268293, -7.3170733, -0.1219512, -0.0364233
0.972168, -0.2216797, -0.1860352, -15.9146347, -6.7682929, -0.0609756, -0.0438087
0.9711914, -0.2167969, -0.184082, -16.4634151, -7.1341467, -0.0609756, -0.0461585
0.9750977, -0.2084961, -0.1791992, -17.560976, -7.1951222, 0.0609756, -0.04448
0.9731445, -0.2138672, -0.1743164, -17.9268303, -7.6219516, 0.2439024, -0.0424659
0.9746094, -0.2211914, -0.1728516, -18.6585369, -7.5609756, -0.0609756, -0.04448
0.9702148, -0.2290039, -0.1743164, -19.5731716, -7.3170733, -0.1219512, -0.0453193
0.9682617, -0.234375, -0.1762695, -19.7560978, -7.3170733, 0, -0.047837
0.956543, -0.2373047, -0.1791992, -20.4878044, -7.5609756, 0.1219512, -0.0461585
0.9628906, -0.2368164, -0.1772461, -20.4878044, -7.3780489, 0.3658537, -0.0391089
0.9677734, -0.2348633, -0.1743164, -20.2439022, -7.5609756, -0.1829268, -0.0374304
0.96875, -0.2338867, -0.1679688, -20.060976, -7.3780489, -0.3048781, -0.0298772
0.9770508, -0.2304688, -0.1611328, -20.4268303, -7.2560978, -0.4878049, -0.0229953
0.9765625, -0.2275391, -0.1572266, -20.1829281, -7.1951222, -0.9756098, -0.0176242
0.9750977, -0.2241211, -0.1523438, -20.4878044, -6.7073174, -1.097561, -0.0112459
0.9731445, -0.2211914, -0.1508789, -20.6097565, -6.7073174, -1.5243902, 0.0062104
0.9692383, -0.2250977, -0.1538086, -20.3048782, -7.2560978, -1.2804878, 0.0139315
0.9614258, -0.2275391, -0.1572266, -20.1829281, -7.4390244, -1.2804878, 0.0139315
0.9570312, -0.2294922, -0.1625977, -20.3048782, -7.2560978, -1.1585366, 0.0203098
0.953125, -0.21875, -0.1660156, -19.8170738, -7.0121951, -1.0365853, 0.0276951
0.9541016, -0.2128906, -0.1669922, -19.2682934, -6.7682929, -0.8536586, 0.0276951
0.9516602, -0.2099609, -0.168457, -18.5975609, -6.4634147, -0.7926829, 0.0256809
0.9550781, -0.2094727, -0.1723633, -18.8414631, -6.6463418, -0.8536586, 0.0172885
0.9589844, -0.2167969, -0.1694336, -19.7560978, -6.4024391, -0.4878049, 0.0052033
0.9584961, -0.2177734, -0.1655273, -19.5731716, -6.1585369, -0.4268293, -0.0085603
0.9628906, -0.2167969, -0.1572266, -19.3902435, -5.5487804, -0.5487805, -0.018967
0.9667969, -0.2182617, -0.1601562, -18.7195129, -5.4878049, -0.6097561, -0.0303807
0.9697266, -0.2182617, -0.1621094, -18.2317085, -5.4878049, -0.3658537, -0.0438087
0.9746094, -0.2211914, -0.1650391, -18.5365849, -5.4268293, -0.4878049, -0.051194
0.9790039, -0.2216797, -0.1704102, -18.5975609, -5.3658538, -0.3048781, -0.0530404
0.9731445, -0.2167969, -0.159668, -18.4146347, -4.8170733, 0, -0.0577401
0.9750977, -0.2099609, -0.1518555, -17.8048782, -4.6341462, 0, -0.0619364
0.9755859, -0.1972656, -0.1499023, -16.9512196, -4.7560978, 0.3048781, -0.0592508
0.9765625, -0.1977539, -0.1518555, -17.0731716, -4.9390244, 0.3658537, -0.0605936
0.9780273, -0.2016602, -0.1538086, -17.8658543, -5.0609756, 0.5487805, -0.061265
0.9736328, -0.2080078, -0.1503906, -18.5365849, -5.4878049, 0.6707317, -0.0636149
0.9765625, -0.2158203, -0.1381836, -18.5975609, -5.4268293, 1.2195122, -0.061265
0.9750977, -0.2099609, -0.1303711, -18.0487804, -5.609756, 1.2195122, -0.0632792
0.9741211, -0.2128906, -0.137207, -16.8902435, -5.670732, 0.7926829, -0.0673075
0.9672852, -0.2226562, -0.1464844, -16.4634151, -6.280488, 0.5487805, -0.0652934
0.9672852, -0.2275391, -0.1489258, -16.4024391, -6.280488, 0.9756098, -0.0626078
0.9716797, -0.2324219, -0.1445312, -16.9512196, -7.0731707, 0.9146342, -0.0639506
0.9707031, -0.230957, -0.140625, -16.6463413, -7.2560978, 0.6707317, -0.0710002
0.9692383, -0.2182617, -0.1308594, -15.9146347, -6.9512196, 0.3048781, -0.0726787
0.9682617, -0.2158203, -0.1303711, -15.4878054, -6.9512196, 0.4878049, -0.0673075
0.9624023, -0.2099609, -0.1264648, -15.1219511, -7.1341467, 0.3048781, -0.064622
0.965332, -0.2070312, -0.1230469, -15, -7.3170733, 0.7317073, -0.0565652
0.96875, -0.2124023, -0.1225586, -15.060976, -8.3536587, 0.3048781, -0.0501869
0.9702148, -0.2133789, -0.1293945, -15.1829271, -8.5975609, 0.4268293, -0.0404517
0.9677734, -0.2143555, -0.1337891, -15.6097565, -9.2682924, 0.1829268, -0.0297093
0.9648438, -0.2163086, -0.1367188, -15.4268293, -9.2073174, 0.6707317, -0.0196384
0.9638672, -0.2119141, -0.1342773, -15.4268293, -9.4512196, 0.8536586, -0.0196384
0.9682617, -0.2026367, -0.1313477, -14.4512196, -10, 0.8536586, -0.0219883
0.9716797, -0.1982422, -0.1303711, -14.2073174, -10.060976, 0.4268293, -0.024506
0.9711914, -0.1943359, -0.1411133, -14.5121956, -10, 0.6707317, -0.0218204
0.9731445, -0.199707, -0.144043, -14.8170738, -10.2439022, 0.4268293, -0.0203098
0.9750977, -0.2109375, -0.1533203, -15.8536587, -10.8536587, 0.7926829, -0.018967
0.9716797, -0.2138672, -0.1538086, -16.280489, -10.9756098, 0.8536586, -0.018967
0.96875, -0.2016602, -0.1474609, -16.1585369, -11.219512, 1.3414634, -0.0243381
0.9677734, -0.1928711, -0.1396484, -15.9146347, -11.4634151, 1.5853659, -0.0229953
0.9682617, -0.190918, -0.1381836, -15.4268293, -11.341464, 1.5853659, -0.0162814
0.965332, -0.1889648, -0.1401367, -15.7317076, -11.219512, 1.7073171, -0.0179599
0.9619141, -0.1933594, -0.1396484, -16.1585369, -11.5243902, 1.8902439, -0.0115816
0.9648438, -0.1933594, -0.1337891, -16.6463413, -11.8902445, 2.1341465, -0.0099031
0.9667969, -0.1933594, -0.1376953, -16.6463413, -12.1951218, 2.3170731, -0.0109102
0.9658203, -0.2041016, -0.140625, -16.4634151, -12.4390249, 2.4390244, -0.0095674
0.9716797, -0.2089844, -0.1420898, -16.0975609, -12.4390249, 2.5, -0.0124208
0.9775391, -0.2050781, -0.1376953, -15.5487804, -12.3170738, 2.7439024, -0.0119173
0.9794922, -0.2016602, -0.1367188, -15.1219511, -12.2560978, 2.6829269, -0.0095674
0.9819336, -0.2055664, -0.1376953, -14.5121956, -12.2560978, 2.6219513, -0.0030213
0.9707031, -0.2080078, -0.140625, -14.6341467, -12.1951218, 2.6219513, -0.0028534
0.9702148, -0.2084961, -0.1474609, -14.9390249, -12.3170738, 2.6829269, -0.005539
0.9682617, -0.2089844, -0.1518555, -15.4878054, -12.3170738, 2.9268293, -0.0135958
0.9633789, -0.2075195, -0.1499023, -15.6707325, -12.560976, 2.9268293, -0.0099031
0.9609375, -0.1967773, -0.140625, -15.7317076, -12.8658543, 2.7439024, -0.0115816
0.9594727, -0.1914062, -0.1328125, -15.5487804, -13.0487804, 2.6829269, -0.0151064
0.9638672, -0.1977539, -0.1196289, -15.2439032, -13.7195129, 2.804878, -0.0196384
0.9663086, -0.2055664, -0.1206055, -15.5487804, -13.841464, 2.7439024, -0.0182956
0.9643555, -0.2241211, -0.1337891, -15.9146347, -13.9634151, 2.9268293, -0.0162814
0.9638672, -0.2304688, -0.140625, -16.0365849, -14.0853662, 3.0487804, -0.0164492
0.9633789, -0.2285156, -0.1489258, -15.3048782, -13.841464, 3.0487804, -0.0142672
0.9624023, -0.2290039, -0.1416016, -14.2682934, -13.2926836, 2.8658538, -0.0078889
0.9682617, -0.2246094, -0.1435547, -13.5365858, -13.5365858, 2.7439024, -0.0038605
0.9799805, -0.2172852, -0.1508789, -13.1097565, -13.3536587, 2.5609756, -0.0102388
0.9794922, -0.2163086, -0.1503906, -13.2317076, -13.2317076, 2.1341465, -0.0115816
0.9814453, -0.2133789, -0.1591797, -13.841464, -12.9268293, 1.9512196, -0.0048676
0.9829102, -0.2075195, -0.159668, -13.9024391, -12.8658543, 2.1341465, -0.0036927
0.9833984, -0.199707, -0.1625977, -13.9634151, -12.4390249, 2.1341465, -0.0028534
0.9804688, -0.2016602, -0.1645508, -14.1463413, -12.3780489, 2.195122, -0.0016785
0.984375, -0.203125, -0.1748047, -14.5731707, -12.5, 2.804878, -0.0068818
0.9824219, -0.2006836, -0.1733398, -14.5731707, -12.0731707, 2.804878, -0.0135958
0.9848633, -0.2021484, -0.1650391, -14.7560978, -11.5243902, 2.8658538, -0.0159457
0.9799805, -0.1987305, -0.1606445, -14.5121956, -10.9146347, 2.804878, -0.0164492
0.9790039, -0.199707, -0.1601562, -14.0853662, -10.7926836, 2.804878, -0.0115816
0.9755859, -0.203125, -0.159668, -14.0853662, -10.6707315, 3.0487804, -0.0099031
0.9741211, -0.2060547, -0.1601562, -14.3902445, -10.9146347, 2.9878049, -0.0115816
0.9731445, -0.2114258, -0.15625, -14.5121956, -10.8536587, 2.9878049, -0.0159457
0.9736328, -0.2114258, -0.1572266, -14.5121956, -10.9146347, 3.1707318, -0.0182956
0.9741211, -0.2158203, -0.1533203, -14.1463413, -10.2439022, 2.9268293, -0.0206455
0.9775391, -0.2133789, -0.1557617, -13.2317076, -10, 2.8658538, -0.0216526
0.9814453, -0.2089844, -0.1503906, -12.560976, -9.8170738, 2.6829269, -0.0256809
0.9819336, -0.2080078, -0.1518555, -12.4390249, -9.6951218, 2.6829269, -0.030045
0.9873047, -0.2016602, -0.1577148, -12.6829271, -9.5121956, 2.6829269, -0.0330663
0.9853516, -0.1928711, -0.1523438, -12.9268293, -9.5731707, 2.4390244, -0.0337377
0.9819336, -0.1982422, -0.1420898, -12.8658543, -9.2073174, 2.3780489, -0.0357519
0.9760742, -0.2104492, -0.1396484, -12.5, -8.9634151, 2.9878049, -0.0320592
0.9780273, -0.2138672, -0.1430664, -12.560976, -9.0243902, 3.2926829, -0.0317235
0.9746094, -0.2133789, -0.1464844, -12.2560978, -8.841464, 2.8658538, -0.0303807
0.9677734, -0.215332, -0.1474609, -12.2560978, -8.5975609, 2.7439024, -0.0323949
0.9702148, -0.2114258, -0.1508789, -12.0121956, -8.6585369, 2.1341465, -0.0297093
0.9716797, -0.2158203, -0.1533203, -12.0731707, -8.4146347, 1.8292683, -0.030045
0.9790039, -0.2192383, -0.1513672, -12.0121956, -8.6585369, 1.8292683, -0.0317235
0.9819336, -0.2202148, -0.1513672, -12.0121956, -8.6585369, 1.5243902, -0.03122
0.9785156, -0.2167969, -0.1538086, -11.8902445, -8.2317076, 1.2804878, -0.0290379
0.9858398, -0.2128906, -0.1630859, -11.7682934, -7.6219516, 1.2195122, -0.0250095
0.984375, -0.2124023, -0.1630859, -11.4634151, -7.4390244, 1.0365853, -0.0258488
0.9848633, -0.2075195, -0.1611328, -11.5853662, -7.5, 0.8536586, -0.023331
0.9863281, -0.206543, -0.1601562, -11.6463413, -7.4390244, 0.8536586, -0.0203098
0.984375, -0.1967773, -0.1582031, -11.8902445, -7.0731707, 0.4878049, -0.0243381
0.9838867, -0.2006836, -0.1645508, -12.1951218, -7.0121951, 0.3658537, -0.0243381
0.9794922, -0.2006836, -0.1650391, -12.9268293, -7.0731707, 0.4878049, -0.0236667
0.9780273, -0.1967773, -0.159668, -12.9268293, -7.1951222, 0.4878049, -0.0234989
0.9794922, -0.1923828, -0.1494141, -12.6219511, -7.1341467, 0.6097561, -0.0260166
0.9790039, -0.1923828, -0.1474609, -12.560976, -7.3170733, 0.6097561, -0.0216526
0.9667969, -0.1884766, -0.1538086, -13.1707315, -6.9512196, 1.1585366, -0.0172885
0.9663086, -0.1831055, -0.1577148, -13.841464, -7.1341467, 1.8292683, -0.0182956
0.9677734, -0.1835938, -0.1606445, -14.5731707, -7.3780489, 1.8292683, -0.0179599
0.9697266, -0.1884766, -0.1601562, -15.4268293, -7.9878049, 1.7682927, -0.0176242
0.9726562, -0.1904297, -0.1640625, -15.2439032, -8.3536587, 2.1341465, -0.0149386
0.9873047, -0.1958008, -0.1665039, -15.2439032, -8.5975609, 2.3170731, -0.0125887
0.9892578, -0.203125, -0.1713867, -15.2439032, -8.4146347, 2.4390244, -0.0139315
0.9921875, -0.2114258, -0.1713867, -15.3658543, -7.5609756, 2.9268293, -0.0171206
0.987793, -0.2114258, -0.1655273, -15.060976, -7.1951222, 2.9268293, -0.0169528
0.9775391, -0.215332, -0.1582031, -14.3292685, -7.5609756, 2.8658538, -0.0196384
0.9765625, -0.2070312, -0.1518555, -14.6341467, -7.5609756, 2.7439024, -0.0176242
0.9638672, -0.2016602, -0.1484375, -15.060976, -7.8658538, 2.3780489, -0.0115816
0.9584961, -0.2080078, -0.1503906, -16.1585369, -8.780488, 2.2560976, -0.0119173
0.9604492, -0.2089844, -0.1469727, -16.280489, -9.4512196, 2.3170731, -0.0127565
0.9648438, -0.2177734, -0.1469727, -16.8902435, -11.1585369, 2.0731707, -0.0102388
0.9697266, -0.2158203, -0.1508789, -17.1341476, -11.7073174, 2.1341465, -0.0078889
0.9702148, -0.2177734, -0.1733398, -17.560976, -12.0121956, 2.3170731, -0.0095674
0.9711914, -0.2109375, -0.1806641, -17.7439022, -12.0121956, 2.5609756, -0.018967
0.9780273, -0.2006836, -0.1796875, -18.3536587, -11.8902445, 2.9878049, -0.0198062
0.980957, -0.1948242, -0.1767578, -18.6585369, -12.0731707, 3.2926829, -0.0169528
0.9833984, -0.1870117, -0.175293, -18.9634151, -12.8658543, 3.0487804, -0.017792
0.9824219, -0.1860352, -0.1772461, -19.3292694, -12.8658543, 3.2317073, -0.023331
0.9853516, -0.1962891, -0.1938477, -20.8536587, -13.3536587, 3.2317073, -0.024506
0.9775391, -0.2114258, -0.2143555, -23.2926826, -14.3292685, 3.9634147, -0.0318914
0.9838867, -0.2167969, -0.2172852, -23.780489, -14.7560978, 4.2682929, -0.0318914
0.9956055, -0.2231445, -0.2177734, -24.1463413, -15.2439032, 4.1463413, -0.03122
1.0014648, -0.2177734, -0.2114258, -23.9024391, -15.6097565, 4.2682929, -0.0283665
1, -0.206543, -0.1782227, -23.8414631, -16.1585369, 4.390244, -0.0263523
0.9951172, -0.2041016, -0.1630859, -23.5975609, -16.4634151, 4.3292685, -0.0206455
0.9838867, -0.2041016, -0.1489258, -23.8414631, -17.560976, 4.390244, -0.0115816
0.9770508, -0.2060547, -0.1552734, -24.2073174, -18.5365849, 4.2682929, -0.0062104
0.9594727, -0.2226562, -0.1816406, -26.0365868, -20.9756107, 4.8170733, -0.0102388
0.9599609, -0.2294922, -0.1928711, -26.4634151, -21.9512196, 4.9390244, -0.0182956
0.9804688, -0.2353516, -0.2255859, -27.2560978, -23.7195129, 4.9390244, -0.0243381
0.9970703, -0.2397461, -0.2490234, -26.7073174, -24.1463413, 4.5731707, -0.0154421
1.0087891, -0.2363281, -0.2631836, -26.4024391, -24.2073174, 4.5731707, -0.005539
1.0219727, -0.2265625, -0.2714844, -26.8902454, -23.6585369, 4.5121951, 0.0070497
1.027832, -0.2211914, -0.2631836, -27.4390259, -23.4756107, 4.6341462, 0.0105745
1.0175781, -0.2006836, -0.25, -28.6585369, -22.8658543, 4.7560978, 0.0003357
1.0107422, -0.1962891, -0.246582, -29.2073174, -23.2926826, 4.9390244, -0.0179599
0.9916992, -0.2006836, -0.2485352, -30.9146347, -24.5731716, 5.3658538, -0.0332341
0.980957, -0.2036133, -0.2456055, -31.9512196, -25.6707325, 5.5487804, -0.0587472
0.9726562, -0.2280273, -0.2412109, -33.9024391, -28.5975609, 5.9756098, -0.0736858
0.9746094, -0.2368164, -0.2382812, -34.5121956, -29.7560978, 6.280488, -0.0740215
0.9731445, -0.2387695, -0.230957, -34.9390259, -31.6463413, 7.0731707, -0.061265
0.9746094, -0.2456055, -0.2236328, -34.8170738, -33.5365868, 7.3170733, -0.0260166
0.9750977, -0.2485352, -0.2241211, -34.2682953, -34.6951218, 7.1951222, 0.0130922
0.9780273, -0.2368164, -0.2280273, -35, -36.9512215, 8.1707315, 0.043473
0.980957, -0.2299805, -0.2338867, -35.1829262, -37.9268303, 8.1707315, 0.0616007
0.9794922, -0.2246094, -0.2524414, -36.4634171, -39.8780479, 8.9024391, 0.057908
0.9819336, -0.2216797, -0.2612305, -36.8902435, -41.2195129, 8.9024391, 0.0411231
0.9916992, -0.2236328, -0.2749023, -38.1707344, -43.7804871, 8.6585369, 0.0164492
0.9926758, -0.230957, -0.2753906, -38.5365868, -44.9390259, 8.719512, -0.0052033
0.9907227, -0.2470703, -0.2807617, -39.1463432, -46.8292694, 8.9634151, -0.0162814
0.9799805, -0.2636719, -0.2973633, -39.2682953, -47.1341476, 9.2682924, -0.0223239
0.9790039, -0.2700195, -0.3105469, -39.4512215, -48.5975609, 9.5121956, -0.030045
0.9750977, -0.2734375, -0.3320312, -39.5121956, -49.8780518, 9.2682924, -0.0323949
0.9770508, -0.2758789, -0.3408203, -39.5121956, -50.1829262, 9.5121956, -0.0344091
0.9775391, -0.2788086, -0.3378906, -39.1463432, -51.4634171, 9.8170738, -0.0360876
0.9755859, -0.2792969, -0.3276367, -38.9634171, -51.5853653, 9.9390249, -0.0431373
0.9746094, -0.2739258, -0.3115234, -38.5365868, -52.7439041, 10, -0.0454871
0.9736328, -0.2709961, -0.3134766, -38.2926826, -53.1707344, 9.8780489, -0.0532082
0.9604492, -0.2578125, -0.324707, -38.7195129, -53.9634171, 9.8170738, -0.057908
0.9521484, -0.246582, -0.3408203, -38.9634171, -54.6951218, 9.8780489, -0.0649577
0.9541016, -0.2172852, -0.3735352, -40.6707344, -55.7926826, 10, -0.0639506
0.9682617, -0.2148438, -0.3989258, -41.4634171, -56.4024391, 9.8780489, -0.0595865
0.9775391, -0.2265625, -0.4057617, -42.8048782, -58.5975609, 9.8170738, -0.0632792
1.0058594, -0.2578125, -0.40625, -43.6585388, -59.6341476, 10.1219511, -0.061265
1.0146484, -0.2773438, -0.3959961, -44.2073174, -60, 10.6707315, -0.051194
1.0126953, -0.2861328, -0.390625, -43.9024391, -59.1463432, 11.341464, -0.0431373
0.9995117, -0.2827148, -0.3857422, -43.2317085, -58.5365868, 11.341464, -0.0320592
0.965332, -0.2578125, -0.3876953, -42.1341476, -57.9268303, 11.8902445, -0.0246738
0.9541016, -0.2485352, -0.390625, -42.1951218, -58.1707344, 11.8902445, -0.0204776
0.9516602, -0.2353516, -0.3916016, -43.4146347, -59.9390259, 12.0731707, -0.0231632
0.9526367, -0.2290039, -0.3916016, -43.9024391, -61.341465, 12.0731707, -0.0226596
0.9545898, -0.2333984, -0.3994141, -44.6951218, -62.8048782, 11.7682934, -0.0223239
0.9594727, -0.2456055, -0.4135742, -45.1829262, -63.4756126, 11.7682934, -0.0146029
0.9658203, -0.2475586, -0.4228516, -45.5487823, -63.4146347, 11.8292685, -0.0135958
0.9711914, -0.2441406, -0.4423828, -45.4268303, -63.4756126, 12.6219511, -0.01561
0.9707031, -0.2392578, -0.4516602, -45.3658562, -63.5975609, 12.6829271, -0.0169528
0.9775391, -0.2392578, -0.4638672, -45.5487823, -64.2682953, 12.560976, -0.0166171
0.9833984, -0.2475586, -0.4609375, -45.7926826, -64.6951218, 12.4390249, -0.0204776
0.9824219, -0.265625, -0.4516602, -46.4634171, -65.6707306, 12.8048782, -0.0182956
0.9853516, -0.2705078, -0.4428711, -46.8292694, -66.3414612, 12.6219511, -0.018967
0.9741211, -0.293457, -0.425293, -47.4390259, -66.9512177, 12.560976, -0.0213169
0.9667969, -0.3071289, -0.421875, -47.7439041, -67.6219559, 12.3170738, -0.0263523
0.9526367, -0.3115234, -0.4150391, -48.1097565, -69.6951218, 12.0121956, -0.0287022
0.934082, -0.3081055, -0.4145508, -48.4146347, -70.8536606, 12.1341467, -0.0270237
0.9331055, -0.3032227, -0.4194336, -48.7804871, -73.7195129, 11.7073174, -0.0270237
0.9355469, -0.277832, -0.4208984, -48.841465, -77.0121994, 11.7682934, -0.0263523
0.9345703, -0.2597656, -0.4296875, -49.1463432, -78.2926865, 11.6463413, -0.0240024
0.9379883, -0.2392578, -0.4633789, -50.3048782, -80.7317123, 12.0121956, -0.0182956
0.9423828, -0.2299805, -0.4833984, -50.9146347, -82.3780518, 12.0731707, -0.018967
0.9526367, -0.2353516, -0.5039062, -52.5, -86.5243912, 12.5, -0.018967
0.9589844, -0.237793, -0.5058594, -52.9268303, -88.7195129, 12.9268293, -0.0229953
0.9707031, -0.2553711, -0.4970703, -52.5609779, -90.6097565, 13.3536587, -0.0270237
0.972168, -0.2548828, -0.5029297, -52.1951218, -90.18293, 14.0243902, -0.0276951
0.9663086, -0.2524414, -0.5151367, -52.5, -89.5731735, 15.3048782, -0.0216526
0.9555664, -0.2436523, -0.5253906, -52.8658562, -90.1219559, 15.7317076, -0.0196384
0.9526367, -0.2373047, -0.5205078, -54.7560997, -92.6219559, 16.4024391, -0.0166171
0.9487305, -0.2416992, -0.5097656, -56.1585388, -95.6097565, 17.439024, -0.0130922
0.9477539, -0.2514648, -0.5141602, -56.7682953, -97.0121994, 17.7439022, -0.0102388
0.9477539, -0.2563477, -0.527832, -57.7439041, -99.6951218, 18.9634151, -0.0097353
0.9560547, -0.2514648, -0.5356445, -58.1097565, -100.9756088, 19.2073174, -0.0075532
0.9677734, -0.2475586, -0.5483398, -59.2073174, -102.7439041, 20.1829281, -0.0028534
0.9775391, -0.246582, -0.5527344, -59.9390259, -104.2073212, 20.4878044, -0.0028534
0.996582, -0.246582, -0.5566406, -61.6463432, -106.8292694, 20.6097565, -0.0045319
1.0019531, -0.2480469, -0.5532227, -62.3780518, -108.3536606, 20.5487804, -0.0028534
1.0068359, -0.2543945, -0.5410156, -63.4756126, -111.3414688, 20.1829281, -0.0028534
0.9936523, -0.2558594, -0.5454102, -63.5975609, -112.3170776, 20.2439022, -0.0028534
0.9882812, -0.2587891, -0.5532227, -64.1463394, -114.6951218, 20.9756107, 0.0005035
0.9838867, -0.2617188, -0.5722656, -64.2073212, -117.3170776, 21.7682934, 0.0052033
0.9829102, -0.2651367, -0.581543, -64.6951218, -118.7195129, 22.1951218, 0.0031891
0.996582, -0.2685547, -0.6054688, -64.4512177, -120.8536606, 22.2560978, -0.0035248
1.0019531, -0.2700195, -0.6137695, -64.1463394, -121.2804871, 21.8292694, -0.0109102
1.0170898, -0.2666016, -0.6342773, -64.5731735, -122.5, 22.0121956, -0.0149386
1.0302734, -0.2661133, -0.6391602, -64.8780518, -123.2317123, 21.5853672, -0.0115816
1.0419922, -0.269043, -0.6274414, -65.4878082, -124.6951218, 21.280489, -0.0078889
1.0366211, -0.2646484, -0.6206055, -66.0365906, -125.36586, 21.5853672, -0.008896
1.0214844, -0.2646484, -0.5961914, -66.1585388, -126.7073212, 21.5853672, -0.0050355
0.9892578, -0.2563477, -0.59375, -66.0365906, -127.8048782, 21.6463413, -0.008896
0.972168, -0.2543945, -0.6015625, -65.6097565, -129.6951294, 21.6463413, -0.0095674
0.9506836, -0.2431641, -0.6171875, -65.9146347, -133.1097565, 21.7073174, -0.0082246
0.9477539, -0.2485352, -0.6279297, -66.4024429, -134.9390259, 21.5243912, -0.0135958
0.9580078, -0.2680664, -0.6489258, -67.9268341, -138.1707306, 21.2195129, -0.0216526
0.9604492, -0.2734375, -0.6616211, -68.3536606, -139.9390259, 21.0365868, -0.0243381
0.9804688, -0.2783203, -0.6855469, -68.2317123, -141.5243988, 21.0975609, -0.0223239
0.9926758, -0.2744141, -0.6914062, -67.7439041, -142.2561035, 20.9756107, -0.0280308
1.0131836, -0.2612305, -0.6948242, -67.0731735, -143.7804871, 20.6707325, -0.0263523
1.0195312, -0.2641602, -0.6889648, -66.7682953, -144.2073212, 20.4878044, -0.0240024
1.0141602, -0.2651367, -0.6860352, -66.6463394, -144.3902435, 20.4268303, -0.0229953
0.9897461, -0.262207, -0.7075195, -66.0365906, -144.8780518, 20.3658543, -0.0216526
0.9746094, -0.2548828, -0.7216797, -65.5487823, -145.1829376, 20.4878044, -0.0270237
0.9648438, -0.2524414, -0.7460938, -65.1219559, -146.3414612, 21.2195129, -0.0323949
0.965332, -0.2539062, -0.746582, -64.9390259, -147.0731812, 21.4634151, -0.0313878
0.9697266, -0.2573242, -0.7099609, -64.5731735, -147.9268341, 22.3170738, -0.0297093
0.9741211, -0.2597656, -0.6835938, -63.9024391, -148.4146423, 22.2560978, -0.0280308
0.9604492, -0.2573242, -0.6621094, -62.0731735, -149.2073212, 21.6463413, -0.0219883
0.9511719, -0.2587891, -0.6772461, -61.4634171, -150, 21.2195129, -0.018967
0.918457, -0.2661133, -0.7524414, -60.9146347, -151.5853729, 20.9756107, -0.0193027
0.9116211, -0.2705078, -0.7919922, -61.4634171, -152.6829376, 21.0975609, -0.0182956
0.9360352, -0.277832, -0.8203125, -61.7682953, -155.36586, 21.5243912, -0.017792
0.9736328, -0.2729492, -0.7666016, -61.1585388, -156.4634247, 21.4634151, -0.0203098
0.9814453, -0.2700195, -0.730957, -60.3658562, -155.7926941, 21.0975609, -0.023331
0.9770508, -0.2495117, -0.7011719, -58.1707344, -153.9634247, 20.060976, -0.0229953
0.9550781, -0.2397461, -0.7207031, -57.4390259, -153.7195129, 19.8780499, -0.0236667
0.8974609, -0.2192383, -0.7993164, -57.2560997, -154.5731812, 19.6341476, -0.0224918
0.8798828, -0.2128906, -0.8344727, -58.3536606, -155.9146423, 20.1829281, -0.0193027
0.878418, -0.215332, -0.8647461, -59.6951218, -159.2073212, 21.5243912, -0.018967
0.8994141, -0.2280273, -0.8510742, -60.1219521, -160.0609741, 22.0121956, -0.0253452
0.9536133, -0.2646484, -0.8198242, -59.2682953, -159.8170776, 23.3536587, -0.0219883
0.9624023, -0.2773438, -0.8134766, -58.3536606, -159.2682953, 23.7195129, -0.018967
0.9697266, -0.2871094, -0.8110352, -56.2195129, -157.3170776, 23.6585369, -0.0182956
0.9477539, -0.2749023, -0.8305664, -54.6951218, -156.4024353, 23.0487804, -0.0162814
0.9335938, -0.262207, -0.847168, -54.4512215, -156.0975647, 22.9268303, -0.0169528
0.9038086, -0.2451172, -0.8735352, -54.3902435, -156.5243988, 21.8292694, -0.0179599
0.9038086, -0.2402344, -0.8696289, -54.7560997, -157.0731812, 22.0121956, -0.0179599
0.9077148, -0.2514648, -0.8393555, -55, -159.3292694, 21.280489, -0.0182956
0.9091797, -0.2568359, -0.8251953, -54.8780518, -160, 21.0975609, -0.0193027
0.9086914, -0.2587891, -0.8349609, -53.841465, -160, 20.5487804, -0.0193027
0.8989258, -0.2485352, -0.8623047, -53.2317085, -159.4512177, 20.2439022, -0.0184634
0.8833008, -0.2172852, -0.902832, -52.9878044, -159.3292694, 20.3048782, -0.0209812
0.8896484, -0.2138672, -0.9077148, -53.2926826, -160.4268341, 20.4268303, -0.0193027
0.9101562, -0.2402344, -0.8696289, -54.5731735, -163.6585388, 20.6707325, -0.0223239
0.9208984, -0.2900391, -0.8110352, -54.5121956, -165.2439117, 21.0975609, -0.0250095
0.9101562, -0.3007812, -0.7963867, -53.6585388, -165.1219482, 20.6707325, -0.0297093
0.8657227, -0.2910156, -0.8061523, -49.9390259, -164.5121918, 19.6951218, -0.0292058
0.8388672, -0.2832031, -0.8300781, -48.0487823, -164.4512177, 19.0853672, -0.0280308
0.8046875, -0.2744141, -0.9018555, -45.9756126, -166.4024353, 18.9634151, -0.0290379
0.8046875, -0.2709961, -0.9272461, -45.6707344, -167.9268341, 18.780489, -0.0297093
0.8256836, -0.2753906, -0.9492188, -45.6707344, -170.8536682, 19.6341476, -0.0265202
0.8525391, -0.2783203, -0.9487305, -45.4878044, -171.2804871, 19.3902435, -0.0263523
0.9052734, -0.2739258, -0.9545898, -43.6585388, -169.8780518, 19.8170738, -0.0196384
0.9169922, -0.2661133, -0.9594727, -42.7439041, -168.7195129, 19.5121956, -0.0182956
0.9101562, -0.2402344, -0.9638672, -41.4634171, -165.4878082, 19.8170738, -0.0209812
0.887207, -0.2045898, -0.980957, -40.9756088, -163.4756165, 20.5487804, -0.0124208
0.8681641, -0.1899414, -1.0004883, -41.0365868, -162.86586, 20.7317085, -0.0008392
0.8413086, -0.190918, -1.0249023, -41.7682953, -162.9268341, 22.439024, 0.0031891
0.8354492, -0.2055664, -1.0234375, -41.8292694, -163.5975647, 23.8414631, 0.0092317
0.8466797, -0.230957, -0.9824219, -41.341465, -163.5975647, 26.5243912, 0.0102388
0.8505859, -0.2368164, -0.9619141, -40.3658562, -162.8048859, 27.0731716, 0.0085603
0.8515625, -0.2426758, -0.9301758, -38.2926826, -160.1829376, 27.6219521, 0.0099031
0.8417969, -0.2451172, -0.925293, -37.2560997, -159.5731812, 27.8048782, 0.0077211
0.8276367, -0.2480469, -0.9287109, -37.3170738, -160.1829376, 27.8048782, 0.0146029
0.815918, -0.25, -0.9370117, -37.4390259, -160.6707306, 27.4390259, 0.0258488
0.8012695, -0.2607422, -0.9770508, -37.8048782, -162.0731812, 27.0121956, 0.0280308
0.7988281, -0.2719727, -1.015625, -37.5, -162.8048859, 27.2560978, 0.0317235
0.8071289, -0.2753906, -1.0214844, -37.1951218, -163.1097565, 27.5, 0.0253452
0.8334961, -0.2680664, -0.9970703, -35.7926826, -162.9268341, 27.6829281, 0.0199741
0.8417969, -0.2695312, -0.9804688, -35.1829262, -162.1341553, 27.560976, 0.0092317
0.8398438, -0.2675781, -0.9384766, -33.6585388, -160.5487823, 26.5243912, -0.002182
0.8291016, -0.2651367, -0.9233398, -32.9878044, -160.1829376, 25.9146347, -0.0028534
0.7983398, -0.2670898, -0.9140625, -31.9512196, -160.6097565, 24.6341476, -0.0119173
0.7700195, -0.2685547, -0.9213867, -31.6463413, -160.8536682, 23.8414631, -0.0182956
0.7138672, -0.2753906, -0.965332, -30.7317085, -161.646347, 22.6829281, -0.0238346
0.684082, -0.2758789, -0.9951172, -30.3048782, -162.5, 22.7439022, -0.0258488
0.6704102, -0.2661133, -1.0380859, -29.7560978, -164.0853729, 24.2073174, -0.0310521
0.699707, -0.2373047, -1.0253906, -30, -166.0975647, 25.7926826, -0.0293736
0.7246094, -0.222168, -0.9936523, -30.2439022, -166.7073212, 25.9756107, -0.0287022
0.7558594, -0.2094727, -0.9370117, -30.3048782, -166.8292694, 25.6097565, -0.0270237
0.7553711, -0.2192383, -0.9238281, -29.6951218, -166.646347, 25.4878063, -0.0344091
0.7216797, -0.2373047, -0.9643555, -29.0853672, -166.8902435, 25.8536587, -0.0377661
0.6977539, -0.2436523, -1.0029297, -28.5975609, -167.2561035, 26.3414631, -0.0459907
0.6743164, -0.2319336, -1.0678711, -28.2926826, -168.6585388, 27.8658543, -0.0525368
0.6733398, -0.2177734, -1.0864258, -28.5365868, -168.9024506, 28.3536587, -0.051194
0.6992188, -0.2143555, -1.0722656, -29.6341476, -169.5731812, 28.5975609, -0.0515297
0.7207031, -0.2270508, -1.050293, -30.2439022, -169.9390259, 28.3536587, -0.0485084
0.753418, -0.2773438, -1.0004883, -30.7926846, -170.1219482, 28.7195129, -0.0417945
0.7397461, -0.2924805, -0.9658203, -29.0243912, -168.6585388, 28.2926826, -0.0451514
0.7143555, -0.2880859, -0.9692383, -27.3170738, -167.6829376, 27.560976, -0.0468299
0.6435547, -0.2578125, -1.0146484, -24.3902435, -166.1585388, 26.8902454, -0.0453193
0.6196289, -0.25, -1.034668, -24.0853672, -166.7682953, 26.8902454, -0.0501869
0.605957, -0.2651367, -1.0551758, -24.3292694, -169.0243988, 27.0731716, -0.0491798
0.6108398, -0.2773438, -1.0581055, -25.1219521, -169.9390259, 27.0121956, -0.0491798
0.6367188, -0.2924805, -1.0444336, -24.4512196, -170.8536682, 26.7682934, -0.0464942
0.6459961, -0.2895508, -1.0209961, -23.5365868, -170.5487823, 26.6463413, -0.0458228
0.6503906, -0.2836914, -0.9814453, -21.7073174, -170.1829376, 25, -0.0458228
0.6381836, -0.2851562, -0.9692383, -20.5487804, -169.3292694, 24.2682934, -0.0417945
0.6010742, -0.3115234, -0.9863281, -17.6219521, -169.7561035, 24.0853672, -0.0365911
0.5708008, -0.3349609, -1.0039062, -12.9878054, -171.646347, 24.8780499, -0.0251774
0.5649414, -0.3417969, -1.0112305, -10.2439022, -172.86586, 25.2439022, -0.0199741
0.5693359, -0.3173828, -1.0366211, -7.8658538, -173.3536682, 24.8170738, -0.0203098
0.565918, -0.284668, -1.0532227, -6.9512196, -172.7439117, 24.2682934, -0.0172885
0.5488281, -0.2177734, -1.0805664, -7.7439027, -172.6219482, 23.0487804, -0.0243381
0.5488281, -0.2016602, -1.0849609, -8.841464, -173.7195129, 22.439024, -0.0327306
0.5742188, -0.2026367, -1.0708008, -10.5487804, -177.3170776, 23.1707325, -0.0458228
0.5883789, -0.2099609, -1.0576172, -11.6463413, -178.7195129, 23.7195129, -0.0619364
0.6015625, -0.2304688, -1.0180664, -12.1951218, -179.146347, 22.9878063, -0.0782177
0.5791016, -0.2587891, -0.9868164, -11.8292685, -178.2926941, 22.8048782, -0.0929885
0.550293, -0.2768555, -0.987793, -11.0975609, -177.4390259, 21.9512196, -0.0881209
0.4736328, -0.2758789, -1.0405273, -9.7560978, -177.86586, 22.1341476, -0.0619364
0.4384766, -0.2597656, -1.0825195, -8.9024391, -178.7804871, 22.6829281, -0.0162814
0.421875, -0.2099609, -1.1328125, -8.5365858, -181.2195129, 24.2073174, 0.0293736
0.4379883, -0.1860352, -1.1318359, -8.9634151, -182.9268341, 24.5731716, 0.0652934
0.4912109, -0.1728516, -1.0888672, -12.1341467, -184.7561035, 24.2073174, 0.0837568
0.5151367, -0.1826172, -1.065918, -13.4756098, -184.3292694, 23.4146347, 0.0891279
0.5371094, -0.2255859, -1.0380859, -15.4878054, -183.9634247, 22.8658543, 0.0787213
0.5302734, -0.2519531, -1.043457, -15.4878054, -183.5365906, 22.9268303, 0.0555581
0.5043945, -0.3066406, -1.0791016, -12.6219511, -182.3780518, 22.9878063, 0.026688
0.4731445, -0.3349609, -1.1303711, -10.6097565, -181.646347, 23.1707325, 0.0099031
0.4643555, -0.3305664, -1.1572266, -6.8292685, -180.3048859, 23.5365868, -0.0031891
0.4609375, -0.2832031, -1.2089844, -5.2439027, -178.7195129, 23.9634151, -0.0102388
0.472168, -0.25, -1.222168, -5.2439027, -177.5609741, 23.4756107, -0.0182956
0.5029297, -0.1801758, -1.1796875, -7.6829271, -176.7682953, 21.7073174, -0.0270237
0.5141602, -0.1616211, -1.1333008, -9.8780489, -176.4634247, 20.6707325, -0.024506
0.5102539, -0.1650391, -1.0766602, -13.841464, -175.1829376, 18.0487804, -0.0203098
0.4873047, -0.1899414, -1.0766602, -15, -174.2073212, 17.560976, -0.0203098
0.4375, -0.2509766, -1.1186523, -15.9146347, -173.2926941, 18.2317085, -0.0243381
0.4169922, -0.2856445, -1.1376953, -14.9390249, -173.2926941, 18.9634151, -0.0270237
0.4106445, -0.3432617, -1.1459961, -12.4390249, -174.0853729, 20.2439022, -0.0283665
0.4228516, -0.3637695, -1.0927734, -10.4878054, -174.146347, 20, -0.0327306
0.425293, -0.3520508, -1.0600586, -7.6829271, -173.3536682, 19.4512196, -0.0352483
0.4052734, -0.3007812, -1.0224609, -5.1829271, -171.2195129, 17.0121956, -0.0372625
0.3798828, -0.2661133, -1.0253906, -4.4512196, -170.7926941, 15.3658543, -0.036759
0.3276367, -0.2041016, -1.0361328, -4.9390244, -172.3780518, 12.5, -0.0317235
0.2973633, -0.1855469, -1.0473633, -6.5853658, -173.7804871, 11.4024391, -0.0317235
0.2626953, -0.1757812, -1.0786133, -10.7926836, -176.8902435, 11.0365858, -0.0372625
0.2524414, -0.1811523, -1.1025391, -12.560976, -178.1097565, 11.5853662, -0.0372625
0.2758789, -0.1821289, -1.1391602, -15, -180.1829376, 12.5, -0.0441444
0.2983398, -0.1889648, -1.1464844, -15.6097565, -181.3414612, 12.6829271, -0.0491798
0.3554688, -0.2241211, -1.1381836, -17.0731716, -181.9512177, 13.3536587, -0.0527047
0.4116211, -0.2836914, -1.1000977, -17.560976, -181.646347, 13.780488, -0.0535439
0.4282227, -0.309082, -1.0678711, -17.0731716, -179.5731812, 13.841464, -0.0498512
0.3984375, -0.3276367, -1.0322266, -13.5975609, -174.5121918, 11.8292685, -0.0506905
0.3520508, -0.3066406, -1.0419922, -11.4634151, -171.4024506, 10.5487804, -0.0485084
0.2543945, -0.2426758, -1.1162109, -8.3536587, -167.0121918, 9.0243902, -0.0461585
0.2158203, -0.2084961, -1.1518555, -8.4146347, -166.8902435, 8.9024391, -0.0391089
0.1918945, -0.1723633, -1.1479492, -10.1829271, -170.6097565, 9.0853662, -0.0384375
0.2036133, -0.1728516, -1.1113281, -11.5853662, -173.0487823, 9.1463413, -0.0417945
0.2412109, -0.2265625, -1.0107422, -12.9878054, -176.3414612, 8.6585369, -0.0417945
0.2553711, -0.2543945, -0.9858398, -12.0731707, -176.5243988, 8.719512, -0.0381018
0.2392578, -0.2861328, -1.03125, -8.2926826, -173.5975647, 9.0243902, -0.0330663
0.2036133, -0.2514648, -1.15625, -6.0975609, -171.7073212, 9.3292685, -0.0297093
0.1889648, -0.2211914, -1.1928711, -2.9878049, -169.5121918, 10.7926836, -0.0276951
0.2050781, -0.1538086, -1.1855469, -4.8170733, -170.4268341, 11.1585369, -0.0209812
0.2177734, -0.1230469, -1.1474609, -7.0121951, -170.9756165, 10.6097565, -0.0171206
0.2255859, -0.0825195, -1.090332, -13.2926836, -170.9756165, 9.3292685, -0.0169528
0.2182617, -0.0712891, -1.0883789, -16.3414631, -170.4878082, 9.2073174, -0.0159457
0.1894531, -0.0805664, -1.1132812, -21.5243912, -171.0975647, 10.3048782, -0.012253
0.1782227, -0.105957, -1.1152344, -23.5365868, -171.9512177, 11.219512, -0.0092317
0.1704102, -0.1582031, -1.0917969, -25.7926826, -173.4146423, 13.1707315, -0.0095674
0.1660156, -0.1757812, -1.0673828, -26.280489, -173.4146423, 13.780488, -0.0072175
0.1513672, -0.1782227, -1.0341797, -26.8902454, -171.4634247, 14.2682934, -0.0087282
0.1098633, -0.1689453, -0.9960938, -26.8292694, -170, 13.4756098, -0.0109102
0.0859375, -0.1723633, -0.9760742, -27.9268303, -169.7561035, 11.5243902, -0.011078
0.0297852, -0.2060547, -0.9663086, -29.3902454, -172.2561035, 10.8536587, -0.0125887
0.0073242, -0.2202148, -0.9726562, -29.5121956, -173.7195129, 11.0975609, -0.0203098
-0.0244141, -0.2285156, -1.0229492, -29.2682934, -175.4878082, 12.1341467, -0.0213169
-0.0283203, -0.2207031, -1.0493164, -28.5365868, -176.3414612, 12.3780489, -0.0162814
-0.003418, -0.1943359, -1.0634766, -28.1707325, -178.1097565, 12.0731707, -0.012253
0.0175781, -0.1870117, -1.050293, -28.2926826, -179.2682953, 11.4634151, -0.0095674
0.0605469, -0.1894531, -0.9946289, -29.0853672, -180.6707306, 10, -0.0057069
0.0698242, -0.1943359, -0.9926758, -29.3902454, -180.2439117, 9.2073174, -0.0015106
0.0634766, -0.203125, -1.0361328, -29.5731716, -176.3414612, 9.0853662, -0.012253
0.0405273, -0.2265625, -1.0991211, -28.4146347, -174.6341553, 9.7560978, -0.0198062
0.0375977, -0.2299805, -1.1020508, -25.6097565, -173.0487823, 12.3780489, -0.0196384
0.0585938, -0.2158203, -1.0673828, -21.9512196, -173.2317047, 12.9878054, -0.0135958
0.0610352, -0.2011719, -1.0546875, -20.2439022, -172.1341553, 12.7439032, 0.0011749
0.0576172, -0.1474609, -1.0610352, -19.5121956, -167.6219482, 12.0121956, 0.0119173
0.0419922, -0.125, -1.0654297, -20.4268303, -165.5487823, 11.6463413, 0.0139315
0.0097656, -0.1186523, -1.0673828, -23.5975609, -164.2682953, 11.4634151, 0.0065461
0.0009766, -0.1293945, -1.0668945, -25, -165.4878082, 11.5243902, -0.0001678
-0.0205078, -0.1367188, -1.1088867, -28.2926826, -167.86586, 12.8658543, -0.0072175
-0.0292969, -0.1308594, -1.1411133, -29.8780499, -168.1707306, 14.0853662, -0.0152743
-0.0244141, -0.105957, -1.168457, -32.7439041, -168.9634247, 17.8048782, -0.0229953
0.0175781, -0.0893555, -1.128418, -35.8536606, -170.6097565, 19.5121956, -0.0265202
0.0395508, -0.0922852, -1.1035156, -37.3780479, -170.9146423, 19.6951218, -0.0297093
0.0600586, -0.1162109, -1.0693359, -41.0365868, -169.2682953, 20.6097565, -0.0370947
0.0585938, -0.1279297, -1.0546875, -42.7439041, -167.5609741, 20.6707325, -0.0417945
0.0371094, -0.1376953, -1.0214844, -45.1219521, -164.2073212, 20.9146347, -0.0411231
0.0078125, -0.1425781, -1.0014648, -45.6707344, -163.2926941, 20.5487804, -0.0421302
-0.0478516, -0.1645508, -0.9853516, -46.0365868, -161.1585388, 20, -0.0471656
-0.0766602, -0.1796875, -1.003418, -46.5243912, -160.36586, 20.4268303, -0.0438087
-0.112793, -0.2060547, -1.0400391, -47.1341476, -159.3902435, 21.5243912, -0.0471656
-0.1176758, -0.222168, -1.0473633, -47.1951218, -160.0609741, 22.1341476, -0.0464942
-0.105957, -0.237793, -1.0209961, -46.0975609, -161.8902435, 22.6829281, -0.0411231
-0.0805664, -0.2075195, -0.9912109, -44.3292694, -161.8292694, 21.4024391, -0.0431373
-0.074707, -0.1889648, -0.9765625, -44.0243912, -160.36586, 20.3048782, -0.0417945
-0.0795898, -0.1582031, -0.9711914, -44.3292694, -156.7682953, 18.2317085, -0.0354162
-0.0844727, -0.1513672, -0.9741211, -44.6951218, -155.1219482, 17.560976, -0.0387732
-0.0981445, -0.1689453, -0.9936523, -46.8292694, -154.0243988, 17.1341476, -0.0370947
-0.1147461, -0.1816406, -1.0170898, -47.3170738, -153.4756165, 17.0731716, -0.0397803
-0.1357422, -0.1889648, -1.0556641, -47.8658562, -152.4390259, 18.780489, -0.0404517
-0.1401367, -0.1777344, -1.0444336, -47.4390259, -152.1341553, 20.1829281, -0.0431373
-0.1264648, -0.1342773, -0.9560547, -45.7926826, -152.9268341, 20.7317085, -0.0498512
-0.1181641, -0.1191406, -0.9091797, -45.6707344, -153.4146423, 19.7560978, -0.0486763
-0.1342773, -0.1166992, -0.8681641, -46.8292694, -153.4146423, 17.6829281, -0.0448157
-0.1855469, -0.1376953, -0.9101562, -50.5487823, -152.86586, 18.4756107, -0.0404517
-0.2075195, -0.140625, -0.9541016, -52.2560997, -152.5609741, 19.3292694, -0.03122
-0.2333984, -0.1303711, -1.0541992, -54.3292694, -153.1707306, 21.4634151, -0.0253452
-0.2314453, -0.1264648, -1.0820312, -54.6341476, -154.2682953, 22.439024, -0.0186313
-0.1899414, -0.1337891, -1.0615234, -54.9390259, -158.4146423, 24.1463413, -0.0182956
-0.1552734, -0.1416016, -1.0263672, -55, -160.1829376, 24.3292694, -0.0172885
-0.097168, -0.1459961, -0.9492188, -55.8536606, -160.3048859, 24.0243912, -0.0162814
-0.0854492, -0.1328125, -0.9277344, -56.0975609, -157.86586, 23.6585369, -0.0203098
-0.1035156, -0.0830078, -0.9296875, -58.1707344, -149.8170776, 22.7439022, -0.0199741
-0.1225586, -0.0581055, -0.9404297, -59.4512215, -145.7926788, 22.0731716, -0.0182956
-0.1899414, -0.0244141, -0.9501953, -62.6219521, -140.5487823, 21.3414631, -0.0162814
-0.2353516, -0.0527344, -0.9189453, -66.1585388, -140.4268341, 21.4024391, -0.0182956
-0.2485352, -0.0859375, -0.9047852, -67.1951218, -141.4634247, 21.7073174, -0.0135958
-0.2607422, -0.1669922, -0.9033203, -68.1097565, -141.8292694, 22.9268303, -0.0092317
-0.2670898, -0.203125, -0.9150391, -67.8048782, -140.6707306, 23.6585369, 0.0008392
-0.2739258, -0.2470703, -0.9052734, -64.9390259, -137.7439117, 25.2439022, 0.0065461
-0.2666016, -0.253418, -0.8759766, -62.68293, -136.8292694, 25.2439022, 0.0078889
-0.2573242, -0.2285156, -0.7753906, -58.6585388, -136.0975647, 22.560976, 0.0105745
-0.2617188, -0.2041016, -0.7392578, -57.1951218, -135.3048859, 20.7926826, 0.0102388
-0.3129883, -0.1416016, -0.7441406, -55.18293, -131.646347, 17.6829281, 0.0085603
-0.3510742, -0.1225586, -0.7797852, -55.1219521, -129.5121918, 17.3780499, 0.0045319
-0.3945312, -0.0996094, -0.8637695, -56.0975609, -128.2317047, 18.2317085, 0.0038605
-0.3842773, -0.1269531, -0.8959961, -55.8536606, -130.4878082, 19.6341476, 0.0005035
-0.3618164, -0.15625, -0.8764648, -55.2439041, -132.1341553, 19.939024, -0.0065461
-0.2944336, -0.21875, -0.8022461, -52.1951218, -134.146347, 19.8170738, -0.0142672
-0.2651367, -0.2299805, -0.7792969, -50.3658562, -133.2926788, 19.2682934, -0.0182956
-0.265625, -0.1972656, -0.7861328, -47.7439041, -126.8902435, 18.780489, -0.0219883
-0.2788086, -0.159668, -0.7998047, -47.0121956, -122.9268341, 18.780489, -0.0330663
-0.3168945, -0.0776367, -0.8061523, -47.4390259, -117.0731735, 18.5975609, -0.040116
-0.3339844, -0.0405273, -0.8037109, -48.3536606, -116.3414688, 17.8658543, -0.0438087
-0.3632812, -0.0185547, -0.7587891, -52.0121956, -117.7439041, 16.4024391, -0.0431373
-0.3691406, -0.0292969, -0.7207031, -54.3902435, -118.9634171, 16.0365849, -0.0424659
-0.3803711, -0.0737305, -0.6401367, -58.2317085, -121.5853653, 15.6707325, -0.0471656
-0.4125977, -0.1210938, -0.6245117, -59.9390259, -121.646347, 16.0365849, -0.0451514
-0.4375, -0.1264648, -0.6425781, -60.18293, -121.2804871, 16.6463413, -0.043473
-0.4770508, -0.0942383, -0.6977539, -59.7560997, -121.5853653, 18.1707325, -0.0471656
-0.4765625, -0.0683594, -0.7226562, -60.18293, -122.5, 18.5365849, -0.0451514
-0.4677734, -0.0390625, -0.7612305, -61.7073174, -125.1219559, 18.1707325, -0.04448
-0.4462891, -0.0512695, -0.7646484, -62.9878082, -126.4634171, 17.9878044, -0.0411231
-0.3945312, -0.1049805, -0.7216797, -65.7926865, -129.0853729, 18.1097565, -0.0414588
-0.3666992, -0.1303711, -0.6826172, -66.6463394, -129.6951294, 17.9878044, -0.040116
-0.3310547, -0.1557617, -0.6186523, -66.0975647, -127.0731735, 16.8292694, -0.0461585
-0.3369141, -0.1538086, -0.6025391, -64.8780518, -124.0243912, 15.7926836, -0.0495155
-0.3911133, -0.1220703, -0.6298828, -63.1707344, -116.7073212, 14.7560978, -0.0505226
-0.4609375, -0.0820312, -0.6914062, -61.7682953, -112.5609818, 14.6951227, -0.04448
-0.4848633, -0.0712891, -0.7133789, -61.6463432, -111.8292694, 15, -0.0475013
-0.5048828, -0.0864258, -0.7041016, -62.68293, -113.8414688, 15.4878054, -0.051194
-0.4975586, -0.1074219, -0.6801758, -62.4390259, -115.2439041, 15.8536587, -0.0516976
-0.46875, -0.1313477, -0.6523438, -61.8902435, -116.1585388, 15.3048782, -0.0419623
-0.4614258, -0.1328125, -0.6733398, -61.2195129, -114.7561035, 14.6341467, -0.0344091
-0.4511719, -0.1391602, -0.7456055, -60.3048782, -110.3048782, 13.9024391, -0.0260166
-0.4477539, -0.1420898, -0.753418, -59.6341476, -108.5365906, 13.9634151, -0.0219883
-0.4213867, -0.1533203, -0.6777344, -57.6219521, -107.4390259, 13.3536587, -0.023331
-0.40625, -0.15625, -0.6313477, -56.5243912, -106.646347, 12.2560978, -0.0162814
-0.4199219, -0.140625, -0.5981445, -53.4146347, -101.8292694, 10.6707315, -0.0152743
-0.4775391, -0.0976562, -0.6386719, -51.341465, -94.6951218, 10.4878054, -0.0070497
-0.4970703, -0.0693359, -0.652832, -50.6097565, -92.1951218, 10.9756098, -0.005539
-0.527832, -0.03125, -0.6035156, -51.1585388, -90.3658524, 10.4268293, -0.0062104
-0.5351562, -0.0444336, -0.5488281, -52.1341476, -90.8536606, 9.1463413, -0.0041962
-0.5454102, -0.1074219, -0.4462891, -55.0609779, -93.7195129, 6.7682929, -0.0031891
-0.5571289, -0.1503906, -0.4291992, -56.0365868, -95.18293, 5.9146342, -0.0045319
-0.597168, -0.1870117, -0.5, -55.2439041, -96.4634171, 6.4024391, -0.0041962
-0.6191406, -0.1689453, -0.565918, -53.5975609, -97.3780518, 7.2560978, -0.0099031
-0.6293945, -0.097168, -0.7075195, -50.6097565, -99.5121994, 8.6585369, -0.0105745
-0.605957, -0.0546875, -0.7446289, -49.8170738, -101.0975647, 8.780488, -0.012253
-0.5283203, -0.0185547, -0.7119141, -51.5853653, -102.7439041, 8.5365858, -0.0082246
-0.4379883, -0.0576172, -0.5839844, -54.6341476, -101.8292694, 7.3780489, -0.005539
-0.4160156, -0.0839844, -0.5268555, -55.3658562, -99.3902435, 6.3414636, 0.0015106
-0.4306641, -0.1181641, -0.4946289, -54.2073174, -92.6219559, 5.3658538, 0.0132601
-0.4677734, -0.1152344, -0.5253906, -53.1707344, -88.5975647, 5.4878049, 0.0206455
-0.5541992, -0.0678711, -0.625, -50.9146347, -84.2073212, 6.4634147, 0.0125887
-0.5878906, -0.0390625, -0.6713867, -50.9756126, -83.9024429, 7.3170733, -0.0001678
-0.6069336, -0.0292969, -0.6977539, -51.5243912, -87.2560959, 9.0243902, -0.0102388
-0.5913086, -0.0439453, -0.6743164, -51.8292694, -89.5731735, 9.5731707, -0.0213169
-0.5292969, -0.0917969, -0.6088867, -51.5243912, -91.5853653, 9.6951218, -0.0337377
-0.5039062, -0.1049805, -0.5751953, -51.1585388, -90.2439041, 9.3902445, -0.0528725
-0.4882812, -0.1064453, -0.5410156, -49.4512215, -84.5121994, 7.6829271, -0.061265
-0.5107422, -0.1044922, -0.5273438, -47.1951218, -79.0243912, 6.1585369, -0.0565652
-0.5327148, -0.1030273, -0.5239258, -46.7073174, -77.4390259, 5.670732, -0.0275273
-0.581543, -0.0830078, -0.5283203, -45.3048782, -76.2804871, 5.4268293, 0.0125887
-0.6049805, -0.0693359, -0.5410156, -44.6951218, -76.1585388, 5.5487804, 0.043473
-0.6328125, -0.050293, -0.5629883, -43.4756126, -76.2804871, 6.0365853, 0.0626078
-0.6347656, -0.0498047, -0.5693359, -43.2317085, -76.7073212, 6.280488, 0.0649577
-0.6152344, -0.050293, -0.6005859, -44.3292694, -77.5, 6.0365853, 0.0498512
-0.6064453, -0.0449219, -0.6166992, -45.2439041, -77.1951218, 5.7317076, 0.0280308
-0.5771484, -0.0429688, -0.6166992, -47.0731735, -76.9512177, 5.3658538, 0.0124208
-0.5429688, -0.0688477, -0.5595703, -47.4390259, -76.4634171, 5.4268293, -0.0008392
-0.5249023, -0.0805664, -0.5249023, -47.0731735, -74.5731735, 4.5121951, -0.0142672
-0.5253906, -0.0795898, -0.4995117, -45.6707344, -70, 3.0487804, -0.0260166
-0.5424805, -0.0664062, -0.5087891, -45.3048782, -66.8292694, 2.9268293, -0.0310521
-0.6074219, -0.0200195, -0.5268555, -45.2439041, -61.8292694, 2.2560976, -0.0330663
-0.6357422, -0.0078125, -0.5136719, -45.7317085, -60.7926826, 2.5, -0.0387732
-0.6699219, -0.0175781, -0.4555664, -45.9146347, -61.9512215, 2.3170731, -0.0458228
-0.6831055, -0.0292969, -0.4204102, -46.0975609, -62.8048782, 2.5, -0.0471656
-0.7055664, -0.0546875, -0.3745117, -46.341465, -63.7195129, 2.1341465, -0.043473
-0.7143555, -0.065918, -0.3657227, -46.0975609, -63.9634171, 2.1341465, -0.0364233
-0.7353516, -0.0605469, -0.402832, -45, -64.6341476, 1.4634147, -0.0317235
-0.7387695, -0.0581055, -0.4926758, -44.4512215, -65.2439041, 1.2804878, -0.0276951
-0.7338867, -0.0600586, -0.5268555, -43.4756126, -67.4390259, 1.9512196, -0.0253452
-0.6884766, -0.0761719, -0.5297852, -42.1341476, -69.2073212, 2.804878, -0.0223239
-0.6577148, -0.0810547, -0.4990234, -40.7317085, -69.0853653, 2.9878049, -0.0238346
-0.6054688, -0.0849609, -0.4111328, -36.341465, -64.6951218, 2.4390244, -0.0243381
-0.6044922, -0.081543, -0.3823242, -33.9634171, -60.8536606, 1.5853659, -0.0256809
-0.6352539, -0.0712891, -0.3618164, -29.7560978, -53.2317085, 0.9756098, -0.023331
-0.6635742, -0.0600586, -0.3759766, -28.2926826, -50.5487823, 1.0365853, -0.0229953
-0.7270508, -0.0185547, -0.425293, -26.7682934, -48.7804871, 1.402439, -0.0229953
-0.7495117, 0.0063477, -0.4526367, -26.5853672, -48.7195129, 1.5853659, -0.0260166
-0.769043, 0.0390625, -0.5146484, -28.2926826, -49.6951218, 1.3414634, -0.0209812
-0.7480469, 0.0268555, -0.5161133, -29.6341476, -50.7926826, 1.5853659, -0.0213169
-0.7207031, 0.0136719, -0.4848633, -31.280489, -52.9268303, 2.195122, -0.0229953
-0.6621094, -0.0292969, -0.4155273, -30.3658543, -52.3780518, 2.3170731, -0.0203098
-0.6386719, -0.0483398, -0.3950195, -29.3292694, -50.5487823, 2.3170731, -0.0229953
-0.6328125, -0.0585938, -0.3969727, -27.0121956, -44.2073174, 1.8292683, -0.0256809
-0.6445312, -0.0493164, -0.4013672, -26.3414631, -41.1585388, 1.4634147, -0.0273594
-0.6850586, -0.0205078, -0.4047852, -25.6097565, -36.7682953, 0.7926829, -0.0263523
-0.7089844, -0.0004883, -0.4052734, -26.0975609, -35.8536606, 0.4268293, -0.0270237
-0.7504883, 0.0185547, -0.4238281, -28.1707325, -35.7926826, -0.2439024, -0.0258488
-0.7661133, 0.0117188, -0.4331055, -29.3292694, -36.4024391, 0, -0.0271916
-0.7592773, -0.0263672, -0.4311523, -30.4268303, -39.2073174, 0.5487805, -0.0323949
-0.7192383, -0.0551758, -0.4516602, -30.1219521, -39.9390259, 0.9146342, -0.0370947
-0.7045898, -0.0595703, -0.4624023, -29.3902454, -39.2073174, 0.6097561, -0.0339055
-0.6835938, -0.0615234, -0.4575195, -28.1097565, -35.4878044, 0, -0.0297093
-0.6704102, -0.0620117, -0.4257812, -27.0121956, -33.7804871, -0.2439024, -0.0285344
-0.6630859, -0.0576172, -0.3486328, -24.0853672, -29.8170738, -0.9756098, -0.0283665
-0.6674805, -0.0493164, -0.3251953, -22.3780499, -27.3780499, -1.402439, -0.0318914
-0.7089844, -0.0395508, -0.315918, -20.060976, -22.8048782, -2.5609756, -0.0290379
-0.7402344, -0.0439453, -0.3261719, -18.9634151, -21.2195129, -2.6829269, -0.023331
-0.7836914, -0.0507812, -0.3339844, -17.439024, -21.7682934, -3.1707318, -0.0186313
-0.7963867, -0.0556641, -0.3388672, -17.0121956, -22.9268303, -3.5365853, -0.0125887
-0.7998047, -0.0517578, -0.3774414, -16.0365849, -24.3902435, -4.0243902, -0.0125887
-0.7929688, -0.0288086, -0.4506836, -15.7317076, -24.8780499, -3.9634147, -0.0125887
-0.7685547, -0.0131836, -0.4648438, -15.1829271, -25.5487804, -2.6829269, -0.0132601
-0.7026367, 0.0239258, -0.4365234, -14.6951227, -25.2439022, -2.9268293, -0.0112459
-0.6762695, 0.03125, -0.4106445, -14.6341467, -23.7195129, -3.4146342, -0.0162814
-0.6499023, 0.0356445, -0.3803711, -15.2439032, -18.5365849, -4.4512196, -0.0206455
-0.6591797, 0.0288086, -0.3950195, -15.4878054, -15.3658543, -3.9634147, -0.0256809
-0.6845703, 0.0141602, -0.4208984, -15.7317076, -11.7073174, -1.8292683, -0.0293736
-0.6914062, 0.0009766, -0.4169922, -15.060976, -10.9146347, -0.9146342, -0.0344091
-0.6948242, -0.0004883, -0.3974609, -12.8048782, -9.8780489, 0.1219512, -0.030045
-0.6918945, -0.0063477, -0.3916016, -11.5243902, -8.9634151, 0.1829268, -0.0236667
-0.6992188, -0.0249023, -0.3989258, -10.6097565, -6.2195125, 0.3048781, -0.0162814
-0.7011719, -0.0419922, -0.4121094, -9.8170738, -5.1829271, 0.6707317, -0.012253
-0.7021484, -0.0473633, -0.4194336, -9.3902445, -4.2073174, 1.1585366, -0.0142672
-0.6928711, -0.0371094, -0.4370117, -8.0487804, -3.7195122, 0.5487805, -0.0162814
-0.6904297, -0.0273438, -0.440918, -7.5609756, -2.6219513, -0.0609756, -0.0176242
-0.6767578, -0.015625, -0.4248047, -7.0731707, -0.0609756, -0.6097561, -0.017792
-0.6728516, -0.0151367, -0.4116211, -6.9512196, 1.2804878, -0.9146342, -0.0203098
-0.6694336, -0.0214844, -0.3671875, -5.609756, 4.1463413, -1.5853659, -0.018967
-0.6728516, -0.0263672, -0.3554688, -5.3048782, 5.4878049, -1.8292683, -0.0203098
-0.6894531, -0.0302734, -0.3540039, -3.9634147, 8.2926826, -2.4390244, -0.0199741
-0.6962891, -0.0268555, -0.3613281, -3.2317073, 9.2682924, -2.4390244, -0.0219883
-0.7124023, -0.0332031, -0.3730469, -1.5853659, 9.7560978, -3.0487804, -0.0229953
-0.7060547, -0.0336914, -0.4135742, -1.0365853, 9.5121956, -2.804878, -0.0193027
-0.6967773, -0.0268555, -0.4345703, 0.3048781, 9.8170738, -2.1341465, -0.0182956
-0.6791992, -0.0043945, -0.4677734, 1.2195122, 11.4634151, -1.5243902, -0.0226596
-0.6694336, 0.0117188, -0.4667969, 1.5243902, 12.8048782, -1.1585366, -0.0273594
-0.6416016, 0.0292969, -0.4458008, 2.5, 15.7317076, -1.5853659, -0.0265202
-0.6313477, 0.0292969, -0.4282227, 2.7439024, 17.6219521, -1.097561, -0.0285344
-0.6279297, 0.0058594, -0.3916016, 3.6585367, 22.1951218, -0.5487805, -0.0337377
-0.6313477, -0.0087891, -0.3925781, 4.2682929, 24.3292694, -0.6097561, -0.0337377
-0.6503906, -0.03125, -0.4111328, 5.2439027, 27.9268303, -0.6707317, -0.0357519
-0.6640625, -0.043457, -0.4306641, 5.670732, 29.0853672, -0.3658537, -0.0458228
-0.6796875, -0.0668945, -0.4624023, 8.0487804, 29.4512196, 0.4268293, -0.051194
-0.6704102, -0.0639648, -0.4736328, 10.4268293, 29.0853672, 0.1219512, -0.057908
-0.6616211, -0.0522461, -0.4775391, 11.0365858, 29.2682934, 0, -0.0565652
-0.6523438, -0.0068359, -0.496582, 10.7926836, 32.0121956, -1.3414634, -0.0515297
-0.6484375, 0.0170898, -0.5053711, 9.8780489, 33.1097565, -1.5853659, -0.0453193
-0.6381836, 0.0473633, -0.5141602, 7.9268293, 35.3658562, -1.8902439, -0.0451514
-0.6367188, 0.0463867, -0.5195312, 6.9512196, 36.2195129, -1.9512196, -0.0454871
-0.6225586, 0.0268555, -0.5185547, 5.609756, 37.5, -1.7073171, -0.0466621
-0.6137695, 0.012207, -0.5112305, 5.3658538, 38.7195129, -1.0365853, -0.0406195
-0.5986328, -0.019043, -0.4780273, 5.9146342, 41.4024391, 0.0609756, -0.03122
-0.5957031, -0.0244141, -0.4521484, 6.6463418, 43.1707344, 0.4268293, -0.0229953
-0.6049805, -0.0200195, -0.4155273, 8.5365858, 46.6463432, -0.3048781, -0.01561
-0.6333008, -0.0097656, -0.4130859, 10.1219511, 49.8170738, -0.7926829, -0.012253
-0.6479492, -0.0068359, -0.4311523, 9.9390249, 50.6097565, -0.9756098, -0.0135958
-0.6767578, 0.0004883, -0.4614258, 9.5731707, 50.9756126, -1.2804878, -0.0159457
-0.6791992, 0.0019531, -0.4716797, 8.9634151, 50.3658562, -1.4634147, -0.0149386
-0.6694336, -0.0063477, -0.4765625, 9.4512196, 48.4146347, -1.5853659, -0.0169528
-0.6523438, -0.0136719, -0.4785156, 9.4512196, 47.8048782, -1.9512196, -0.0250095
-0.6201172, -0.0268555, -0.5083008, 9.8780489, 48.2317085, -2.4390244, -0.0276951
-0.6098633, -0.0307617, -0.5375977, 9.9390249, 49.3902435, -2.6829269, -0.030045
-0.5834961, -0.0375977, -0.5864258, 10.3048782, 52.1341476, -1.9512196, -0.0290379
-0.5708008, -0.034668, -0.5942383, 11.0365858, 53.1097565, -1.5243902, -0.0297093
-0.5429688, -0.0170898, -0.5717773, 13.3536587, 55.6097565, -0.6097561, -0.0313878
-0.5239258, 0.0004883, -0.5224609, 15.9756098, 60.5487823, -0.2439024, -0.03122
-0.5258789, 0.0117188, -0.5209961, 16.8292694, 64.4512177, -1.0365853, -0.0310521
-0.5576172, 0.0087891, -0.5419922, 16.9512196, 71.5853653, -0.8536586, -0.0310521
-0.5805664, 0.0029297, -0.5566406, 16.4634151, 74.0243912, -0.4878049, -0.0297093
-0.6142578, -0.0200195, -0.5532227, 15.7317076, 75.4268341, 0.6707317, -0.0231632
-0.6206055, -0.0351562, -0.5405273, 16.0365849, 74.7560959, 0.6707317, -0.0270237
-0.6206055, -0.046875, -0.5439453, 17.3780499, 74.1463394, 0.7317073, -0.0313878
-0.6162109, -0.0507812, -0.5625, 17.8658543, 74.4512177, 0.3658537, -0.0364233
-0.6118164, -0.0532227, -0.6049805, 19.0853672, 75.9146347, 0.2439024, -0.0414588
-0.6044922, -0.0527344, -0.6088867, 19.4512196, 76.4024429, 0.4878049, -0.0451514
-0.5771484, -0.0410156, -0.5947266, 20.9756107, 76.5853653, 0.6707317, -0.0491798
-0.5537109, -0.019043, -0.5732422, 22.3170738, 78.4146347, 0, -0.04448
-0.5517578, -0.0097656, -0.5708008, 22.3780499, 79.8780518, -0.3658537, -0.0397803
-0.5522461, 0.0102539, -0.5898438, 21.280489, 84.146347, -0.7926829, -0.0337377
-0.5561523, 0.0112305, -0.6015625, 20.4268303, 86.0365906, -1.0365853, -0.0303807
-0.5673828, 0.0078125, -0.612793, 18.4756107, 86.8902435, -1.5243902, -0.0176242
-0.5654297, -0.0043945, -0.597168, 17.8658543, 86.7682953, -1.4634147, -0.0001678
-0.5639648, -0.03125, -0.5576172, 17.5, 86.1585388, -2.0731707, 0.0075532
-0.5615234, -0.0366211, -0.543457, 17.439024, 86.646347, -2.7439024, -0.0018463
-0.5605469, -0.0366211, -0.5429688, 17.3780499, 88.5975647, -3.1707318, -0.0043641
-0.5654297, -0.0268555, -0.5664062, 17.1951218, 90.3048782, -3.6585367, 0.0045319
-0.5791016, -0.0087891, -0.6152344, 16.2195129, 92.4390259, -4.4512196, 0.0109102
-0.5898438, -0.0175781, -0.6411133, 14.3902445, 92.0731735, -5, 0.0203098
-0.5805664, -0.0205078, -0.6411133, 13.7195129, 91.1585388, -5.1219511, 0.023331
-0.5585938, -0.046875, -0.6166992, 13.5365858, 89.5731735, -5.0609756, 0.0213169
-0.5424805, -0.0537109, -0.5996094, 13.6585369, 89.6341476, -5.2439027, 0.0199741
-0.5253906, -0.050293, -0.5688477, 14.8170738, 92.1951218, -6.1585369, 0.0112459
-0.5253906, -0.0483398, -0.5620117, 15.3658543, 94.3292694, -6.6463418, 0.0062104
-0.5380859, -0.0478516, -0.5908203, 16.7073174, 98.7195129, -8.1097565, 0.0011749
-0.5483398, -0.0546875, -0.6323242, 16.7073174, 100.6707306, -8.3536587, -0.0082246
-0.5576172, -0.0756836, -0.7299805, 16.8292694, 101.0365906, -7.3780489, -0.01561
-0.5546875, -0.0932617, -0.7646484, 17.0731716, 99.8170776, -5.4878049, -0.0280308
-0.4995117, -0.1181641, -0.7758789, 20.6707325, 96.7073212, -1.9512196, -0.0428016
-0.434082, -0.0927734, -0.7416992, 26.1585369, 99.2073212, -0.4878049, -0.0599222
-0.4116211, -0.065918, -0.7250977, 28.2926826, 103.6585388, -1.1585366, -0.0688182
-0.4116211, -0.0146484, -0.7109375, 30.060976, 115.4268341, -3.4756098, -0.0713359
-0.4238281, -0.0073242, -0.7114258, 29.7560978, 120, -4.2682929, -0.0505226
-0.4643555, -0.015625, -0.7026367, 26.8902454, 124.4512253, -4.7560978, 0.0005035
-0.4824219, -0.0229492, -0.703125, 25.3658543, 124.0853653, -5.0609756, 0.0481727
-0.5166016, -0.0410156, -0.7246094, 23.5365868, 123.1097565, -4.8780489, 0.0911421
-0.5268555, -0.0493164, -0.7460938, 23.1097565, 123.1097565, -4.9390244, 0.1176623
-0.5371094, -0.0649414, -0.7763672, 22.3170738, 122.3780518, -4.9390244, 0.1178302
-0.5273438, -0.0742188, -0.7749023, 22.1951218, 121.8292694, -4.6341462, 0.1037308
-0.4985352, -0.0585938, -0.777832, 21.7073174, 120.2439041, -3.8414636, 0.0783856
-0.4716797, -0.0205078, -0.7802734, 19.5121956, 121.3414688, -4.6341462, 0.0532082
-0.4658203, 0.0004883, -0.7768555, 17.9878044, 122.7439041, -4.9390244, 0.0340734
-0.4575195, 0.0268555, -0.7480469, 14.5121956, 125.9146347, -6.0365853, 0.0213169
-0.4521484, 0.0214844, -0.7241211, 12.9268293, 126.646347, -6.5853658, 0.0085603
-0.4536133, -0.0136719, -0.6826172, 9.2682924, 126.7682953, -7.2560978, -0.0015106
-0.4589844, -0.0366211, -0.6611328, 8.5975609, 126.8292694, -7.6829271, -0.0117494
-0.484375, -0.0883789, -0.6328125, 8.1707315, 126.4024429, -8.5365858, -0.0203098
-0.4907227, -0.1118164, -0.6259766, 8.3536587, 126.2195129, -9.1463413, -0.0260166
-0.5117188, -0.1420898, -0.6435547, 10.060976, 125.3048782, -10.6097565, -0.0340734
-0.519043, -0.1479492, -0.6582031, 10.9756098, 124.3292694, -11.280488, -0.0428016
-0.5317383, -0.1523438, -0.6479492, 13.2926836, 120.4268341, -13.1097565, -0.051194
-0.515625, -0.1523438, -0.5942383, 16.1585369, 115.3048782, -16.7073174, -0.0491798
-0.5117188, -0.1557617, -0.574707, 17.9268303, 113.2926865, -18.5365849, -0.0501869
-0.5068359, -0.1445312, -0.5888672, 20.8536587, 111.7682953, -22.0731716, -0.0533761
-0.5146484, -0.1333008, -0.6245117, 21.8292694, 111.5853653, -23.5975609, -0.0498512
-0.5185547, -0.1181641, -0.7036133, 22.439024, 111.0975647, -25.4268303, -0.0538796
-0.5092773, -0.1162109, -0.7294922, 22.6829281, 109.4512253, -26.280489, -0.057908
-0.4741211, -0.112793, -0.7641602, 23.780489, 104.6951218, -27.1951218, -0.0636149
-0.4511719, -0.112793, -0.7983398, 24.1463413, 102.2561035, -27.0121956, -0.0706645
-0.409668, -0.1044922, -0.9042969, 23.4756107, 101.4024429, -25.060976, -0.0721752
-0.3896484, -0.09375, -0.9487305, 22.3170738, 102.8048782, -22.9878063, -0.0753643
-0.3422852, -0.0581055, -0.9609375, 20.3658543, 106.4634171, -17.7439022, -0.0867781
-0.2910156, -0.0180664, -0.8813477, 20.2439022, 111.0365906, -15.1829271, -0.0970169
-0.2744141, -0.0063477, -0.8378906, 20.6097565, 114.146347, -14.9390249, -0.1015488
-0.2744141, -0.0136719, -0.8081055, 21.4024391, 121.1585388, -15.4878054, -0.1012131
-0.2905273, -0.027832, -0.8154297, 20.6707325, 124.3292694, -15.9756098, -0.093492
-0.3334961, -0.0737305, -0.8491211, 18.2926826, 127.4390259, -15.2439032, -0.0847639
-0.3447266, -0.105957, -0.8730469, 16.5853653, 126.3414688, -14.5731707, -0.0740215
-0.3530273, -0.1469727, -0.934082, 13.841464, 122.4390259, -13.3536587, -0.0673075
-0.3486328, -0.1572266, -0.9619141, 12.9878054, 120.36586, -12.560976, -0.0679789
-0.3154297, -0.1503906, -0.9785156, 11.9512196, 118.2317123, -11.5243902, -0.0609293
-0.2675781, -0.0976562, -0.9418945, 11.7682934, 118.3536606, -11.280488, -0.0501869
-0.2416992, -0.0595703, -0.9101562, 11.0365858, 120.6097565, -11.7682934, -0.0381018
-0.2099609, -0.0151367, -0.8520508, 9.4512196, 125.36586, -13.5365858, -0.0287022
-0.2119141, -0.0102539, -0.8193359, 7.8658538, 127.0121994, -14.3902445, -0.0203098
-0.2329102, -0.050293, -0.7548828, 4.5121951, 127.0731735, -15.4878054, -0.0162814
-0.246582, -0.0883789, -0.7319336, 2.7439024, 126.1585388, -16.280489, -0.0169528
-0.2998047, -0.15625, -0.7338867, 0.7926829, 123.5975647, -17.2560978, -0.0095674
-0.324707, -0.184082, -0.7514648, 0.9756098, 122.5609818, -17.6219521, -0.0043641
-0.375, -0.2163086, -0.7890625, 3.0487804, 121.2804871, -18.3536587, -0.0041962
-0.3847656, -0.2270508, -0.7939453, 5.2439027, 120.1219559, -18.5975609, -0.0018463
-0.3759766, -0.2338867, -0.7885742, 10.3048782, 117.4390259, -19.2682934, -0.0025177
-0.3310547, -0.2348633, -0.7998047, 13.3536587, 116.0975647, -20.1219521, -0.0041962
-0.3046875, -0.2431641, -0.8168945, 17.9268303, 114.6341476, -21.4634151, -0.0008392
-0.2412109, -0.2724609, -0.8535156, 20.8536587, 115.0609818, -23.5975609, 0.0003357
-0.2060547, -0.2958984, -0.8857422, 22.1951218, 115.4878082, -24.7560978, 0.0008392
-0.1552734, -0.315918, -1.012207, 24.7560978, 118.0487823, -25.5487804, -0.0015106
-0.1342773, -0.3012695, -1.1000977, 25.9146347, 121.0975647, -25.3658543, -0.002182
-0.0991211, -0.2192383, -1.2348633, 26.8902454, 130.2439117, -22.6219521, -0.0041962
-0.0761719, -0.1650391, -1.2480469, 27.1951218, 134.5121918, -21.1585369, -0.0102388
-0.0063477, -0.0766602, -1.1298828, 27.560976, 140.6097565, -19.8170738, -0.0072175
0.0317383, -0.0605469, -1.0229492, 28.1707325, 142.0121918, -20.3048782, -0.0112459
0.0625, -0.0908203, -0.8271484, 28.9634151, 145.3048859, -21.9512196, -0.0078889
-0.0039062, -0.1567383, -0.8237305, 28.5975609, 147.6829376, -22.5, -0.005539
-0.0727539, -0.1787109, -0.8964844, 26.1585369, 154.6341553, -23.1097565, -0.0073854
-0.215332, -0.190918, -1.0839844, 21.280489, 157.7439117, -21.5853672, -0.0075532
-0.2714844, -0.1782227, -1.1552734, 18.4756107, 156.0975647, -20.8536587, -0.012253
-0.293457, -0.1396484, -1.1748047, 12.9268293, 146.8902435, -19.0243912, -0.0199741
-0.2607422, -0.1264648, -1.1098633, 10.6707315, 140.8536682, -19.2073174, -0.0240024
-0.1445312, -0.1240234, -0.9199219, 7.8658538, 129.8170776, -21.7682934, -0.0229953
-0.090332, -0.1430664, -0.8349609, 7.1341467, 126.1585388, -23.5975609, -0.0246738
-0.0390625, -0.1904297, -0.7680664, 5.4878049, 125.4268341, -26.7073174, -0.0229953
-0.0493164, -0.2026367, -0.7949219, 4.6951222, 127.5, -27.8048782, -0.01561
-0.109375, -0.2124023, -0.9116211, 2.5609756, 130.4878082, -28.5365868, -0.0146029
-0.1572266, -0.2050781, -1.0073242, 1.7073171, 130.6097565, -28.2317085, -0.0135958
-0.1625977, -0.206543, -1.0234375, 0.5487805, 125.7317123, -27.6829281, -0.0109102
-0.1206055, -0.2241211, -1.0009766, 0.9146342, 117.86586, -27.2560978, -0.0048676
-0.081543, -0.2290039, -0.9833984, 1.9512196, 115.36586, -26.8902454, -0.0068818
-0.0161133, -0.222168, -0.9838867, 3.3536587, 116.2195129, -26.5853672, -0.0010071
0.0058594, -0.2021484, -1.0009766, 3.4146342, 119.5731735, -26.8292694, -0.0001678
0.03125, -0.1337891, -1.0410156, 1.8292683, 128.9024353, -26.9512196, 0.008896
0.0332031, -0.1005859, -1.0541992, 0.8536586, 133.1097565, -27.6829281, 0.012253
0.0327148, -0.0810547, -1.0639648, -0.6097561, 137.9268341, -29.2682934, 0.0082246
0.0405273, -0.1015625, -1.0791016, -0.4878049, 138.9024353, -29.2073174, 0.0162814
0.0751953, -0.203125, -1.1289062, 1.5853659, 139.5121918, -26.9512196, 0.0253452
0.1137695, -0.3208008, -1.1484375, 3.2926829, 140.1219482, -24.6341476, 0.0260166
0.1342773, -0.3647461, -1.1191406, 8.5975609, 143.0487823, -20.1219521, 0.0240024
0.1689453, -0.3823242, -1.0083008, 16.8902435, 150.4878082, -18.6585369, 0.0193027
0.1674805, -0.3730469, -0.940918, 21.4024391, 155, -19.4512196, 0.0125887
0.1220703, -0.3383789, -0.855957, 30.1219521, 162.2561035, -24.0243912, 0.0119173
0.0800781, -0.3129883, -0.8681641, 33.1707306, 164.5731812, -26.5243912, 0.0015106
-0.0170898, -0.2480469, -1.0268555, 33.5975609, 167.86586, -30.3048782, -0.0149386
-0.0629883, -0.2089844, -1.1293945, 31.4634151, 168.7195129, -31.0365868, -0.0152743
-0.0893555, -0.1469727, -1.2338867, 24.6341476, 164.9390259, -30.9146347, -0.0149386
-0.0585938, -0.1308594, -1.2080078, 21.5853672, 159.8780518, -30.4878063, -0.0102388
0.0683594, -0.1386719, -1.0400391, 18.2926826, 147.0731812, -29.6951218, -0.0035248
0.2089844, -0.159668, -0.8925781, 17.9878044, 143.2317047, -29.6341476, -0.0016785
0.2431641, -0.1567383, -0.8818359, 18.7195129, 146.1585388, -30.3048782, -0.0011749
0.2387695, -0.1083984, -0.9941406, 17.3170738, 158.9634247, -30.4878063, -0.0068818
0.2045898, -0.0708008, -1.0844727, 14.5121956, 165.2439117, -30.2439022, -0.0082246
0.1264648, 0.003418, -1.203125, 5.7926831, 167.86586, -29.0853672, -0.0015106
0.105957, 0.027832, -1.2050781, 0.6707317, 164.4512177, -28.1097565, 0.0072175
0.1396484, 0.0180664, -1.1088867, -8.9634151, 151.8902435, -26.4024391, 0.0159457
0.1733398, -0.0131836, -1.0419922, -12.9878054, 145.9756165, -25.4878063, 0.0303807
0.2373047, -0.0869141, -0.953125, -18.9024391, 140.7926788, -25.3048782, 0.0354162
0.2583008, -0.1333008, -0.9433594, -20.7926826, 141.2195129, -25.6707325, 0.0421302
0.2602539, -0.237793, -0.9770508, -21.8902435, 144.2682953, -27.0731716, 0.0454871
0.2314453, -0.3515625, -1.0068359, -21.0975609, 144.3902435, -26.9512196, 0.0386053
0.2236328, -0.3959961, -1.003418, -17.0731716, 141.0365906, -26.2195129, 0.0271916
0.2226562, -0.4291992, -0.9731445, -10.2439022, 137.1951294, -24.1463413, 0.0119173
0.2265625, -0.4199219, -0.9594727, -5.7926831, 137.5, -23.2317085, -0.0015106
0.2314453, -0.371582, -0.9628906, 3.4756098, 140.9146423, -22.6219521, -0.0223239
0.2329102, -0.3344727, -0.9726562, 7.0731707, 142.9268341, -23.5365868, -0.0417945
0.2163086, -0.2548828, -0.9990234, 11.219512, 144.6341553, -26.0365868, -0.0508583
0.2133789, -0.2143555, -1.0048828, 11.5243902, 144.146347, -27.5, -0.0679789
0.2084961, -0.1586914, -1.0083008, 10.3658543, 142.9268341, -30.060976, -0.0908064
0.2172852, -0.1489258, -0.9951172, 10, 142.0731812, -30.6707325, -0.1052415
0.2402344, -0.1708984, -0.96875, 10.7926836, 139.9390259, -30.3048782, -0.1198444
0.2895508, -0.2280273, -1.0048828, 13.7195129, 138.6585388, -28.4756107, -0.1210193
0.3129883, -0.2587891, -1.0644531, 14.8780489, 139.0853729, -27.8048782, -0.0981918
0.3691406, -0.2875977, -1.2290039, 15.5487804, 142.1341553, -25.7317085, -0.0569009
0.3964844, -0.2890625, -1.309082, 15, 144.0243988, -24.8780499, -0.0109102
0.4477539, -0.2470703, -1.3759766, 12.6219511, 147.3780518, -23.1097565, 0.0253452
0.4770508, -0.2128906, -1.3574219, 11.341464, 148.9024353, -21.8292694, 0.0453193
0.550293, -0.1318359, -1.2504883, 10, 152.4390259, -19.8170738, 0.0454871
0.5756836, -0.0966797, -1.1962891, 10.4878054, 155.2439117, -19.5121956, 0.0411231
0.5957031, -0.0644531, -1.1298828, 10.7926836, 163.3536682, -19.7560978, 0.0206455
0.581543, -0.0786133, -1.1264648, 10, 167.2561035, -20.6097565, -0.0085603
0.512207, -0.1489258, -1.159668, 6.7682929, 171.2195129, -21.1585369, -0.03122
0.4355469, -0.2460938, -1.1787109, 2.6829269, 169.5731812, -20.4268303, -0.0424659
0.4082031, -0.2978516, -1.1704102, 1.097561, 167.1951294, -19.7560978, -0.051194
0.3779297, -0.3706055, -1.1098633, 0.6707317, 160.7317047, -18.0487804, -0.0491798
0.375, -0.3852539, -1.0512695, 1.9512196, 157.86586, -17.5, -0.0548867
0.3735352, -0.3642578, -0.90625, 5.670732, 153.2926941, -17.6829281, -0.0542153
0.3720703, -0.3310547, -0.8349609, 8.2317076, 151.5243988, -18.780489, -0.051194
0.3349609, -0.2319336, -0.7670898, 12.0121956, 149.4512177, -22.6219521, -0.0505226
0.2988281, -0.1733398, -0.7832031, 12.6829271, 148.3536682, -24.8170738, -0.0424659
0.2236328, -0.0732422, -0.8833008, 10.1829271, 143.5975647, -27.6829281, -0.0330663
0.1977539, -0.0532227, -0.949707, 6.7682929, 138.9024353, -28.0487804, -0.0344091
0.2089844, -0.0776367, -1.0703125, -2.4390244, 126.8902435, -27.1951218, -0.0364233
0.3188477, -0.1455078, -1.1640625, -12.0121956, 115.0609818, -24.3292694, -0.0218204
0.3979492, -0.1870117, -1.2094727, -15.4268293, 111.7682953, -22.6219521, -0.0095674
0.5698242, -0.2475586, -1.2861328, -18.2317085, 111.4024429, -19.2073174, -0.005539
0.6474609, -0.2641602, -1.3110352, -17.560976, 114.2073212, -17.3780499, -0.0109102
0.777832, -0.2675781, -1.2856445, -13.9024391, 123.4756088, -13.9024391, 0.0119173
0.8188477, -0.2646484, -1.2373047, -11.0975609, 129.5121918, -12.3780489, 0.0337377
0.84375, -0.2568359, -1.1015625, -5.3048782, 141.4634247, -11.219512, 0.0092317
0.8261719, -0.2543945, -1.0390625, -2.804878, 147.0731812, -11.7682934, 0.0058747
0.7280273, -0.2480469, -0.984375, 1.4634147, 156.0365906, -15.4268293, 0.0018463
0.6416016, -0.2514648, -0.9907227, 2.8658538, 158.8414612, -17.7439022, 0.0038605
0.4521484, -0.2841797, -1.0454102, 4.0853658, 158.9634247, -21.2195129, 0.0139315
0.3227539, -0.3354492, -1.0795898, 4.3292685, 153.6585388, -22.3170738, 0.0099031
0.2890625, -0.3710938, -1.0825195, 4.9390244, 149.8780518, -21.8902435, -0.0048676
0.3027344, -0.4331055, -1.0283203, 6.6463418, 141.5853729, -21.3414631, -0.0176242
0.3383789, -0.4545898, -0.9916992, 8.3536587, 138.4146423, -21.1585369, -0.0209812
0.4311523, -0.4619141, -0.9228516, 14.2073174, 135.2439117, -22.7439022, -0.0303807
0.4755859, -0.4458008, -0.90625, 17.0731716, 135.6707306, -23.7195129, -0.0438087
0.5375977, -0.375, -0.9375, 21.8292694, 138.7804871, -26.7073174, -0.0488441
0.5517578, -0.3300781, -0.9760742, 23.780489, 140.9146423, -28.4146347, -0.0558938
0.5727539, -0.2514648, -1.0766602, 24.3292694, 144.6341553, -29.6951218, -0.0532082
0.5800781, -0.2250977, -1.121582, 23.4756107, 145.5487823, -29.6341476, -0.0585794
0.6025391, -0.1845703, -1.1958008, 19.4512196, 146.646347, -27.9878063, -0.0720073
0.6362305, -0.1333008, -1.2280273, 13.2317076, 148.4146423, -25.4268303, -0.0820783
0.652832, -0.1108398, -1.215332, 10.1829271, 150.4268341, -24.6951218, -0.0978561
0.6845703, -0.0683594, -1.1523438, 3.8414636, 153.5365906, -23.5975609, -0.1190051
0.6962891, -0.0678711, -1.1137695, 1.0365853, 154.6341553, -23.2926826, -0.1378042
0.7011719, -0.105957, -1.0371094, -4.0853658, 155.7926941, -21.9512196, -0.1451896
0.6904297, -0.1376953, -1.0053711, -6.5853658, 155.9756165, -22.0121956, -0.145861
0.6357422, -0.2011719, -0.9477539, -9.6341467, 156.7073212, -21.4024391, -0.1341115
0.5952148, -0.2250977, -0.9204102, -10.060976, 156.4024353, -21.2195129, -0.096849
0.5117188, -0.2485352, -0.8701172, -9.2682924, 154.2682953, -20.4268303, -0.0540475
0.4726562, -0.2509766, -0.8588867, -8.2317076, 152.6829376, -20.1829281, -0.0297093
0.4204102, -0.2524414, -0.894043, -7.3170733, 148.7804871, -19.8780499, -0.0109102
0.4135742, -0.2583008, -0.9970703, -8.5365858, 144.6951294, -19.3902435, -0.0038605
0.4316406, -0.2617188, -1.0361328, -10.2439022, 141.7073212, -18.9024391, 0.0008392
0.5131836, -0.2871094, -1.050293, -14.3292685, 134.0853729, -18.6585369, -0.0008392
0.5771484, -0.3022461, -1.0180664, -15.6097565, 129.7561035, -18.4146347, -0.0104067
0.7075195, -0.3334961, -0.9199219, -15.6707325, 124.5121994, -18.1707325, -0.0105745
0.7602539, -0.3427734, -0.8828125, -14.1463413, 124.5121994, -18.2926826, -0.012253
0.8120117, -0.3442383, -0.8833008, -9.6951218, 128.9634247, -19.5121956, -0.0063783
0.8061523, -0.3300781, -0.9125977, -7.3170733, 132.4390259, -20.4268303, -0.0085603
0.7490234, -0.2929688, -0.9897461, -4.0853658, 137.2561035, -22.2560978, -0.0224918
0.7114258, -0.2739258, -1.0170898, -4.0853658, 137.9878082, -22.6829281, -0.0243381
0.6679688, -0.2495117, -1.050293, -4.6341462, 136.646347, -22.3170738, -0.0216526
0.671875, -0.2607422, -1.0166016, -6.8292685, 133.2317047, -20.6707325, -0.0135958
0.6875, -0.2734375, -0.9775391, -7.2560978, 131.646347, -20.4878044, -0.005539
0.7231445, -0.3105469, -0.8876953, -6.4634147, 129.5731812, -20.9756107, -0.0075532
0.7358398, -0.3261719, -0.8613281, -5.4268293, 130.2439117, -21.4634151, -0.0135958
0.7197266, -0.3227539, -0.8808594, -2.2560976, 133.8414612, -23.3536587, -0.0250095
0.7036133, -0.3125, -0.9047852, -0.9146342, 135.5487823, -24.0243912, -0.0354162
0.6650391, -0.2871094, -0.9213867, 1.2195122, 136.0975647, -24.0853672, -0.0344091
0.6606445, -0.2763672, -0.9091797, 1.7073171, 135.3048859, -23.5975609, -0.0431373
0.6669922, -0.265625, -0.8422852, 3.2926829, 131.3414612, -22.1341476, -0.0595865
0.6757812, -0.265625, -0.8168945, 4.2073174, 130.36586, -21.1585369, -0.0666361
0.6860352, -0.2553711, -0.8222656, 7.0121951, 131.4634247, -20.2439022, -0.0686503
0.684082, -0.2270508, -0.9067383, 9.0853662, 134.3292694, -20.2439022, -0.0587472
0.6870117, -0.2119141, -0.9589844, 9.0243902, 135.3048859, -20.1219521, -0.0468299
0.7104492, -0.1777344, -1.0664062, 5.670732, 135.2439117, -19.7560978, -0.0417945
0.7397461, -0.1625977, -1.0991211, 2.3780489, 134.3292694, -19.2682934, -0.0404517
0.8139648, -0.1474609, -1.0957031, -5, 132.3170776, -18.1707325, -0.0485084
0.855957, -0.1542969, -1.0532227, -8.5975609, 131.0365906, -17.439024, -0.0505226
0.9389648, -0.1791992, -0.9448242, -12.6829271, 130.9756165, -17.1341476, -0.0538796
0.9580078, -0.1948242, -0.9008789, -13.1707315, 131.8292694, -17.1951218, -0.0605936
0.9511719, -0.2314453, -0.8481445, -12.5, 136.2195129, -17.8658543, -0.0592508
0.9208984, -0.2495117, -0.8354492, -11.5853662, 138.0487823, -18.4756107, -0.0602579
0.8383789, -0.2827148, -0.8149414, -10.2439022, 139.2682953, -18.5975609, -0.0518654
0.7695312, -0.3037109, -0.7954102, -8.780488, 136.5243988, -18.1707325, -0.0350805
0.737793, -0.3129883, -0.784668, -7.9878049, 134.3292694, -17.8658543, -0.0139315
0.715332, -0.3198242, -0.7753906, -6.8292685, 128.7804871, -17.8658543, 0.0112459
0.7109375, -0.3193359, -0.7797852, -6.280488, 125.7926865, -18.3536587, 0.0031891
0.7338867, -0.3173828, -0.7890625, -6.0365853, 120.5487823, -19.2682934, -0.002182
0.7485352, -0.3105469, -0.7866211, -5.7317076, 117.9268341, -19.8780499, 0.0090639
0.8012695, -0.2905273, -0.7597656, -4.4512196, 112.9878082, -20.3048782, 0.0219883
0.8212891, -0.2822266, -0.7387695, -3.7804878, 110.7317123, -20.4268303, 0.0454871
0.8598633, -0.2670898, -0.7001953, -0.9756098, 107.1951218, -20.5487804, 0.0626078
0.8735352, -0.2612305, -0.6962891, 0, 105.7317123, -20.6707325, 0.0594186
0.8764648, -0.2514648, -0.7416992, 1.5853659, 104.6341476, -20.6707325, 0.0473335
0.8588867, -0.2392578, -0.8125, 1.6463414, 103.2926865, -21.1585369, 0.0391089
0.8481445, -0.2426758, -0.8388672, 1.2195122, 102.2561035, -21.3414631, 0.0280308
0.8530273, -0.25, -0.8525391, 0.3658537, 99.2073212, -20.7317085, 0.0226596
0.8642578, -0.2597656, -0.8378906, 0.4268293, 97.9878082, -20.2439022, 0.0263523
0.8955078, -0.277832, -0.7797852, 1.7682927, 96.2195129, -19.1463413, 0.0287022
0.9077148, -0.2880859, -0.746582, 3.1097562, 96.0975647, -19.3292694, 0.0387732
0.9135742, -0.2973633, -0.7285156, 6.3414636, 98.5365906, -19.8170738, 0.0515297
0.9023438, -0.2944336, -0.7602539, 7.3780489, 100, -20.060976, 0.0642863
0.8671875, -0.2646484, -0.875, 8.719512, 104.0853653, -20.9756107, 0.0773785
0.8417969, -0.2197266, -0.9887695, 7.8658538, 105.4878082, -20.9756107, 0.0975204
0.8496094, -0.1987305, -1.015625, 4.0853658, 105.9756088, -19.6951218, 0.1042344
0.9003906, -0.1606445, -0.9970703, -0.2439024, 104.6951218, -17.8658543, 0.0965133
0.9389648, -0.1533203, -0.953125, -2.0731707, 104.5731735, -17.6829281, 0.0908064
1.0039062, -0.1674805, -0.8530273, -4.6951222, 105.6097565, -16.4024391, 0.0971847
1.0180664, -0.1826172, -0.8139648, -5.2439027, 107.3780518, -16.280489, 0.0988632
1.0014648, -0.2158203, -0.7797852, -6.1585369, 111.2804871, -16.4634151, 0.0897993
0.9633789, -0.2246094, -0.78125, -6.4634147, 112.5609818, -16.4634151, 0.0716716
0.8847656, -0.2407227, -0.7866211, -7.4390244, 112.3170776, -15.3048782, 0.0505226
0.8510742, -0.2451172, -0.7827148, -7.6219516, 111.0365906, -14.5121956, 0.0243381
0.8125, -0.2583008, -0.765625, -7.6829271, 106.4634171, -12.7439032, 0.0031891
0.8208008, -0.2856445, -0.7275391, -7.5609756, 104.146347, -12.6829271, -0.0186313
0.8325195, -0.2963867, -0.7050781, -6.7073174, 100.6707306, -12.560976, -0.0176242
0.8496094, -0.3154297, -0.6762695, -5.4268293, 98.7195129, -13.5975609, -0.0125887
0.8554688, -0.3120117, -0.6723633, -4.4512196, 98.1097565, -14.3292685, -0.0260166
0.8623047, -0.2998047, -0.6958008, -2.5609756, 97.8048782, -15.6097565, -0.030045
0.8603516, -0.2910156, -0.7202148, -2.0121951, 97.2561035, -16.1585369, -0.0342412
0.8740234, -0.2885742, -0.7597656, -1.9512196, 95.1219559, -16.4634151, -0.0585794
0.8867188, -0.2905273, -0.7587891, -2.2560976, 93.9024429, -16.4634151, -0.0840925
0.9262695, -0.3041992, -0.7128906, -2.804878, 91.0365906, -16.0365849, -0.1049058
0.9462891, -0.3178711, -0.6831055, -2.195122, 89.5731735, -16.2195129, -0.1072557
0.9580078, -0.3212891, -0.6582031, 0.3658537, 89.4512253, -16.5243912, -0.0783856
0.9428711, -0.3046875, -0.7084961, 2.3170731, 90.4878082, -16.8902435, -0.0552224
0.925293, -0.2890625, -0.7421875, 3.9024391, 92.68293, -17.3780499, -0.0424659
0.8974609, -0.2612305, -0.7802734, 4.0243902, 92.8658524, -17.0731716, -0.0454871
0.894043, -0.253418, -0.7783203, 3.4756098, 91.5243912, -16.8292694, -0.0599222
0.9047852, -0.2416992, -0.7099609, 2.804878, 88.0487823, -15.9756098, -0.082414
0.9189453, -0.2348633, -0.668457, 3.2317073, 86.5853653, -15.3658543, -0.1055772
0.9321289, -0.2416992, -0.6166992, 4.6341462, 85.7926865, -15, -0.1374685
0.9291992, -0.2426758, -0.6103516, 5.670732, 85.6707306, -14.6341467, -0.1626459
0.909668, -0.246582, -0.6264648, 6.4024391, 86.0365906, -15.1829271, -0.1767453
0.8925781, -0.2480469, -0.6518555, 6.2195125, 85.4268341, -15, -0.181445
0.8754883, -0.2402344, -0.7143555, 4.6341462, 83.4146347, -14.7560978, -0.1688563
0.8857422, -0.2143555, -0.7758789, 3.3536587, 82.5609741, -14.1463413, -0.1613031
0.9042969, -0.1958008, -0.7871094, -0.0609756, 81.0975647, -12.8658543, -0.1371328
0.956543, -0.1748047, -0.765625, -2.3170731, 80.2439041, -11.4024391, -0.1109483
0.9858398, -0.171875, -0.7363281, -2.6829269, 80.4878082, -11.341464, -0.0988632
1.0244141, -0.1821289, -0.6816406, -2.195122, 81.8292694, -11.219512, -0.0780499
1.0322266, -0.1923828, -0.6723633, -1.9512196, 83.1097565, -10.9756098, -0.064622
1.0107422, -0.2177734, -0.7026367, -2.6829269, 87.3170776, -9.9390249, -0.0565652
0.987793, -0.2211914, -0.7255859, -2.9878049, 89.2682953, -9.0243902, -0.0451514
0.9516602, -0.2231445, -0.730957, -4.8780489, 90.7317123, -7.6829271, -0.0370947
0.9375, -0.2299805, -0.7119141, -5.1219511, 90.3048782, -7.3170733, -0.0323949
0.9311523, -0.2329102, -0.6557617, -5.0609756, 88.0487823, -6.7682929, -0.0337377
0.9282227, -0.2246094, -0.621582, -4.8780489, 87.5609741, -6.7073174, -0.04448
0.9282227, -0.2158203, -0.6171875, -5.3658538, 87.9878082, -6.280488, -0.0458228
0.9179688, -0.1962891, -0.6142578, -6.4024391, 88.8414688, -6.2195125, -0.054551
0.9150391, -0.1889648, -0.6108398, -7.3780489, 88.7195129, -6.7682929, -0.0614328
0.9140625, -0.1835938, -0.5849609, -8.9024391, 85.7317123, -7.3170733, -0.0525368
0.9160156, -0.1933594, -0.5678711, -9.2682924, 83.2317123, -7.4390244, -0.0441444
0.9360352, -0.2216797, -0.5253906, -9.8170738, 78.9024429, -6.9512196, -0.0391089
0.9458008, -0.2373047, -0.5019531, -9.8780489, 77.2560959, -6.5853658, -0.0364233
0.9594727, -0.2670898, -0.4750977, -8.4146347, 74.4512177, -6.6463418, -0.0243381
0.9570312, -0.2783203, -0.4731445, -7.3780489, 73.5975647, -6.7682929, -0.0046998
0.9316406, -0.2827148, -0.4882812, -4.6341462, 72.0121994, -7.1341467, -0.0001678
0.9155273, -0.2631836, -0.5224609, -4.0243902, 70.9146347, -6.8292685, -0.0186313
0.9101562, -0.2485352, -0.5439453, -2.6219513, 68.8414688, -6.1585369, -0.0488441
0.9296875, -0.2197266, -0.5751953, -2.0731707, 66.0365906, -6.5243902, -0.04448
0.949707, -0.2133789, -0.5795898, -2.2560976, 64.7560959, -6.7682929, -0.0162814
0.9785156, -0.2099609, -0.5791016, -3.0487804, 63.5365868, -7.5609756, 0.0045319
0.9921875, -0.2172852, -0.5673828, -3.1097562, 63.1097565, -7.9268293, 0.0142672
1.0092773, -0.2304688, -0.5390625, -2.5609756, 62.5, -7.9878049, 0.0159457
1.0053711, -0.2329102, -0.5205078, -1.8902439, 62.5609779, -7.8658538, 0.0082246
0.9873047, -0.2290039, -0.5107422, -0.2439024, 62.1951218, -7.1341467, -0.008896
0.9746094, -0.2265625, -0.5175781, 0.3048781, 61.9512215, -6.890244, -0.0283665
0.9550781, -0.2133789, -0.5400391, 0.2439024, 60.7317085, -6.3414636, -0.0357519
0.9443359, -0.2099609, -0.5522461, -0.3658537, 59.5731735, -6.3414636, -0.0384375
0.9492188, -0.2060547, -0.5498047, -1.402439, 57.9268303, -5.9146342, -0.0357519
0.96875, -0.2045898, -0.5498047, -1.6463414, 56.341465, -5.9146342, -0.0290379
0.9799805, -0.2109375, -0.5493164, -1.097561, 56.2804909, -6.0975609, -0.03122
1.0014648, -0.2099609, -0.5498047, -0.8536586, 56.4634171, -6.5853658, -0.0330663
1.0068359, -0.2163086, -0.5561523, -0.4268293, 57.2560997, -6.7682929, -0.036759
1.0102539, -0.2080078, -0.5786133, -0.6707317, 59.0243912, -6.3414636, -0.0374304
1.0058594, -0.1948242, -0.5927734, -0.9146342, 60.3658562, -5.5487804, -0.0256809
0.9951172, -0.1591797, -0.6088867, -1.9512196, 62.4390259, -4.1463413, -0.0077211
1.0014648, -0.1445312, -0.6088867, -2.0121951, 62.9268303, -3.2317073, 0.012253
1.0117188, -0.1230469, -0.5805664, -2.2560976, 63.7195129, -3.1707318, 0.0441444
1.0219727, -0.1313477, -0.5517578, -2.9878049, 64.8170776, -3.3536587, 0.0464942
1.0219727, -0.1342773, -0.5600586, -4.2073174, 65.4268341, -3.2926829, 0.0095674
1.0063477, -0.1464844, -0.5869141, -7.2560978, 67.7439041, -3.0487804, 0.0206455
0.9951172, -0.1577148, -0.6010742, -9.2073174, 68.4146347, -2.8658538, 0.0555581
0.9790039, -0.1738281, -0.574707, -11.7682934, 68.2926865, -2.0731707, 0.0763714
0.9741211, -0.1811523, -0.5405273, -12.0121956, 67.1951218, -1.9512196, 0.0904707
0.9858398, -0.1958008, -0.4643555, -10.9146347, 64.8170776, -1.5243902, 0.0955062
0.9858398, -0.2006836, -0.4301758, -10, 63.841465, -1.5243902, 0.0616007
0.9824219, -0.2041016, -0.4052734, -8.780488, 63.5975609, -1.8292683, 0.0663005
0.9726562, -0.199707, -0.4121094, -9.0853662, 63.4146347, -1.7682927, 0.0877852
0.9487305, -0.1923828, -0.4335938, -9.9390249, 61.5853691, -2.4390244, 0.0810712
0.9555664, -0.2011719, -0.4746094, -11.6463413, 57.0121956, -2.9878049, 0.0569009
0.9594727, -0.2133789, -0.4892578, -12.3170738, 54.7560997, -2.9878049, 0.0213169
0.9794922, -0.2294922, -0.5058594, -14.2073174, 50.7317085, -2.5, -0.0218204
0.9887695, -0.2368164, -0.5068359, -15.5487804, 49.2682953, -2.195122, -0.0394446
0.9946289, -0.2304688, -0.4931641, -16.9512196, 47.9878044, -0.6707317, -0.0347448
0.9960938, -0.2241211, -0.4790039, -17.2560978, 47.6219521, 0, -0.0377661
0.9853516, -0.2001953, -0.4394531, -15.7317076, 46.6463432, 0.6097561, -0.0276951
0.9770508, -0.1914062, -0.421875, -14.9390249, 45.7926826, 0.8536586, -0.01561
0.9633789, -0.1743164, -0.4008789, -13.5975609, 43.4146347, 0.0609756, -0.0135958
0.9604492, -0.1787109, -0.4038086, -13.9634151, 41.7682953, -0.1829268, -0.0120851
0.953125, -0.171875, -0.421875, -15.2439032, 38.1097565, 0.1219512, -0.0287022
0.9462891, -0.1826172, -0.4516602, -18.1097565, 34.8780479, 0.5487805, -0.0498512
0.9506836, -0.1845703, -0.4658203, -19.2073174, 33.4756088, 0.8536586, -0.0661326
0.9741211, -0.1894531, -0.4863281, -20.7926826, 31.5243912, 1.7682927, -0.0830854
0.9833984, -0.1870117, -0.4897461, -20.7317085, 31.0365868, 1.8292683, -0.0904707
1.0126953, -0.1723633, -0.4975586, -19.0243912, 30.5487804, 2.3170731, -0.0854353
1.0234375, -0.1713867, -0.4970703, -18.1707325, 30.8536587, 2.3780489, -0.0951705
1.0307617, -0.1625977, -0.4985352, -16.7073174, 32.1341476, 2.8658538, -0.0985275
1.034668, -0.1625977, -0.4931641, -16.7682934, 32.6219521, 2.8658538, -0.0840925
1.0263672, -0.1679688, -0.4819336, -16.7682934, 33.3536606, 3.3536587, -0.0540475
1.0195312, -0.1748047, -0.4790039, -17.1341476, 33.2317085, 3.2926829, -0.0216526
0.9985352, -0.1914062, -0.4799805, -17.2560978, 33.3536606, 3.5975611, 0.0203098
0.9799805, -0.2021484, -0.4765625, -17.1951218, 33.5365868, 3.8414636, 0.0468299
0.9736328, -0.2016602, -0.4755859, -17.2560978, 33.9024391, 3.6585367, 0.0626078
0.9707031, -0.1962891, -0.4858398, -15.9146347, 34.1463432, 2.9878049, 0.0965133
0.9672852, -0.1958008, -0.4951172, -15.7317076, 34.0243912, 2.5609756, 0.1555962
0.96875, -0.190918, -0.5, -15.7926836, 34.2073174, 2.6829269, 0.1609674
0.96875, -0.1904297, -0.4892578, -15.7926836, 34.2073174, 2.3170731, 0.1468681
0.9819336, -0.2011719, -0.4692383, -15.4268293, 33.7195129, 2.0121951, 0.128069
0.9848633, -0.206543, -0.4614258, -14.8170738, 33.9634171, 1.5243902, 0.1131304
0.9770508, -0.2216797, -0.4589844, -14.0853662, 34.4512215, 1.5243902, 0.0928206
0.9711914, -0.2265625, -0.4570312, -14.1463413, 34.4512215, 1.4634147, 0.0656291
0.9633789, -0.222168, -0.4384766, -13.780488, 33.9634171, 1.2804878, 0.0547189
0.9511719, -0.2197266, -0.4287109, -13.1097565, 32.4390259, 1.0365853, 0.0575723
0.9467773, -0.222168, -0.4296875, -12.9268293, 31.7682934, 0.6097561, 0.0693217
0.9350586, -0.2114258, -0.4448242, -12.7439032, 30.6707325, 0.7926829, 0.0730144
0.9345703, -0.203125, -0.453125, -13.0487804, 29.8170738, 0.9146342, 0.0253452
0.9414062, -0.1811523, -0.4663086, -13.5365858, 28.2317085, 1.6463414, -0.0159457
0.9414062, -0.1723633, -0.4726562, -13.841464, 27.560976, 1.5243902, -0.0236667
0.9521484, -0.1611328, -0.4746094, -15.1219511, 25.9756107, 2.3170731, -0.0099031
0.9555664, -0.1586914, -0.4755859, -15.6707325, 24.9390259, 2.5609756, 0.0038605
0.9624023, -0.1601562, -0.4672852, -16.6463413, 24.2073174, 3.5975611, 0.0045319
0.9638672, -0.1552734, -0.4599609, -17.0731716, 24.0853672, 4.1463413, -0.0132601
0.9624023, -0.159668, -0.4375, -17.1951218, 23.9634151, 4.7560978, -0.0498512
0.9462891, -0.1577148, -0.4116211, -17.5, 22.6829281, 5.4878049, -0.0793927
0.9399414, -0.1625977, -0.402832, -17.1951218, 21.4634151, 5.4878049, -0.1055772
0.9404297, -0.1826172, -0.4067383, -17.560976, 18.9024391, 5.1829271, -0.1253834
0.9399414, -0.1962891, -0.4082031, -17.7439022, 17.560976, 5.2439027, -0.1418326
0.9379883, -0.2216797, -0.4165039, -18.5365849, 15.3048782, 5.1219511, -0.1616388
0.9394531, -0.2280273, -0.4233398, -18.4756107, 14.2682934, 5.2439027, -0.1787594
0.9511719, -0.230957, -0.4272461, -17.7439022, 13.0487804, 5.3658538, -0.1747311
0.9604492, -0.2231445, -0.4287109, -16.7682934, 11.8902445, 5, -0.1606317
0.9731445, -0.2163086, -0.4399414, -15.4878054, 10.6707315, 5, -0.1493858
0.9799805, -0.2119141, -0.4418945, -15, 10.4878054, 4.7560978, -0.1514
0.9921875, -0.2001953, -0.4379883, -14.8780489, 9.2073174, 4.7560978, -0.1613031
0.9902344, -0.1987305, -0.4150391, -14.8170738, 8.780488, 4.5731707, -0.1693599
0.9838867, -0.199707, -0.4052734, -14.3902445, 8.3536587, 4.390244, -0.1673457
0.9799805, -0.2119141, -0.4199219, -14.4512196, 7.3170733, 4.0853658, -0.160296
0.9755859, -0.2119141, -0.4389648, -14.4512196, 6.890244, 3.7804878, -0.1461967
0.9633789, -0.215332, -0.4760742, -15.5487804, 6.4024391, 3.9634147, -0.1371328
0.9648438, -0.2207031, -0.4848633, -15.6707325, 5.9146342, 3.9024391, -0.1243763
0.9799805, -0.2216797, -0.4824219, -15, 5.0609756, 3.5975611, -0.1163195
0.9882812, -0.2246094, -0.46875, -14.3292685, 4.390244, 3.4146342, -0.1200122
1.0029297, -0.2182617, -0.4384766, -12.4390249, 3.6585367, 2.5609756, -0.1253834
1.0043945, -0.2197266, -0.425293, -11.8902445, 3.6585367, 2.0731707, -0.1203479
0.9936523, -0.2197266, -0.4287109, -11.280488, 4.0243902, 2.3780489, -0.1218585
0.9609375, -0.2119141, -0.4443359, -12.8658543, 3.9634147, 2.6829269, -0.1284047
0.9462891, -0.199707, -0.4506836, -13.9024391, 3.4756098, 3.5365853, -0.1310903
0.925293, -0.1762695, -0.4550781, -15, 1.2195122, 5, -0.1290761
0.9272461, -0.1660156, -0.4541016, -15.1829271, 0.0609756, 5.3658538, -0.1304189
0.9428711, -0.1523438, -0.4467773, -14.9390249, -2.2560976, 5.1829271, -0.1277333
0.9536133, -0.1542969, -0.4462891, -15.1829271, -3.1707318, 4.8170733, -0.0961776
0.9716797, -0.1665039, -0.4438477, -15.7317076, -4.390244, 4.2682929, -0.0394446
0.9770508, -0.1777344, -0.4433594, -16.0365849, -5, 4.0853658, 0.0223239
0.9799805, -0.2021484, -0.434082, -16.6463413, -6.0365853, 4.6341462, 0.0830854
0.9804688, -0.2060547, -0.4331055, -16.7682934, -5.9756098, 5.1219511, 0.1388113
0.9716797, -0.2138672, -0.4287109, -16.280489, -6.5853658, 6.0365853, 0.1755703
0.953125, -0.1875, -0.4228516, -15.1829271, -7.1951222, 6.7682929, 0.1958801
0.9448242, -0.1757812, -0.4145508, -14.6341467, -7.8658538, 7.2560978, 0.2158541
0.9414062, -0.1572266, -0.4038086, -14.8170738, -9.6951218, 7.3780489, 0.2113222
0.9394531, -0.1533203, -0.3989258, -15.1829271, -10.9146347, 7.1951222, 0.2069581
0.9404297, -0.1689453, -0.4013672, -16.7073174, -14.5121956, 6.7682929, 0.2281071
0.9414062, -0.1821289, -0.40625, -17.6829281, -16.0365849, 6.7073174, 0.2529488
0.9516602, -0.21875, -0.4106445, -18.3536587, -19.0243912, 6.7073174, 0.2552987
0.956543, -0.2299805, -0.4150391, -18.3536587, -19.8780499, 6.5243902, 0.2334783
0.9584961, -0.2363281, -0.4189453, -17.3780499, -21.3414631, 6.8292685, 0.2187076
0.9570312, -0.2304688, -0.4135742, -16.0975609, -21.6463413, 7.1341467, 0.2133364
0.9462891, -0.2124023, -0.4038086, -13.780488, -22.8658543, 8.0487804, 0.2113222
0.9521484, -0.2026367, -0.390625, -12.4390249, -25, 8.1707315, 0.1700313
0.9550781, -0.2011719, -0.3964844, -12.6829271, -26.5243912, 8.1097565, 0.1085985
0.9511719, -0.2011719, -0.4038086, -13.9024391, -29.2073174, 7.4390244, 0.0582437
0.9501953, -0.2026367, -0.4165039, -15.060976, -30.3048782, 7.3170733, 0.0149386
0.9541016, -0.1967773, -0.4511719, -16.6463413, -32.5609779, 7.3780489, -0.0162814
0.956543, -0.190918, -0.4667969, -17.3170738, -33.841465, 7.4390244, -0.0605936
0.9794922, -0.1757812, -0.4824219, -17.6829281, -36.0975609, 7.7439027, -0.1178302
0.9941406, -0.175293, -0.4858398, -18.0487804, -36.9512215, 7.3170733, -0.1559319
1.0058594, -0.1821289, -0.4692383, -18.2926826, -38.6585388, 7.3780489, -0.1673457
1.0058594, -0.2016602, -0.4350586, -18.4756107, -38.9024391, 7.4390244, -0.1686885
1, -0.2099609, -0.4233398, -19.1463413, -39.1463432, 7.6829271, -0.1649958
0.9594727, -0.2172852, -0.4174805, -19.1463413, -39.5731735, 8.0487804, -0.1690242
0.940918, -0.2207031, -0.4267578, -19.1463413, -40.4878044, 7.8658538, -0.1723812
0.9169922, -0.2216797, -0.4594727, -20.2439022, -42.7439041, 8.1097565, -0.1858091
0.9145508, -0.2172852, -0.4741211, -20.9756107, -44.3902435, 8.2926826, -0.1861448
0.9257812, -0.2089844, -0.4829102, -21.6463413, -47.8048782, 8.0487804, -0.1901732
0.9472656, -0.1982422, -0.4819336, -21.7682934, -49.0853653, 7.9268293, -0.1918517
0.9863281, -0.1850586, -0.4775391, -21.3414631, -50.5487823, 7.5609756, -0.1851377
1.0043945, -0.1801758, -0.4833984, -21.4634151, -50.5487823, 7.0731707, -0.1740597
1.0258789, -0.1791992, -0.4990234, -22.1951218, -51.0975609, 6.7073174, -0.1656672
1.0258789, -0.184082, -0.5209961, -23.4756107, -51.5243912, 6.890244, -0.1519036
1.0224609, -0.1796875, -0.5297852, -25.6707325, -52.3170738, 7.5, -0.1317617
1.0117188, -0.1733398, -0.5234375, -27.3170738, -53.6585388, 8.719512, -0.102388
1.0131836, -0.1650391, -0.5053711, -27.3170738, -54.5731735, 8.9634151, -0.06009
1.0117188, -0.1660156, -0.4609375, -27.1951218, -57.0731735, 9.5121956, -0.0508583
1.0102539, -0.1665039, -0.440918, -27.1341476, -58.2926826, 9.3902445, -0.1062486
0.9916992, -0.1821289, -0.4228516, -27.6219521, -61.0365868, 8.841464, -0.1285725
0.9790039, -0.1943359, -0.4262695, -28.1097565, -62.1341476, 8.6585369, -0.1401541
0.9541016, -0.2202148, -0.4404297, -29.8170738, -65.3048782, 8.5975609, -0.1398184
0.9414062, -0.2353516, -0.449707, -30, -67.1951218, 8.719512, -0.1515679
0.9448242, -0.2558594, -0.4536133, -29.4512196, -71.8292694, 8.719512, -0.1908446
0.9580078, -0.2788086, -0.4604492, -28.3536587, -74.2073212, 8.1707315, -0.2177005
0.9702148, -0.2836914, -0.4643555, -25.9756107, -76.9512177, 7.9268293, -0.1854734
0.9824219, -0.2773438, -0.4780273, -23.5975609, -77.8048782, 7.8658538, -0.0716716
0.984375, -0.2636719, -0.4931641, -22.439024, -77.5609741, 7.8658538, 0.0488441
0.9887695, -0.2270508, -0.5219727, -21.3414631, -77.4390259, 8.1097565, 0.1334401
0.996582, -0.206543, -0.5385742, -21.280489, -77.9268341, 8.4756098, 0.2062867
1.0019531, -0.1704102, -0.5483398, -21.3414631, -79.0243912, 8.841464, 0.2334783
1.0112305, -0.1557617, -0.5454102, -21.7073174, -79.8170776, 8.6585369, 0.2522774
1.0195312, -0.1416016, -0.5400391, -23.7195129, -81.7073212, 8.841464, 0.2945754
1.0170898, -0.1396484, -0.5410156, -24.8170738, -82.3170776, 8.3536587, 0.2865187
1.0063477, -0.1567383, -0.5605469, -27.1341476, -84.146347, 7.9878049, 0.2328069
0.9951172, -0.1953125, -0.5698242, -28.5365868, -85.1219559, 7.7439027, 0.1784237
0.9868164, -0.2124023, -0.5678711, -29.8780499, -87.9878082, 8.1097565, 0.1560998
0.9926758, -0.2373047, -0.559082, -29.8780499, -89.6341476, 9.0243902, 0.0918135
0.9951172, -0.2397461, -0.5600586, -29.8170738, -89.8780518, 9.2073174, 0.0438087
1.0029297, -0.2426758, -0.5839844, -28.9634151, -88.9634171, 8.9634151, 0.0169528
1.0029297, -0.230957, -0.597168, -28.5975609, -88.5975647, 8.9024391, -0.0182956
1.0029297, -0.2060547, -0.6083984, -29.0853672, -88.7804871, 8.719512, -0.0676432
1.0039062, -0.2011719, -0.6010742, -30, -89.6951218, 8.9024391, -0.0773785
1.0068359, -0.1875, -0.5786133, -31.4024391, -92.1341476, 9.2682924, -0.0669718
1.0043945, -0.1884766, -0.5605469, -31.9512196, -93.3536606, 9.3902445, -0.0501869
0.9980469, -0.199707, -0.5332031, -32.4390259, -95.1219559, 9.4512196, -0.0102388
0.9755859, -0.2109375, -0.543457, -33.1097565, -96.2195129, 9.5731707, 0.0280308
0.9638672, -0.2236328, -0.5537109, -33.1707306, -98.3536606, 8.9634151, 0.043473
0.9467773, -0.2382812, -0.5756836, -34.0853653, -101.0365906, 9.0243902, 0.0199741
0.9462891, -0.2402344, -0.5810547, -34.2682953, -102.5, 9.5731707, -0.0031891
0.9526367, -0.2480469, -0.578125, -33.9024391, -105.4268341, 9.4512196, 0.0078889
0.9648438, -0.2480469, -0.5751953, -33.6585388, -106.8292694, 9.3292685, 0.0280308
0.9794922, -0.2436523, -0.5756836, -33.1097565, -108.5365906, 8.5975609, 0.033402
0.9868164, -0.2412109, -0.5878906, -33.4756088, -108.9634171, 8.5365858, 0.0394446
0.9819336, -0.2431641, -0.6079102, -34.0243912, -110.7317123, 7.6219516, 0.0468299
0.9775391, -0.2421875, -0.6098633, -33.841465, -111.8292694, 7.5, 0.0327306
0.9697266, -0.2451172, -0.6035156, -34.3292694, -115.18293, 7.7439027, 0.0146029
0.9658203, -0.2573242, -0.6083984, -34.6341476, -116.8292694, 7.8658538, -0.01561
0.9658203, -0.2646484, -0.6191406, -34.1463432, -119.0853653, 8.2317076, -0.0659648
0.9614258, -0.2641602, -0.6494141, -34.2073174, -120.8536606, 8.0487804, -0.1196765
0.9604492, -0.2602539, -0.6665039, -34.5121956, -121.7682953, 8.2926826, -0.1673457
0.9609375, -0.2495117, -0.6796875, -36.2195129, -124.0243912, 8.5975609, -0.1925231
0.9638672, -0.2407227, -0.6772461, -36.5853653, -125.3048782, 9.0853662, -0.2010834
0.96875, -0.2172852, -0.6665039, -36.9512215, -126.9512253, 10.1219511, -0.2076295
0.9741211, -0.206543, -0.6582031, -36.8292694, -127.7439041, 11.0365858, -0.2042725
0.9765625, -0.190918, -0.6420898, -36.6463432, -129.0853729, 11.4634151, -0.1989014
0.9760742, -0.1889648, -0.6347656, -36.5853653, -129.8780518, 11.341464, -0.2042725
0.9624023, -0.2055664, -0.6469727, -37.0121956, -132.3170776, 10.6707315, -0.2136721
0.9458008, -0.2441406, -0.6850586, -37.2560997, -133.6585388, 10.6097565, -0.1849699
0.9384766, -0.2583008, -0.7016602, -38.0487823, -136.4024353, 10.5487804, -0.1418326
0.9394531, -0.2836914, -0.71875, -38.2317085, -138.4756165, 11.0975609, -0.1015488
0.9404297, -0.2890625, -0.71875, -37.8658562, -139.146347, 11.5243902, -0.0688182
0.9580078, -0.2836914, -0.7241211, -36.2195129, -139.4512177, 11.8292685, -0.0495155
0.9677734, -0.2729492, -0.7275391, -35.1219521, -139.2682953, 11.8902445, -0.054551
0.9804688, -0.2495117, -0.7290039, -35, -139.2682953, 11.8902445, -0.0569009
0.9838867, -0.2363281, -0.7280273, -35.1829262, -139.6951294, 11.8902445, -0.0493477
0.9838867, -0.2128906, -0.7167969, -36.7682953, -140.8536682, 11.4634151, -0.0609293
0.980957, -0.2080078, -0.7128906, -37.3170738, -141.7682953, 11.341464, -0.0609293
0.9682617, -0.2075195, -0.7270508, -38.4756088, -143.1097565, 11.0975609, -0.0485084
0.9448242, -0.2216797, -0.7709961, -39.4512215, -144.0243988, 11.280488, -0.0310521
0.9423828, -0.2299805, -0.7924805, -39.5121956, -144.3292694, 11.5853662, -0.012253
0.9350586, -0.2495117, -0.8095703, -40.1219521, -145.1219482, 12.8048782, -0.0011749
0.9311523, -0.2543945, -0.8027344, -39.8780479, -145.1219482, 13.7195129, 0.0176242
0.9462891, -0.2504883, -0.7744141, -38.841465, -145.0609741, 14.8780489, 0.0397803
0.9487305, -0.2504883, -0.7597656, -37.9268303, -144.6341553, 15.060976, 0.0726787
0.940918, -0.2470703, -0.7490234, -36.0365868, -143.8414612, 14.2073174, 0.0830854
0.9277344, -0.2441406, -0.7597656, -35.7926826, -143.4756165, 13.9634151, 0.0661326
0.8916016, -0.2333984, -0.8125, -36.5243912, -143.1097565, 14.3902445, 0.0491798
0.878418, -0.2265625, -0.8378906, -37.2560997, -143.4146423, 14.8170738, 0.0421302
0.8842773, -0.2299805, -0.8579102, -37.8658562, -145, 15.5487804, 0.0473335
0.9208984, -0.2402344, -0.8305664, -38.9024391, -147.5609741, 16.0365849, 0.040116
0.9428711, -0.2504883, -0.8081055, -38.9634171, -148.4146423, 16.4634151, 0.0146029
0.9643555, -0.2714844, -0.7875977, -38.3536606, -147.6829376, 16.5243912, -0.0438087
0.972168, -0.2773438, -0.7924805, -37.9268303, -147.0121918, 16.7073174, -0.103563
0.956543, -0.2792969, -0.8144531, -36.9512215, -146.4024353, 16.4024391, -0.1169909
0.9399414, -0.2709961, -0.8183594, -36.6463432, -147.1341553, 16.0975609, -0.04448
0.909668, -0.2539062, -0.8237305, -36.341465, -149.0243988, 16.1585369, 0.0626078
0.9023438, -0.2460938, -0.8300781, -36.4634171, -150.2439117, 16.5243912, 0.1649958
0.894043, -0.2314453, -0.8588867, -36.9512215, -152.0121918, 16.8902435, 0.2375067
0.8964844, -0.2231445, -0.875, -37.5, -152.9878082, 17.0121956, 0.261677
0.9125977, -0.2275391, -0.8842773, -39.0243912, -154.3902435, 17.439024, 0.2670481
0.9238281, -0.2382812, -0.8491211, -40.4878044, -157.0731812, 17.3780499, 0.2724193
0.9267578, -0.2504883, -0.8251953, -40.6097565, -158.4146423, 17.560976, 0.2576486
0.9238281, -0.269043, -0.7905273, -40.3658562, -160.4878082, 18.5975609, 0.2150149
0.9140625, -0.2744141, -0.7929688, -40, -161.4024353, 18.5975609, 0.1770809
0.8623047, -0.2568359, -0.8549805, -39.1463432, -162.7439117, 18.6585369, 0.1495537
0.8374023, -0.230957, -0.8989258, -39.5731735, -163.5975647, 18.9634151, 0.1132982
0.800293, -0.1938477, -0.9785156, -41.7682953, -166.2195129, 20.060976, 0.0780499
0.8012695, -0.1728516, -0.9941406, -43.5365868, -168.1707306, 21.0975609, 0.036759
0.8408203, -0.1499023, -0.9775391, -46.2195129, -172.4390259, 23.2926826, -0.0109102
0.8676758, -0.1513672, -0.9614258, -47.1951218, -173.4146423, 24.5121956, -0.043473
0.9155273, -0.1577148, -0.9355469, -48.1097565, -173.7804871, 26.1585369, -0.0565652
0.9350586, -0.1870117, -0.940918, -49.1463432, -173.5975647, 27.0731716, -0.0847639
0.9287109, -0.2060547, -0.9511719, -49.8170738, -173.4756165, 27.8048782, -0.1183337
0.9067383, -0.2329102, -0.9609375, -49.3902435, -174.0243988, 30.4268303, -0.1347829
0.8916016, -0.2421875, -0.9575195, -48.0487823, -174.5121918, 31.6463413, -0.1404898
0.8666992, -0.2348633, -0.949707, -44.5121956, -173.8414612, 33.2317085, -0.1378042
0.8540039, -0.2226562, -0.9443359, -42.9268303, -173.4146423, 33.7195129, -0.1344472
0.84375, -0.1923828, -0.9501953, -40.5487823, -172.0121918, 34.3902435, -0.1381399
0.840332, -0.1884766, -0.9511719, -40.1829262, -171.7682953, 34.5121956, -0.1290761
0.8374023, -0.1889648, -0.9272461, -41.4634171, -172.9878082, 33.5975609, -0.1052415
0.8383789, -0.203125, -0.9082031, -41.7682953, -173.7195129, 33.0487823, -0.096849
0.8339844, -0.2382812, -0.8666992, -41.5243912, -175.4268341, 31.6463413, -0.1079271
0.8095703, -0.2827148, -0.8515625, -38.6585388, -176.4634247, 30.8536587, -0.0882887
0.796875, -0.3071289, -0.8642578, -36.5853653, -176.5853729, 30.4878063, -0.0856031
0.7597656, -0.3242188, -0.9135742, -32.3780479, -175.4268341, 30.6097565, -0.0572366
0.7426758, -0.3125, -0.9462891, -30.4878063, -174.8170776, 30.7317085, -0.0135958
0.7226562, -0.2578125, -0.972168, -27.4390259, -174.8170776, 30.3658543, -0.005539
0.7290039, -0.2275391, -0.965332, -26.4634151, -175.6097565, 29.8780499, -0.002182
0.7495117, -0.1733398, -0.9536133, -25.9756107, -177.5, 28.5975609, 0.0159457
0.7563477, -0.1572266, -0.9560547, -26.8902454, -178.2926941, 28.1707325, 0.0213169
0.7626953, -0.1567383, -0.9750977, -29.1463413, -179.0853729, 27.9268303, 0.0045319
0.7651367, -0.1689453, -0.9853516, -30.4268303, -178.6585388, 28.4146347, -0.0273594
0.7675781, -0.2006836, -0.9990234, -31.5243912, -178.7195129, 30.1219521, -0.0377661
0.7563477, -0.2333984, -1.0048828, -30.2439022, -178.2926941, 31.7073174, -0.0585794
0.7519531, -0.2431641, -1.0004883, -29.0243912, -177.6829376, 32.3170738, -0.090135
0.7436523, -0.246582, -1.0073242, -25.7926826, -176.0365906, 33.1097565, -0.0955062
0.7426758, -0.2514648, -1.0102539, -24.1463413, -175, 33.3536606, -0.1003738
0.7270508, -0.2670898, -1.0249023, -22.7439022, -173.4146423, 33.7195129, -0.1055772
0.7202148, -0.2670898, -1.0380859, -22.3170738, -172.8048859, 33.2926826, -0.0943313
0.7158203, -0.2641602, -1.0839844, -22.5, -171.8902435, 32.6219521, -0.0728466
0.7119141, -0.2597656, -1.1010742, -22.6219521, -171.4634247, 32.3780479, -0.0627756
0.7211914, -0.2636719, -1.0952148, -23.3536587, -171.646347, 31.8902454, -0.0377661
0.7304688, -0.2612305, -1.0727539, -23.2926826, -171.7073212, 31.7073174, -0.0048676
0.7451172, -0.2666016, -1.0136719, -22.3780499, -171.1585388, 30.6707325, 0.0166171
0.7216797, -0.2714844, -1.0009766, -21.0365868, -168.5365906, 29.3902454, 0.043473
0.7006836, -0.2675781, -1.019043, -20.4878044, -167.0731812, 28.9634151, 0.043473
0.6391602, -0.2514648, -1.074707, -19.8780499, -165.4268341, 29.4512196, -0.0041962
0.6171875, -0.2397461, -1.0874023, -20.3048782, -165.9756165, 30.4268303, -0.0417945
0.6083984, -0.2177734, -1.0444336, -21.5243912, -169.5121918, 31.5853672, -0.0585794
0.6157227, -0.2182617, -1.0053711, -22.0121956, -171.4634247, 31.6463413, -0.0820783
0.6191406, -0.2358398, -0.9624023, -23.4756107, -173.0487823, 31.280489, -0.0975204
0.6118164, -0.2553711, -0.972168, -23.7195129, -172.8048859, 31.0365868, -0.0981918
0.5795898, -0.2832031, -1.0297852, -24.6951218, -172.8048859, 31.0975609, -0.0861067
0.5644531, -0.2851562, -1.0571289, -24.4512196, -173.4756165, 31.4634151, -0.0820783
0.5576172, -0.2919922, -1.0541992, -23.9634151, -175.9146423, 31.7073174, -0.0753643
0.574707, -0.3032227, -1.0146484, -21.7682934, -178.4146423, 32.4390259, -0.0642863
0.5834961, -0.293457, -1.0024414, -20.8536587, -177.9878082, 33.0487823, -0.0491798
0.5820312, -0.2490234, -1.0224609, -19.5121956, -175.36586, 32.1951218, -0.0525368
0.5644531, -0.2246094, -1.0444336, -19.4512196, -174.2073212, 31.5853672, -0.0632792
0.5385742, -0.2148438, -1.1020508, -20.7926826, -174.3292694, 31.280489, -0.064622
0.5361328, -0.2246094, -1.1269531, -22.1951218, -175.1219482, 31.341465, -0.0582437
0.5541992, -0.265625, -1.1450195, -23.6585369, -177.3780518, 32.8048782, -0.0109102
0.5742188, -0.2915039, -1.1376953, -23.780489, -177.86586, 33.2926826, 0.0961776
0.612793, -0.3198242, -1.1103516, -22.3170738, -176.0975647, 33.5365868, 0.2099794
0.6142578, -0.3061523, -1.1147461, -21.0365868, -173.1097565, 33.2317085, 0.2333104
0.59375, -0.253418, -1.140625, -19.0243912, -166.3414612, 32.2560997, 0.205951
0.5537109, -0.2016602, -1.1420898, -19.3292694, -162.1951294, 31.9512196, 0.1775845
0.5380859, -0.1962891, -1.1220703, -20.060976, -161.7073212, 31.9512196, 0.0715038
0.5200195, -0.2265625, -1.081543, -22.1951218, -162.7439117, 32.0121956, -0.0978561
0.5126953, -0.253418, -1.078125, -22.560976, -162.9878082, 32.0121956, -0.239353
0.5029297, -0.3081055, -1.0908203, -21.8902435, -162.3170776, 32.9878044, -0.261677
0.4980469, -0.3222656, -1.1020508, -20.7926826, -161.646347, 33.0487823, -0.197055
0.4951172, -0.3227539, -1.1142578, -18.6585369, -159.8780518, 32.6829262, -0.0814069
0.4921875, -0.3066406, -1.1166992, -17.9878044, -159.146347, 31.5853672, 0.0199741
0.4912109, -0.2607422, -1.1074219, -19.2073174, -157.1341553, 30.1829281, 0.114641
0.484375, -0.2250977, -1.0561523, -20.4878044, -156.5853729, 29.4512196, 0.1851377
0.4750977, -0.2207031, -1.0224609, -24.0243912, -157.5, 27.1341476, 0.1965515
0.4267578, -0.2290039, -0.9882812, -26.7682934, -158.2317047, 25.3658543, 0.1720455
0.3930664, -0.2412109, -1.0024414, -27.2560978, -158.6585388, 25, 0.1032273
0.3486328, -0.2734375, -1.0693359, -27.560976, -161.0365906, 26.7682934, -0.0052033
0.3491211, -0.2783203, -1.0927734, -27.2560978, -162.9878082, 27.8048782, -0.0904707
0.3881836, -0.2954102, -1.1000977, -26.4634151, -167.1341553, 29.0243912, -0.1418326
0.4135742, -0.2958984, -1.0878906, -25.9756107, -168.1097565, 28.780489, -0.1787594
0.4599609, -0.2885742, -1.0517578, -24.6341476, -166.7682953, 28.780489, -0.2165255
0.4731445, -0.2753906, -1.0288086, -24.0243912, -165.0609741, 28.2317085, -0.248249
0.4575195, -0.2426758, -0.9790039, -23.2317085, -161.7073212, 26.0365868, -0.2442206
0.3901367, -0.2211914, -0.9931641, -22.9878063, -160.7317047, 24.8170738, -0.2210575
0.3466797, -0.2265625, -1.0268555, -23.8414631, -161.4634247, 23.780489, -0.2029297
0.2988281, -0.2109375, -1.0771484, -25.7317085, -165.1219482, 24.9390259, -0.1613031
0.300293, -0.2075195, -1.0874023, -26.3414631, -167.6219482, 25.3048782, -0.1240406
0.3266602, -0.21875, -1.0600586, -27.0121956, -171.4024506, 25.9146347, -0.0961776
0.3476562, -0.2246094, -1.0390625, -27.0121956, -172.0121918, 26.280489, -0.079057
0.3740234, -0.2177734, -1.0253906, -26.2195129, -171.0975647, 26.0365868, -0.100206
0.3691406, -0.2089844, -1.0366211, -25.5487804, -169.8170776, 25.6097565, -0.0783856
0.3466797, -0.1728516, -1.0708008, -25.5487804, -168.7195129, 25.3658543, -0.0397803
0.3364258, -0.1621094, -1.0786133, -25.8536587, -169.3292694, 25.6097565, -0.0169528
0.3203125, -0.1582031, -1.0698242, -27.0731716, -170.9756165, 25.8536587, -0.0095674
0.3198242, -0.1782227, -1.0463867, -27.9878063, -171.646347, 26.1585369, -0.0323949
0.3085938, -0.1904297, -1.0415039, -28.5975609, -172.5609741, 26.8292694, 0.0045319
0.2993164, -0.2177734, -1.0585938, -28.0487804, -172.4390259, 27.3780499, 0.0595865
0.2929688, -0.2207031, -1.0776367, -27.3170738, -172.1341553, 27.2560978, 0.1138018
0.2841797, -0.2260742, -1.1186523, -26.280489, -171.7682953, 27.3780499, 0.139147
0.2885742, -0.2285156, -1.1206055, -26.6463413, -171.7073212, 27.4390259, 0.121355
0.3032227, -0.2124023, -1.0927734, -27.1951218, -171.2804871, 26.8292694, 0.096849
0.3051758, -0.2055664, -1.0727539, -27.3170738, -170.7926941, 26.0975609, 0.0535439
0.2958984, -0.1889648, -1.043457, -27.9878063, -167.9878082, 24.5121956, -0.0011749
0.2773438, -0.1791992, -1.0405273, -28.1707325, -166.5853729, 23.7195129, -0.0318914
0.2382812, -0.1772461, -1.0415039, -28.9634151, -165.4878082, 22.9878063, -0.0602579
0.1928711, -0.2094727, -1.0283203, -29.3902454, -165.7317047, 22.6829281, -0.0760357
0.1796875, -0.2358398, -1.0112305, -29.2682934, -166.7682953, 23.2317085, -0.0767071
0.1601562, -0.2685547, -0.9799805, -26.7073174, -166.5243988, 23.780489, -0.0387732
0.1474609, -0.2583008, -0.9785156, -25.1219521, -165.6707306, 23.5975609, 0.1159838
0.109375, -0.2172852, -0.9926758, -22.3170738, -164.4512177, 22.3780499, 0.2354925
0.0966797, -0.2001953, -1.0043945, -21.8902435, -165.1219482, 22.0121956, 0.240528
0.090332, -0.1962891, -0.984375, -23.4146347, -168.9024506, 22.1341476, 0.2271
0.0976562, -0.2036133, -0.9711914, -24.5121956, -171.0365906, 22.5, 0.2804761
0.1152344, -0.2163086, -0.9677734, -24.9390259, -173.7804871, 21.8902435, 0.2965896
0.1162109, -0.2197266, -0.9970703, -24.2682934, -173.5365906, 21.5853672, 0.1884947
0.1118164, -0.2045898, -1.0883789, -22.439024, -170.9146423, 22.5, 0.068986
0.1328125, -0.1767578, -1.1201172, -21.4024391, -170.2439117, 23.7195129, -0.012253
0.1494141, -0.159668, -1.1083984, -21.5243912, -170.0609741, 25.4268303, -0.1921874
0.1811523, -0.1293945, -1.0419922, -23.2926826, -169.146347, 25.1829281, -0.3801785
0.1879883, -0.1313477, -1.0092773, -24.2682934, -168.1707306, 24.8170738, -0.5324178
0.159668, -0.1396484, -0.9931641, -26.0365868, -165.6097565, 24.2073174, -0.624567
0.1279297, -0.1455078, -1.0058594, -27.4390259, -164.3902435, 24.4512196, -0.6158389
0.0576172, -0.159668, -1.0517578, -29.4512196, -163.5975647, 25.1829281, -0.5226825
0.0366211, -0.1582031, -1.065918, -30.2439022, -164.4512177, 25.6097565, -0.3872282
0.0249023, -0.1645508, -1.0556641, -32.2560997, -167.8048859, 26.8292694, -0.1384756
0.0332031, -0.1713867, -1.0385742, -32.8048782, -169.146347, 26.8902454, 0.1455253
0.0517578, -0.1870117, -1.0258789, -32.9268303, -170.1219482, 27.0121956, 0.3899138
0.0805664, -0.2026367, -1.065918, -32.9878044, -169.3902435, 27.1951218, 0.564477
0.0883789, -0.2109375, -1.0869141, -32.4390259, -166.4024353, 27.3780499, 0.5785763
0.109375, -0.21875, -1.0800781, -32.6219521, -164.7561035, 27.6219521, 0.4842451
0.1171875, -0.206543, -1.0742188, -32.5, -163.4146423, 27.0731716, 0.3825284
0.1054688, -0.1640625, -1.0546875, -33.0487823, -158.8414612, 24.7560978, 0.2408637
0.0869141, -0.1376953, -1.0454102, -33.2926826, -156.5243988, 24.2682934, 0.0797284
0.0405273, -0.1108398, -1.0048828, -36.2804871, -153.7804871, 23.8414631, -0.0339055
0.0258789, -0.1074219, -0.9667969, -37.9268303, -153.6585388, 24.0243912, -0.0921492
-0.0117188, -0.1381836, -0.9135742, -40.9756088, -154.2073212, 23.6585369, -0.1290761
-0.0351562, -0.1523438, -0.9160156, -42.3780479, -154.146347, 23.2926826, -0.142504
-0.0869141, -0.171875, -0.9458008, -43.5365868, -154.3292694, 23.5365868, -0.139147
-0.1206055, -0.1791992, -0.9648438, -44.2682953, -154.6341553, 23.4146347, -0.1441825
-0.1196289, -0.1884766, -0.9511719, -44.2682953, -156.7682953, 22.9878063, -0.172549
-0.1000977, -0.2104492, -0.9003906, -43.5365868, -159.5731812, 22.1341476, -0.1858091
-0.0893555, -0.2128906, -0.8769531, -42.9268303, -160.7926941, 21.280489, -0.181445
-0.0908203, -0.2026367, -0.8613281, -42.2560997, -160.2439117, 19.5121956, -0.1836271
-0.1025391, -0.1845703, -0.8813477, -41.9512215, -158.6585388, 18.9024391, -0.181445
-0.1308594, -0.1323242, -0.9599609, -42.4390259, -155.2439117, 19.3902435, -0.156939
-0.1396484, -0.0991211, -1.0039062, -43.2317085, -154.3292694, 19.8780499, -0.1200122
-0.1254883, -0.0620117, -1.0419922, -45.3658562, -155.0609741, 21.0975609, -0.1317617
-0.1103516, -0.059082, -1.027832, -46.4634171, -156.4634247, 21.6463413, -0.1203479
-0.0493164, -0.1005859, -0.9394531, -48.5365868, -159.0243988, 22.3780499, -0.1022202
-0.003418, -0.1552734, -0.8862305, -48.2926826, -157.2561035, 22.8658543, -0.0708324
-0.0048828, -0.1723633, -0.9101562, -47.1951218, -154.0243988, 23.2926826, 0.0562295
-0.0439453, -0.1894531, -0.9995117, -44.5121956, -144.5731812, 24.6951218, 0.2143435
-0.0600586, -0.1801758, -1.0317383, -43.2317085, -140.8536682, 26.1585369, 0.3059892
-0.0751953, -0.1499023, -1.0068359, -41.6463432, -138.8414612, 26.8902454, 0.3771572
-0.0771484, -0.128418, -0.965332, -41.2195129, -139.0243988, 26.280489, 0.4058595
-0.09375, -0.090332, -0.9248047, -41.4634171, -138.4146423, 23.780489, 0.3432517
-0.112793, -0.0820312, -0.9443359, -42.5609779, -137.0731812, 23.3536587, 0.2005798
-0.1362305, -0.0878906, -1.0185547, -46.0975609, -134.7561035, 25.1829281, 0.1005417
-0.1367188, -0.1025391, -1.0317383, -48.1097565, -134.6951294, 26.0975609, -0.0256809
-0.1000977, -0.1533203, -0.9838867, -49.5121956, -136.8292694, 26.7073174, -0.1359579
-0.0698242, -0.1928711, -0.9125977, -47.8048782, -137.5609741, 25.6097565, -0.219379
-0.0644531, -0.1928711, -0.9091797, -46.8292694, -135.36586, 24.7560978, -0.303975
-0.0898438, -0.1455078, -0.9794922, -46.2195129, -127.7439041, 23.4756107, -0.3753109
-0.1147461, -0.109375, -1.0249023, -47.1951218, -123.9024429, 22.8048782, -0.4100557
-0.1391602, -0.0556641, -1.0444336, -51.1585388, -119.7561035, 22.2560978, -0.3382162
-0.1362305, -0.0585938, -1.0019531, -53.5365868, -120.6707382, 21.5243912, -0.1505608
-0.1142578, -0.1123047, -0.8530273, -56.6463432, -125.9146347, 19.3902435, -0.0471656
-0.1083984, -0.1420898, -0.7963867, -57.1341476, -127.5, 18.2317085, 0.0169528
-0.1474609, -0.1694336, -0.7954102, -56.5853653, -123.3536606, 16.9512196, 0.0783856
-0.1865234, -0.1655273, -0.8320312, -55.8536606, -119.146347, 17.6829281, 0.0716716
-0.2602539, -0.1196289, -0.8950195, -55.3048782, -113.7804871, 18.7195129, -0.0068818
-0.293457, -0.0883789, -0.8696289, -55.2439041, -115.7926865, 18.4756107, -0.1005417
-0.2919922, -0.0883789, -0.8325195, -55.4878044, -118.6585388, 17.9268303, -0.1394827
-0.2792969, -0.1010742, -0.7612305, -55.7926826, -124.9390259, 16.3414631, -0.0676432
-0.2744141, -0.1171875, -0.7431641, -55.9756126, -126.5243912, 16.0975609, 0.0381018
-0.2832031, -0.1347656, -0.7963867, -56.341465, -127.1951218, 15.7926836, 0.1153124
-0.293457, -0.137207, -0.8466797, -56.4634171, -126.4024429, 16.4024391, 0.128069
-0.3056641, -0.1166992, -0.9174805, -56.9512215, -126.5853653, 18.5365849, 0.117998
-0.2963867, -0.0981445, -0.9199219, -56.7073174, -127.6219559, 19.6951218, 0.0871138
-0.2578125, -0.0595703, -0.8710938, -55.4268303, -129.3292694, 19.8170738, 0.0119173
-0.2397461, -0.0454102, -0.8466797, -54.8780518, -129.4512177, 19.4512196, -0.0839246
-0.21875, -0.0581055, -0.8256836, -55.3048782, -127.7439041, 19.0243912, -0.1441825
-0.2133789, -0.0820312, -0.8520508, -56.6463432, -125, 20.3658543, -0.1794308
-0.2192383, -0.0908203, -0.8813477, -57.1341476, -122.8048782, 21.0365868, -0.1720455
-0.2304688, -0.090332, -0.9477539, -56.4024391, -116.8902435, 21.9512196, -0.1586175
-0.234375, -0.0854492, -0.9702148, -55.4268303, -114.3902435, 22.1341476, -0.1566033
-0.2275391, -0.090332, -0.9868164, -54.1463432, -110.9756088, 22.1341476, -0.1643244
-0.2197266, -0.0888672, -0.9819336, -54.2682953, -109.9390259, 22.3170738, -0.1324331
-0.2080078, -0.0678711, -0.9379883, -54.8780518, -107.3170776, 22.8658543, -0.1062486
-0.2060547, -0.0512695, -0.9023438, -55.6707344, -105.4268341, 22.6219521, -0.1012131
-0.2211914, -0.0141602, -0.8110352, -57.1341476, -99.7561035, 20.4268303, -0.0975204
-0.2382812, -0.0185547, -0.7744141, -57.5609779, -97.1341476, 18.8414631, -0.1166552
-0.2958984, -0.0688477, -0.7539062, -58.5975609, -93.9024429, 17.560976, -0.0988632
-0.3588867, -0.1308594, -0.7929688, -58.9634171, -93.5365906, 18.7195129, -0.068986
-0.3779297, -0.1577148, -0.8120117, -58.3536606, -94.3902435, 19.7560978, -0.0565652
-0.3955078, -0.1616211, -0.8173828, -55.9756126, -95.9146347, 21.280489, -0.0632792
-0.3945312, -0.1235352, -0.7993164, -54.2073174, -96.3414688, 20.8536587, -0.0647898
-0.3974609, -0.0273438, -0.7436523, -53.1097565, -94.9390259, 17.7439022, -0.0485084
-0.4042969, 0.0131836, -0.715332, -53.7195129, -94.2682953, 15.5487804, -0.0394446
-0.4238281, 0.0166016, -0.7016602, -57.8048782, -94.3902435, 12.8048782, -0.0305486
-0.4360352, -0.0043945, -0.7128906, -60.2439041, -95.5487823, 12.5, -0.0176242
-0.4487305, -0.0883789, -0.7617188, -62.8048782, -99.7561035, 14.5731707, 0.0031891
-0.4448242, -0.1240234, -0.784668, -62.8658562, -102.0731735, 16.2195129, 0.0481727
-0.4179688, -0.1630859, -0.7797852, -59.5121956, -105.1219559, 19.0853672, 0.085771
-0.3759766, -0.1230469, -0.7407227, -53.6585388, -103.2926865, 19.1463413, 0.1193408
-0.3666992, -0.0878906, -0.7353516, -51.341465, -100.2439041, 18.2926826, 0.1498894
-0.3735352, -0.0512695, -0.762207, -49.5121956, -94.8170776, 16.0365849, 0.1371328
-0.3793945, -0.0561523, -0.78125, -50, -93.6585388, 15.7317076, 0.0951705
-0.3891602, -0.0795898, -0.8037109, -51.7073174, -94.7561035, 16.2195129, 0.0394446
-0.3916016, -0.0888672, -0.8125, -52.3170738, -95.7317123, 16.6463413, -0.0082246
-0.3989258, -0.0517578, -0.8266602, -52.0731735, -95.3658524, 17.1951218, -0.04448
