Application:, Trigno Discover (1.6.5)
Date/Time:, 05/02/2025 16:34:44
Collection Length (seconds):, 30.807
wrist (81457), , , , , , bicep (81139)
sensor mode: 609, , , , , , sensor mode: 40
ACC X (G), ACC Y (G), ACC Z (G), GYRO X (deg/s), GYRO Y (deg/s), GYRO Z (deg/s), EMG 1 (mV)
370.3704 Hz, 370.3704 Hz, 370.3704 Hz, 370.3704 Hz, 370.3704 Hz, 370.3704 Hz, 2148.1481 Hz
1.0048828, -0.0922852, -0.2172852, -14.9390249, -9.6951218, 3.9634147, 0.0273594
1.0043945, -0.0917969, -0.2211914, -15.3658543, -9.2682924, 3.9024391, 0.0085603
1.0063477, -0.0957031, -0.2211914, -16.0975609, -9.2073174, 4.1463413, 0.0001678
1.0019531, -0.1000977, -0.2177734, -16.2195129, -9.3292685, 4.2073174, -0.0052033
1.0009766, -0.1040039, -0.2089844, -16.1585369, -9.2073174, 4.2682929, -0.0035248
1.0004883, -0.105957, -0.2041016, -15.7317076, -8.9634151, 4.5121951, -0.0041962
0.9946289, -0.105957, -0.203125, -15.2439032, -8.5975609, 4.4512196, -0.0052033
0.9931641, -0.0996094, -0.2050781, -15.060976, -8.2317076, 4.5121951, -0.0045319
0.9887695, -0.1010742, -0.2050781, -15.5487804, -8.3536587, 4.2073174, -0.0068818
0.9912109, -0.1020508, -0.2045898, -15.6707325, -8.4146347, 4.2682929, -0.0102388
0.9921875, -0.1000977, -0.203125, -15.7317076, -8.5365858, 4.3292685, -0.0075532
0.9936523, -0.1040039, -0.2045898, -15.1829271, -8.4146347, 4.4512196, -0.0028534
0.9990234, -0.1040039, -0.2016602, -15, -8.3536587, 4.6341462, 0.0204776
0.9970703, -0.1103516, -0.1918945, -15, -7.9268293, 4.7560978, 0.0293736
0.9975586, -0.105957, -0.1860352, -15.1219511, -7.6829271, 4.8170733, 0.0298772
0.9897461, -0.1079102, -0.1875, -15, -6.9512196, 4.5731707, 0.0431373
0.9887695, -0.1040039, -0.1948242, -14.9390249, -7.3170733, 4.4512196, 0.0419623
0.9819336, -0.1025391, -0.2050781, -14.1463413, -7.7439027, 4.2682929, 0.033402
0.9804688, -0.105957, -0.2114258, -13.9024391, -7.8658538, 4.3292685, 0.026688
0.9873047, -0.105957, -0.2089844, -13.9634151, -7.9268293, 4.5731707, 0.0226596
0.9980469, -0.1049805, -0.1928711, -13.6585369, -7.1951222, 4.6341462, 0.0092317
1, -0.1074219, -0.1860352, -13.3536587, -7.0731707, 4.6341462, -0.0045319
0.9980469, -0.1132812, -0.1699219, -12.9268293, -6.9512196, 4.0853658, -0.0149386
0.9936523, -0.1118164, -0.1625977, -12.6829271, -6.890244, 3.8414636, -0.0310521
0.9785156, -0.1166992, -0.1557617, -12.3780489, -7.6219516, 3.9024391, -0.0493477
0.9692383, -0.1162109, -0.1586914, -12.3780489, -7.8658538, 3.9634147, -0.0679789
0.9672852, -0.1235352, -0.171875, -13.1707315, -8.6585369, 4.2682929, -0.0788891
0.9648438, -0.1333008, -0.1816406, -13.4756098, -9.1463413, 4.2073174, -0.0844282
0.9672852, -0.1328125, -0.1850586, -13.1707315, -10, 3.9024391, -0.0918135
0.9868164, -0.1254883, -0.184082, -12.4390249, -10.1219511, 3.8414636, -0.0981918
0.9946289, -0.1201172, -0.1821289, -9.8780489, -9.6341467, 4.390244, -0.1013809
1.0166016, -0.1103516, -0.1918945, -7.6829271, -8.719512, 4.1463413, -0.096849
1.015625, -0.1049805, -0.1992188, -7.0121951, -8.1707315, 3.7195122, -0.0923171
1.0175781, -0.0991211, -0.2109375, -7.2560978, -6.890244, 4.0243902, -0.0867781
1.0092773, -0.0961914, -0.2124023, -7.3780489, -6.6463418, 4.2073174, -0.0800641
0.9975586, -0.0888672, -0.1992188, -7.3170733, -6.4634147, 3.9634147, -0.0753643
0.9902344, -0.0864258, -0.1938477, -7.0121951, -6.280488, 4.5731707, -0.0703288
0.9780273, -0.0834961, -0.1894531, -5.9146342, -6.0365853, 4.7560978, -0.0652934
0.9638672, -0.0917969, -0.1987305, -5.7317076, -5.9146342, 4.6951222, -0.0622721
0.9604492, -0.097168, -0.2026367, -5.4268293, -6.0975609, 5.0609756, -0.0575723
0.9560547, -0.1137695, -0.2011719, -5.3048782, -6.3414636, 5.3658538, -0.0525368
0.9594727, -0.1201172, -0.2050781, -5.1829271, -6.3414636, 5.609756, -0.0407874
0.9667969, -0.1191406, -0.2060547, -4.390244, -5.609756, 5.670732, -0.0323949
0.9770508, -0.1162109, -0.2138672, -3.9634147, -5.5487804, 5.670732, -0.0246738
0.9902344, -0.1079102, -0.2119141, -3.8414636, -5.0609756, 5.9756098, -0.0186313
0.9946289, -0.1040039, -0.2148438, -3.7804878, -4.8780489, 5.5487804, -0.0169528
1.0009766, -0.1015625, -0.2084961, -4.8780489, -4.390244, 5.1219511, -0.0115816
0.9980469, -0.0996094, -0.2075195, -5.3658538, -4.0853658, 5.1829271, -0.0052033
0.9902344, -0.1005859, -0.2036133, -6.5853658, -4.0853658, 5.0609756, 0.0137636
0.9873047, -0.1074219, -0.1943359, -6.7682929, -4.0243902, 5.4268293, 0.0421302
0.9838867, -0.1103516, -0.1923828, -6.890244, -4.0243902, 5.3048782, 0.0481727
0.9760742, -0.1176758, -0.184082, -6.8292685, -4.4512196, 5.4268293, 0.0486763
0.9746094, -0.1206055, -0.1821289, -7.3780489, -5.0609756, 5.3048782, 0.043473
0.9707031, -0.1259766, -0.1782227, -8.2926826, -6.3414636, 5.3048782, 0.0387732
0.9677734, -0.1274414, -0.1728516, -9.1463413, -7.3170733, 5.3658538, 0.04448
0.9643555, -0.1323242, -0.1699219, -9.8780489, -8.5975609, 5.3048782, 0.0411231
0.965332, -0.1308594, -0.1723633, -9.8170738, -9.2073174, 5.0609756, 0.0320592
0.96875, -0.1259766, -0.1855469, -9.5121956, -9.3292685, 4.8780489, 0.0199741
0.9731445, -0.1181641, -0.1899414, -9.7560978, -9.2073174, 4.5731707, 0.0152743
0.972168, -0.0986328, -0.1982422, -9.6951218, -9.3902445, 5, 0.0199741
0.9819336, -0.0791016, -0.1982422, -9.8170738, -8.9024391, 4.9390244, 0.0219883
0.9848633, -0.0737305, -0.2011719, -10.3658543, -9.0853662, 4.5121951, 0.0092317
0.9833984, -0.0766602, -0.2070312, -10.6097565, -9.4512196, 4.5731707, -0.0125887
0.9853516, -0.0800781, -0.203125, -11.9512196, -9.7560978, 4.6341462, -0.0273594
0.9780273, -0.0893555, -0.1987305, -12.9268293, -9.9390249, 5, -0.0471656
0.9726562, -0.0986328, -0.1943359, -13.2317076, -9.8780489, 5.0609756, -0.0753643
0.9726562, -0.1142578, -0.1835938, -12.9268293, -9.5731707, 4.8780489, -0.1032273
0.9726562, -0.1181641, -0.1777344, -12.5, -9.6951218, 4.5731707, -0.1129625
0.9702148, -0.1264648, -0.1669922, -12.0731707, -9.8170738, 4.3292685, -0.0916457
0.9711914, -0.1269531, -0.1621094, -11.5243902, -10, 4.1463413, -0.0464942
0.9589844, -0.1186523, -0.1665039, -10.7926836, -10.2439022, 4.0853658, -0.0001678
0.9667969, -0.1176758, -0.1928711, -10.6097565, -10.1829271, 3.5975611, 0.0357519
0.9633789, -0.112793, -0.206543, -10.5487804, -10, 3.5365853, 0.0874495
0.9707031, -0.1098633, -0.2260742, -10.7926836, -10.1829271, 3.8414636, 0.0991989
0.9770508, -0.1088867, -0.2299805, -11.1585369, -10, 3.7804878, 0.0468299
0.9916992, -0.1088867, -0.2260742, -12.1341467, -9.7560978, 3.7804878, -0.0001678
0.9931641, -0.1069336, -0.2250977, -12.4390249, -9.2073174, 4.0853658, -0.0340734
0.996582, -0.0996094, -0.2270508, -13.0487804, -8.0487804, 3.4146342, -0.057908
0.9936523, -0.1025391, -0.2270508, -13.2317076, -7.5, 3.6585367, -0.0753643
0.9838867, -0.1005859, -0.230957, -13.9024391, -6.7073174, 3.4756098, -0.0850996
0.9814453, -0.1074219, -0.2363281, -14.1463413, -6.5243902, 3.5975611, -0.0941634
0.9819336, -0.112793, -0.2338867, -14.6951227, -6.0975609, 3.7804878, -0.0894636
0.9770508, -0.1230469, -0.2314453, -14.8170738, -5.9756098, 3.9634147, -0.0897993
0.9790039, -0.1230469, -0.2319336, -14.6951227, -4.3292685, 4.3292685, -0.0944991
0.9775391, -0.1113281, -0.2329102, -14.6341467, -3.7195122, 4.5121951, -0.1022202
0.980957, -0.1083984, -0.2338867, -14.1463413, -2.3170731, 4.2073174, -0.1055772
0.9765625, -0.1035156, -0.2358398, -14.6341467, -1.5853659, 4.0853658, -0.0923171
0.9790039, -0.1020508, -0.2392578, -14.6951227, -1.0365853, 4.0243902, -0.0897993
0.9829102, -0.1035156, -0.2299805, -15.4268293, -0.7317073, 4.2682929, -0.1015488
0.9858398, -0.1025391, -0.2260742, -15.1219511, -0.7317073, 4.3292685, -0.0908064
0.9951172, -0.1049805, -0.1987305, -15, 0.0609756, 4.3292685, -0.0730144
0.9936523, -0.1040039, -0.1899414, -14.6341467, 0.4268293, 4.5731707, -0.0619364
0.9790039, -0.1010742, -0.1835938, -14.8780489, 0.8536586, 4.2073174, -0.0525368
0.9575195, -0.1064453, -0.1918945, -15.3658543, 0.7926829, 4.2073174, -0.0391089
0.9487305, -0.105957, -0.1943359, -16.7682934, 0.1219512, 4.6341462, -0.0339055
0.9394531, -0.1118164, -0.1870117, -17.0731716, -0.9756098, 5, -0.0263523
0.9448242, -0.1235352, -0.1831055, -17.6219521, -2.9268293, 5.2439027, -0.0313878
0.9589844, -0.1303711, -0.1665039, -16.6463413, -3.5365853, 5, -0.0337377
0.9633789, -0.1298828, -0.1567383, -15.9756098, -3.3536587, 4.8780489, -0.0330663
0.9643555, -0.1191406, -0.1416016, -15.2439032, -3.2926829, 4.6951222, -0.0347448
0.9599609, -0.1162109, -0.1357422, -14.7560978, -3.4146342, 4.8780489, -0.0340734
0.9477539, -0.1166992, -0.1430664, -14.7560978, -4.5121951, 4.5731707, -0.0364233
0.9394531, -0.121582, -0.15625, -14.6341467, -5.5487804, 4.4512196, -0.0352483
0.9316406, -0.1386719, -0.1884766, -15.6097565, -7.3170733, 4.4512196, -0.0327306
0.9443359, -0.1416016, -0.2016602, -15.9756098, -8.2317076, 4.8170733, -0.040116
0.953125, -0.1425781, -0.1992188, -16.0365849, -8.719512, 5.0609756, -0.0419623
0.980957, -0.1318359, -0.1860352, -15.7317076, -8.4146347, 5.1829271, -0.0411231
0.9921875, -0.1240234, -0.1811523, -13.9024391, -7.9268293, 4.8170733, -0.0325628
1.0053711, -0.1015625, -0.1928711, -13.1097565, -7.4390244, 4.390244, -0.0176242
1.0063477, -0.0976562, -0.2050781, -13.2317076, -6.8292685, 4.0853658, -0.0162814
0.9980469, -0.1000977, -0.2260742, -15.1219511, -7.1951222, 4.3292685, -0.0146029
0.9931641, -0.1044922, -0.2290039, -15.9146347, -7.3170733, 4.6951222, -0.0149386
0.9916992, -0.1225586, -0.215332, -16.6463413, -8.3536587, 5.1219511, -0.0223239
0.9921875, -0.125, -0.2016602, -16.5853653, -8.6585369, 5.1829271, -0.0280308
0.9956055, -0.1254883, -0.1972656, -15.7926836, -8.0487804, 4.9390244, -0.0317235
0.9902344, -0.1152344, -0.206543, -15.4268293, -7.7439027, 4.7560978, -0.0288701
0.9848633, -0.1088867, -0.2094727, -15.8536587, -7.1341467, 4.5731707, -0.0229953
0.9853516, -0.1079102, -0.2143555, -16.0975609, -7.5609756, 4.5121951, -0.0186313
0.9848633, -0.1074219, -0.2177734, -17.1951218, -8.1097565, 4.7560978, -0.018967
0.9921875, -0.1054688, -0.2148438, -17.8048782, -8.2926826, 4.7560978, -0.0119173
0.9970703, -0.1040039, -0.2045898, -17.7439022, -8.2926826, 5.0609756, -0.0082246
1.0048828, -0.1054688, -0.1914062, -17.1951218, -7.6829271, 4.4512196, -0.0018463
1.0068359, -0.105957, -0.1889648, -17.0121956, -7.6219516, 4.2682929, 0.0068818
1.0009766, -0.1235352, -0.1884766, -17.5, -7.3170733, 3.6585367, 0.0193027
0.9931641, -0.137207, -0.1865234, -17.9268303, -7.5, 3.7804878, 0.0229953
0.9716797, -0.152832, -0.1884766, -18.1707325, -7.3780489, 3.2926829, 0.0193027
0.9619141, -0.159668, -0.1928711, -18.1707325, -7.6219516, 3.5365853, 0.0166171
0.9541016, -0.1577148, -0.1962891, -17.3780499, -7.4390244, 3.5975611, 0.0166171
0.9638672, -0.1494141, -0.2001953, -16.3414631, -7.6219516, 3.2926829, 0.0159457
0.9682617, -0.1420898, -0.2016602, -15.1829271, -7.2560978, 2.5609756, 0.0125887
0.9838867, -0.1254883, -0.2011719, -14.6341467, -6.7073174, 2.0121951, 0.0146029
0.9897461, -0.1186523, -0.199707, -14.5731707, -6.7682929, 2.1341465, 0.0119173
0.9887695, -0.1083984, -0.1923828, -16.0365849, -6.3414636, 1.8902439, 0.0125887
0.987793, -0.105957, -0.1962891, -16.2195129, -5.9756098, 1.9512196, 0.0226596
0.9814453, -0.109375, -0.1914062, -17.0731716, -6.2195125, 1.7682927, 0.026688
0.9799805, -0.1137695, -0.1918945, -17.2560978, -6.7073174, 2.2560976, 0.0320592
0.9775391, -0.1098633, -0.1977539, -17.2560978, -7.3170733, 2.2560976, 0.0372625
0.9790039, -0.1040039, -0.2026367, -17.5, -7.3170733, 2.5609756, 0.0357519
0.9785156, -0.1000977, -0.2045898, -17.6829281, -6.6463418, 2.5609756, 0.036759
0.9833984, -0.1020508, -0.2124023, -17.8048782, -6.6463418, 2.6829269, 0.030045
0.9833984, -0.1005859, -0.2158203, -18.7195129, -6.7682929, 2.5609756, 0.0253452
0.9829102, -0.1000977, -0.2182617, -19.5731716, -7.1341467, 3.0487804, 0.0182956
0.9838867, -0.1049805, -0.2138672, -19.7560978, -7.0121951, 3.4756098, 0.011078
0.9799805, -0.1079102, -0.1987305, -20.3048782, -7.0731707, 4.1463413, 0.0005035
0.9799805, -0.1088867, -0.1899414, -20.4878044, -6.890244, 4.0853658, -0.0115816
0.972168, -0.1132812, -0.1796875, -19.8780499, -6.8292685, 3.7804878, -0.0203098
0.9702148, -0.1118164, -0.1801758, -20, -6.890244, 4.2073174, -0.0270237
0.9604492, -0.1171875, -0.1879883, -20.1829281, -7.5609756, 3.9634147, -0.0359197
0.9741211, -0.1162109, -0.1948242, -20.4268303, -8.1097565, 4.390244, -0.0350805
0.9804688, -0.1181641, -0.1933594, -20.9756107, -9.6951218, 4.4512196, -0.0397803
0.9936523, -0.1225586, -0.1918945, -20.4268303, -10.060976, 4.5121951, -0.0391089
0.9980469, -0.1259766, -0.1889648, -20.1219521, -9.9390249, 4.4512196, -0.0350805
1.0083008, -0.1313477, -0.1772461, -20.2439022, -9.6341467, 3.9024391, -0.0370947
1.0078125, -0.1333008, -0.1733398, -19.8170738, -9.6951218, 4.0853658, -0.0404517
0.9975586, -0.1347656, -0.1772461, -19.6951218, -9.5731707, 3.9024391, -0.0475013
0.9897461, -0.1328125, -0.1821289, -19.4512196, -9.8170738, 3.9634147, -0.047837
0.9755859, -0.125, -0.199707, -19.0243912, -10.6097565, 3.6585367, -0.030045
0.9750977, -0.1235352, -0.2045898, -19.2073174, -11.0365858, 3.8414636, -0.0229953
0.9799805, -0.1166992, -0.2001953, -19.2073174, -11.6463413, 3.8414636, -0.0112459
0.9892578, -0.1098633, -0.1845703, -19.1463413, -11.4634151, 3.7195122, 0.0065461
0.9873047, -0.109375, -0.1762695, -19.3292694, -11.341464, 3.5365853, 0.0052033
0.9873047, -0.1044922, -0.1762695, -18.780489, -10.9756098, 3.0487804, 0.0038605
0.9848633, -0.1088867, -0.1791992, -19.0243912, -11.0975609, 3.0487804, 0.0077211
0.9824219, -0.1210938, -0.1865234, -19.2073174, -11.8292685, 2.9878049, 0.0172885
0.980957, -0.1240234, -0.1889648, -19.2073174, -12.1341467, 2.8658538, 0.0426337
0.9755859, -0.1386719, -0.199707, -19.3292694, -12.4390249, 2.6219513, 0.0515297
0.9799805, -0.1420898, -0.2060547, -19.2682934, -12.3170738, 2.5, 0.0683146
0.9790039, -0.1601562, -0.2172852, -18.8414631, -12.0121956, 2.2560976, 0.0683146
0.9804688, -0.1611328, -0.2182617, -18.5975609, -11.7073174, 2.0731707, 0.036759
0.9785156, -0.1494141, -0.2075195, -17.560976, -11.1585369, 2.195122, -0.0078889
0.9868164, -0.1240234, -0.1967773, -16.8902435, -10.4878054, 2.195122, -0.0485084
0.9863281, -0.1162109, -0.1987305, -16.0365849, -9.7560978, 1.8292683, -0.0693217
0.9838867, -0.1088867, -0.2080078, -16.5853653, -10.060976, 1.402439, -0.0748608
0.980957, -0.1098633, -0.2143555, -17.439024, -10.6097565, 1.4634147, -0.0575723
0.9931641, -0.1123047, -0.2094727, -19.2073174, -11.5853662, 1.8902439, -0.0317235
0.9941406, -0.1181641, -0.2026367, -19.5731716, -12.1341467, 1.8902439, -0.0008392
1.0009766, -0.1152344, -0.1992188, -19.1463413, -12.2560978, 2.3170731, 0.0229953
1.0073242, -0.1098633, -0.2036133, -19.0243912, -12.0731707, 2.195122, 0.0431373
1.0107422, -0.112793, -0.2163086, -18.8414631, -11.8902445, 2.0121951, 0.0370947
1.0102539, -0.1137695, -0.2163086, -19.4512196, -11.9512196, 1.8292683, 0.0193027
1.0063477, -0.1196289, -0.2001953, -20.7926826, -12.6829271, 2.3780489, -0.0018463
0.9916992, -0.1264648, -0.175293, -21.280489, -12.8658543, 2.5, -0.0243381
0.987793, -0.1225586, -0.1743164, -21.0365868, -13.2926836, 2.3780489, -0.0411231
0.9731445, -0.1152344, -0.1982422, -20.9146347, -13.2926836, 2.2560976, -0.0525368
0.9702148, -0.1118164, -0.222168, -20.9756107, -13.5365858, 2.195122, -0.0639506
0.96875, -0.1079102, -0.2661133, -22.5, -14.2682934, 2.4390244, -0.079057
0.9746094, -0.1074219, -0.2758789, -23.8414631, -14.9390249, 2.7439024, -0.0874495
0.9931641, -0.1176758, -0.2739258, -25, -14.6341467, 2.804878, -0.0909743
1.0073242, -0.1259766, -0.2670898, -24.8780499, -14.6951227, 2.8658538, -0.076875
1.0175781, -0.1303711, -0.2431641, -24.0853672, -12.8048782, 2.7439024, -0.0733501
1.0151367, -0.1367188, -0.2250977, -23.780489, -11.5853662, 2.8658538, -0.0797284
0.996582, -0.1352539, -0.2016602, -22.6219521, -9.8780489, 3.4146342, -0.0793927
0.9697266, -0.1318359, -0.2075195, -22.6219521, -9.5121956, 3.4146342, -0.0696574
0.956543, -0.1293945, -0.2241211, -23.3536587, -9.8780489, 3.4756098, -0.0636149
0.9472656, -0.1289062, -0.2631836, -25.4268303, -11.4634151, 3.6585367, -0.0411231
0.9541016, -0.128418, -0.2768555, -26.0365868, -12.5, 4.2073174, -0.0075532
0.9863281, -0.1269531, -0.2685547, -26.8902454, -13.5365858, 4.5731707, 0.0038605
1.0024414, -0.1259766, -0.2573242, -26.8292694, -13.780488, 4.390244, -0.0028534
1.0268555, -0.1328125, -0.2368164, -26.2195129, -13.5975609, 4.0243902, -0.0045319
1.0336914, -0.1323242, -0.2299805, -26.2195129, -13.1097565, 3.9634147, -0.0038605
1.0141602, -0.1381836, -0.2363281, -26.6463413, -11.9512196, 4.4512196, 0.0036927
1.0024414, -0.1333008, -0.2456055, -27.4390259, -11.5853662, 4.8170733, 0.0005035
0.9643555, -0.1201172, -0.2563477, -28.6585369, -11.8292685, 5.9146342, -0.0075532
0.9438477, -0.1025391, -0.2524414, -28.7195129, -12.4390249, 6.3414636, -0.012253
0.9389648, -0.0947266, -0.2441406, -30.1829281, -14.6341467, 7.1951222, -0.0052033
0.9467773, -0.0820312, -0.2148438, -31.7073174, -16.3414631, 7.3780489, 0.0031891
0.9526367, -0.078125, -0.2001953, -32.8048782, -17.3170738, 7.5, 0.0169528
0.9628906, -0.0830078, -0.199707, -35.1219521, -19.2073174, 7.3170733, 0.0152743
0.9667969, -0.0942383, -0.2104492, -36.5243912, -20.1829281, 6.8292685, 0.0011749
0.9643555, -0.1269531, -0.246582, -40, -22.6829281, 6.9512196, -0.0146029
0.9643555, -0.1386719, -0.262207, -40.7926826, -24.0853672, 7.2560978, -0.0345769
0.9848633, -0.1591797, -0.2636719, -40.9756088, -26.0975609, 8.1707315, -0.0525368
0.9912109, -0.1645508, -0.2578125, -40.1829262, -26.5853672, 8.2926826, -0.0686503
1.0009766, -0.159668, -0.2392578, -37.9268303, -26.3414631, 8.1097565, -0.0713359
0.9951172, -0.1474609, -0.2324219, -36.8902435, -25.9756107, 8.1097565, -0.0468299
0.987793, -0.1386719, -0.237793, -35.9756088, -25.2439022, 7.9878049, -0.0135958
0.9555664, -0.1289062, -0.2436523, -36.0975609, -26.280489, 8.4146347, 0.0166171
0.9462891, -0.1264648, -0.2529297, -36.4634171, -27.3780499, 8.4146347, 0.0142672
0.9418945, -0.1264648, -0.2719727, -37.3170738, -29.5121956, 8.9634151, 0.0065461
0.940918, -0.1259766, -0.2895508, -37.5609779, -30.1219521, 8.841464, 0.0005035
0.953125, -0.1245117, -0.3203125, -38.1097565, -31.0975609, 8.780488, -0.0159457
0.9628906, -0.1279297, -0.3251953, -38.4146347, -31.2195129, 8.9024391, -0.0357519
0.9936523, -0.1333008, -0.3203125, -38.2926826, -31.280489, 8.841464, -0.054551
1.0073242, -0.1191406, -0.3178711, -38.4146347, -30.8536587, 9.0853662, -0.0669718
1.0073242, -0.1142578, -0.3188477, -38.2317085, -29.5731716, 9.6341467, -0.0767071
0.9970703, -0.0976562, -0.3164062, -38.841465, -28.7195129, 10.1829271, -0.0795605
0.9897461, -0.0834961, -0.3095703, -40.1829262, -28.5975609, 11.6463413, -0.0814069
0.9755859, -0.0717773, -0.2958984, -41.4634171, -30.060976, 12.3780489, -0.0793927
0.9760742, -0.0722656, -0.2905273, -42.1951218, -31.2195129, 12.6219511, -0.0605936
0.980957, -0.0820312, -0.2885742, -43.7804871, -33.7804871, 12.8048782, -0.0458228
0.9824219, -0.0996094, -0.2861328, -44.3902435, -34.8170738, 13.2926836, -0.0438087
0.9990234, -0.1269531, -0.2773438, -44.8780479, -36.7682953, 13.0487804, -0.0458228
1.0097656, -0.140625, -0.2709961, -44.6951218, -37.6829262, 12.9878054, -0.0488441
1.0195312, -0.1679688, -0.2563477, -43.7195129, -39.6951218, 12.5, -0.051194
1.0195312, -0.1787109, -0.2680664, -42.9878044, -39.6341476, 12.8658543, -0.0473335
1.0185547, -0.1782227, -0.2895508, -40.7926826, -40.2439041, 12.9268293, -0.0391089
1.0126953, -0.1708984, -0.328125, -40.1219521, -40.4878044, 12.8658543, -0.0310521
1.0087891, -0.1645508, -0.3417969, -39.1463432, -40.9146347, 12.8048782, -0.0297093
1.0146484, -0.1577148, -0.3525391, -38.1097565, -42.1341476, 12.8658543, -0.018967
1.0209961, -0.1542969, -0.3535156, -37.3780479, -42.6829262, 12.5, -0.0182956
1.0302734, -0.15625, -0.3383789, -36.2804871, -43.1097565, 11.7682934, -0.0243381
1.0302734, -0.1640625, -0.3286133, -35.9146347, -43.5365868, 11.341464, -0.0297093
1.0151367, -0.1801758, -0.3105469, -34.7560997, -43.841465, 11.341464, -0.0048676
1.0063477, -0.190918, -0.2988281, -34.2682953, -44.2682953, 11.0975609, 0.0219883
0.9887695, -0.2124023, -0.2851562, -32.4390259, -45.9146347, 11.341464, 0.0075532
0.9731445, -0.2138672, -0.2875977, -31.2195129, -46.5853653, 11.219512, -0.0283665
0.96875, -0.2114258, -0.2973633, -28.780489, -48.5975609, 11.219512, -0.0394446
0.9814453, -0.1967773, -0.3276367, -27.2560978, -49.5121956, 10.8536587, -0.0152743
0.9882812, -0.1889648, -0.3466797, -25.9756107, -51.1585388, 10.2439022, 0.0085603
1.0087891, -0.1689453, -0.375, -25.3658543, -52.5, 9.8780489, 0.0276951
1.0224609, -0.1621094, -0.3857422, -25.6097565, -53.0487823, 9.6341467, 0.0414588
1.0356445, -0.1494141, -0.3994141, -26.0365868, -53.2926826, 9.5121956, 0.0276951
1.0375977, -0.144043, -0.3964844, -26.280489, -53.4756126, 9.6951218, 0.0008392
1.0375977, -0.1411133, -0.3706055, -25.7926826, -53.4146347, 10.3048782, -0.0337377
1.0327148, -0.140625, -0.3618164, -25.3658543, -53.4756126, 10.6097565, -0.0708324
1.0073242, -0.1420898, -0.3666992, -24.8780499, -54.2682953, 11.0365858, -0.0965133
0.9804688, -0.1430664, -0.3959961, -24.8780499, -54.6341476, 11.219512, -0.1099413
0.9736328, -0.1416016, -0.4160156, -25.9146347, -55.6097565, 11.341464, -0.1188373
0.9726562, -0.1513672, -0.4477539, -26.4634151, -56.4634171, 11.4634151, -0.1206836
0.9892578, -0.1586914, -0.4570312, -27.4390259, -58.0487823, 11.5853662, -0.1200122
1.0146484, -0.1704102, -0.4667969, -27.5, -58.841465, 11.1585369, -0.1062486
1.0273438, -0.1733398, -0.4633789, -27.3780499, -58.5975609, 10.9146347, -0.0921492
1.0351562, -0.1665039, -0.4458008, -26.3414631, -57.7439041, 10.9146347, -0.085771
1.0302734, -0.1567383, -0.4321289, -25.5487804, -56.8902435, 11.1585369, -0.072343
1.0175781, -0.1362305, -0.4140625, -24.5731716, -56.0975609, 11.9512196, -0.0636149
1.0097656, -0.1337891, -0.409668, -24.6341476, -56.4634171, 12.3170738, -0.0609293
0.9892578, -0.1416016, -0.4160156, -25.9756107, -57.9878044, 11.9512196, -0.0592508
0.96875, -0.1552734, -0.440918, -26.7682934, -58.841465, 12.0731707, -0.0538796
0.9628906, -0.1694336, -0.4487305, -28.3536587, -60.4878044, 11.8292685, -0.0562295
0.9663086, -0.1923828, -0.453125, -28.2926826, -61.0975609, 11.6463413, -0.0639506
0.9760742, -0.2011719, -0.440918, -27.1341476, -62.5609779, 11.341464, -0.0740215
0.9829102, -0.2192383, -0.4003906, -25.060976, -63.7804909, 11.219512, -0.0733501
0.9873047, -0.2143555, -0.3735352, -23.3536587, -63.7804909, 11.280488, -0.0605936
0.9824219, -0.1923828, -0.3530273, -20.5487804, -63.4756126, 11.219512, -0.051194
0.9692383, -0.1796875, -0.3632812, -19.5731716, -63.5975609, 11.341464, -0.0414588
0.9375, -0.1621094, -0.4047852, -19.2682934, -65.1219559, 11.4024391, -0.0330663
0.9301758, -0.15625, -0.4248047, -19.7560978, -66.5243912, 11.280488, -0.0206455
0.9204102, -0.159668, -0.4467773, -21.3414631, -69.8780518, 11.219512, -0.0129244
0.9267578, -0.1791992, -0.4438477, -22.1951218, -71.8292694, 10.7317076, -0.0149386
0.934082, -0.1889648, -0.4326172, -21.7073174, -74.4512177, 10.5487804, -0.0276951
0.9570312, -0.2036133, -0.4121094, -21.2195129, -75.18293, 10.1829271, -0.0216526
0.9624023, -0.2026367, -0.4042969, -19.4512196, -75.9146347, 10.1829271, -0.0072175
0.9663086, -0.1923828, -0.3979492, -17.2560978, -76.9512177, 10, 0.002182
0.9624023, -0.1850586, -0.3945312, -16.4634151, -77.9878082, 10, 0.0105745
0.9560547, -0.171875, -0.4125977, -15.1829271, -79.9390259, 9.5121956, 0.0193027
0.9521484, -0.1650391, -0.4335938, -15.1219511, -81.2195129, 9.2682924, 0.0172885
0.9448242, -0.1547852, -0.4663086, -15.4268293, -83.2926865, 8.841464, 0.0176242
0.9404297, -0.1567383, -0.4760742, -16.0975609, -84.6341476, 8.719512, 0.0132601
0.9394531, -0.1660156, -0.4799805, -17.1951218, -86.5243912, 8.5365858, 0.0125887
0.9379883, -0.1762695, -0.4863281, -17.560976, -87.0121994, 8.1707315, 0.0043641
0.9370117, -0.1777344, -0.4916992, -17.1951218, -87.68293, 7.6829271, 0.0068818
0.9365234, -0.1772461, -0.5205078, -17.1341476, -88.0487823, 7.8048782, 0.0125887
0.9370117, -0.1708984, -0.5361328, -18.2317085, -87.9268341, 8.2926826, 0.0139315
0.9467773, -0.1450195, -0.565918, -19.5731716, -87.9878082, 8.841464, 0.0119173
0.9555664, -0.1293945, -0.5825195, -20.1829281, -88.1097565, 9.1463413, 0.0182956
0.9760742, -0.1030273, -0.5981445, -21.9512196, -88.7195129, 9.2073174, 0.0139315
0.9868164, -0.1015625, -0.6079102, -23.2926826, -89.0243912, 9.2073174, 0.0109102
0.9970703, -0.112793, -0.6289062, -25.7926826, -88.5975647, 9.9390249, 0.0151064
0.9980469, -0.121582, -0.6333008, -27.560976, -87.9878082, 10.1219511, 0.0130922
0.9887695, -0.1381836, -0.6352539, -29.6341476, -86.7073212, 11.0975609, 0.011078
0.9711914, -0.1518555, -0.6088867, -30.1219521, -85.8536606, 11.8292685, 0.0087282
0.9648438, -0.1503906, -0.5839844, -30, -85.3658524, 13.5975609, 0.0146029
0.9560547, -0.1474609, -0.5219727, -30.1219521, -85.6097565, 14.3902445, 0.0273594
0.9472656, -0.1376953, -0.4956055, -30.1219521, -86.1585388, 15.3048782, 0.0387732
0.9296875, -0.1259766, -0.4726562, -29.8780499, -88.1707306, 15.2439032, 0.0552224
0.9194336, -0.1186523, -0.4672852, -30.3658543, -89.2682953, 15.1219511, 0.090135
0.9091797, -0.1152344, -0.4829102, -30.9146347, -93.2926865, 14.4512196, 0.0869459
0.9038086, -0.1240234, -0.4956055, -31.0975609, -95.2439041, 14.0853662, 0.0730144
0.9086914, -0.140625, -0.5175781, -31.9512196, -98.9024429, 13.9634151, 0.0663005
0.9101562, -0.1557617, -0.5307617, -32.3170738, -99.9390259, 14.1463413, 0.0681468
0.9277344, -0.1738281, -0.5449219, -32.0731697, -101.2804871, 14.4512196, 0.0666361
0.9443359, -0.1787109, -0.5527344, -31.7073174, -101.5853653, 14.3902445, 0.0710002
0.9501953, -0.1796875, -0.5541992, -30.7317085, -102.5, 14.1463413, 0.0730144
0.9677734, -0.1713867, -0.5673828, -30.060976, -102.8048782, 14.0853662, 0.0674754
0.9692383, -0.1665039, -0.5908203, -29.0853672, -103.7195129, 13.2317076, 0.0683146
0.9726562, -0.1689453, -0.6323242, -29.3902454, -104.3902435, 12.3780489, 0.0654612
0.9755859, -0.1728516, -0.6508789, -29.8780499, -104.8780518, 12.3170738, 0.047837
0.9853516, -0.1865234, -0.6606445, -30.1219521, -105.5487823, 12.8048782, 0.0347448
0.9975586, -0.1938477, -0.659668, -30.060976, -105.7926865, 12.9268293, 0.0256809
1.0078125, -0.2041016, -0.6269531, -28.1707325, -106.8292694, 13.9024391, 0.0152743
1.0209961, -0.203125, -0.6269531, -27.9268303, -106.7682953, 13.9634151, -0.0028534
1.0249023, -0.1953125, -0.6176758, -27.9878063, -105.1219559, 11.4634151, -0.0209812
0.9848633, -0.171875, -0.6118164, -28.1707325, -104.146347, 9.9390249, -0.0307164
0.9594727, -0.1635742, -0.6176758, -28.1097565, -102.6219559, 9.2073174, -0.0374304
0.9208984, -0.1660156, -0.652832, -27.9878063, -103.1707306, 9.3292685, -0.0485084
0.9111328, -0.1704102, -0.6679688, -28.0487804, -106.646347, 10.9756098, -0.0441444
0.9140625, -0.1811523, -0.6782227, -28.5975609, -109.3292694, 12.6219511, -0.0391089
0.9223633, -0.1762695, -0.6757812, -28.4756107, -109.7561035, 12.6829271, -0.0438087
0.9414062, -0.1601562, -0.6533203, -27.3780499, -108.9634171, 12.6219511, -0.0438087
0.9516602, -0.1503906, -0.637207, -26.6463413, -108.5365906, 12.0731707, -0.0491798
0.9560547, -0.144043, -0.6293945, -25.2439022, -108.3536606, 11.7682934, -0.0558938
0.9501953, -0.1547852, -0.6352539, -25.4878063, -109.2073212, 11.7073174, -0.0525368
0.9472656, -0.175293, -0.6630859, -26.0975609, -111.4024429, 11.8902445, -0.057908
0.9370117, -0.1938477, -0.7001953, -26.1585369, -112.0121994, 12.0731707, -0.0673075
0.9335938, -0.2011719, -0.71875, -26.0975609, -112.7439041, 12.8048782, -0.0686503
0.9267578, -0.1977539, -0.753418, -24.8780499, -112.1951218, 13.9024391, -0.0706645
0.9277344, -0.1918945, -0.7563477, -24.4512196, -111.7682953, 14.5731707, -0.073518
0.9404297, -0.15625, -0.7255859, -23.1097565, -110.6097565, 15.8536587, -0.0847639
0.9443359, -0.1318359, -0.7006836, -22.5, -110.4268341, 16.280489, -0.0850996
0.9516602, -0.0825195, -0.6762695, -22.439024, -110.4268341, 16.1585369, -0.0961776
0.9423828, -0.0668945, -0.6801758, -22.9878063, -110.6707306, 16.2195129, -0.1055772
0.9223633, -0.0649414, -0.7216797, -25.9146347, -113.0487823, 16.0975609, -0.1015488
0.9072266, -0.0810547, -0.7397461, -28.0487804, -114.9390259, 16.1585369, -0.0995346
0.8994141, -0.1464844, -0.7416992, -31.8902454, -119.8170776, 17.8658543, -0.0961776
0.9101562, -0.1894531, -0.7070312, -33.0487823, -121.5243912, 18.780489, -0.0884565
0.9179688, -0.2036133, -0.6835938, -31.8292694, -123.4756088, 19.6951218, -0.079057
0.9213867, -0.2001953, -0.6567383, -28.6585369, -123.4146347, 19.2073174, -0.0696574
0.9111328, -0.1889648, -0.6713867, -26.9512196, -123.3536606, 18.780489, -0.0693217
0.8842773, -0.1479492, -0.7324219, -25.6707325, -123.1097565, 18.1097565, -0.0673075
0.8676758, -0.1323242, -0.7636719, -25.9146347, -124.0853653, 17.9268303, -0.0656291
0.8564453, -0.1235352, -0.8022461, -27.8658543, -126.646347, 18.2926826, -0.0663005
0.8637695, -0.1342773, -0.7978516, -28.7195129, -128.1707306, 18.6585369, -0.0629435
0.8823242, -0.1542969, -0.7783203, -29.9390259, -130.6707306, 19.2073174, -0.0565652
0.8994141, -0.1655273, -0.769043, -29.6951218, -131.1585388, 19.1463413, -0.057908
0.9179688, -0.190918, -0.7709961, -29.2073174, -131.4634247, 18.6585369, -0.0525368
0.9130859, -0.2216797, -0.7758789, -28.3536587, -131.5243988, 18.8414631, -0.0485084
0.9082031, -0.2314453, -0.7724609, -27.5, -132.8048859, 18.780489, -0.0505226
0.8901367, -0.2407227, -0.7519531, -26.0365868, -133.7804871, 19.0243912, -0.0605936
0.8789062, -0.2373047, -0.7514648, -24.6951218, -133.4146423, 18.9024391, -0.0663005
0.8457031, -0.1992188, -0.7695312, -21.0365868, -133.4146423, 17.9268303, -0.0673075
0.8359375, -0.1777344, -0.7836914, -20.1829281, -133.5975647, 17.3780499, -0.0678111
0.8120117, -0.1445312, -0.8334961, -19.939024, -134.8170776, 16.9512196, -0.0595865
0.8125, -0.1347656, -0.8530273, -20.1829281, -136.0365906, 17.3170738, -0.054551
0.8383789, -0.1342773, -0.8681641, -21.8292694, -137.9268341, 18.0487804, -0.04448
0.8574219, -0.137207, -0.8657227, -22.3170738, -138.9634247, 18.2926826, -0.0391089
0.8847656, -0.1518555, -0.8432617, -22.439024, -139.5121918, 18.5365849, -0.0303807
0.8911133, -0.168457, -0.8193359, -22.0121956, -139.146347, 18.9634151, -0.0213169
0.8828125, -0.1635742, -0.8120117, -21.7073174, -137.3780518, 19.5121956, -0.0149386
0.8476562, -0.140625, -0.8100586, -21.1585369, -136.646347, 18.9634151, -0.0142672
0.8291016, -0.1279297, -0.8168945, -21.4024391, -136.8902435, 18.6585369, -0.0102388
0.7895508, -0.1303711, -0.8481445, -22.0731716, -139.5121918, 17.560976, -0.0092317
0.7822266, -0.1479492, -0.8588867, -22.8658543, -141.2804871, 17.6829281, -0.0149386
0.7802734, -0.1967773, -0.8603516, -24.8780499, -144.4512177, 18.2926826, -0.0270237
0.7875977, -0.2104492, -0.8608398, -25.060976, -145.36586, 18.4756107, -0.0417945
0.7949219, -0.2143555, -0.8818359, -23.2926826, -144.2073212, 18.3536587, -0.0471656
0.7963867, -0.2041016, -0.90625, -21.7073174, -142.9878082, 18.780489, -0.0323949
0.8012695, -0.171875, -0.9550781, -20.060976, -140.9756165, 19.0853672, -0.0149386
0.8188477, -0.144043, -0.9404297, -19.8170738, -140.4878082, 19.4512196, 0.0384375
0.8320312, -0.1318359, -0.9047852, -20.7926826, -140.1829376, 20.1829281, 0.0971847
0.8417969, -0.1191406, -0.8320312, -21.5243912, -139.5121918, 20, 0.1331044
0.8310547, -0.1240234, -0.8173828, -21.4634151, -138.7804871, 19.3292694, 0.1482109
0.7875977, -0.1391602, -0.8457031, -21.2195129, -139.3902435, 17.9268303, 0.163653
0.7573242, -0.1508789, -0.8793945, -21.4634151, -140.1219482, 17.9878044, 0.1320974
0.7094727, -0.1782227, -0.9545898, -22.439024, -142.2561035, 18.9634151, 0.0958419
0.7060547, -0.1894531, -0.9765625, -23.1707325, -143.1097565, 20, 0.0649577
0.7407227, -0.2070312, -0.9736328, -23.5975609, -144.5121918, 21.4024391, 0.0488441
0.769043, -0.2138672, -0.9487305, -23.4756107, -145, 21.280489, 0.040116
0.8168945, -0.2094727, -0.894043, -22.8048782, -144.6951294, 19.6951218, 0.0313878
0.8208008, -0.1958008, -0.8637695, -22.1951218, -143.7804871, 18.6585369, 0.0194705
0.8012695, -0.1816406, -0.8706055, -20.7317085, -141.8902435, 16.6463413, 0.0045319
0.7543945, -0.1743164, -0.9047852, -20.4878044, -142.1951294, 15.7317076, -0.0031891
0.7260742, -0.1772461, -0.9238281, -21.0975609, -143.2926788, 15.5487804, -0.0085603
0.6987305, -0.2041016, -0.9589844, -21.5853672, -145.9756165, 16.6463413, -0.0162814
0.6972656, -0.2202148, -0.9692383, -21.4634151, -147.0121918, 17.0731716, -0.0313878
0.7207031, -0.2255859, -0.9619141, -19.939024, -147.6829376, 17.6829281, -0.0471656
0.7348633, -0.222168, -0.9492188, -18.9024391, -147.6829376, 17.9268303, -0.0552224
0.7587891, -0.203125, -0.9326172, -17.3170738, -145.9146423, 18.1097565, -0.0605936
0.7631836, -0.1899414, -0.9384766, -16.7073174, -145.3048859, 17.9878044, -0.0592508
0.746582, -0.159668, -0.940918, -17.0731716, -144.5731812, 17.439024, -0.0542153
0.71875, -0.1323242, -0.9228516, -17.2560978, -144.6341553, 17.439024, -0.0525368
0.7084961, -0.1240234, -0.9125977, -17.7439022, -145.3048859, 17.1951218, -0.0498512
0.671875, -0.1357422, -0.9316406, -17.560976, -146.0975647, 17.560976, -0.0454871
0.6586914, -0.1518555, -0.9511719, -17.7439022, -147.0121918, 17.8658543, -0.051194
0.6513672, -0.1962891, -0.9741211, -18.3536587, -149.4512177, 19.5731716, -0.0532082
0.6586914, -0.2148438, -0.9736328, -18.9024391, -150.9756165, 20.5487804, -0.0459907
0.6782227, -0.2280273, -0.9545898, -18.4756107, -152.0731812, 21.0975609, -0.0370947
0.6860352, -0.222168, -0.9521484, -17.6829281, -151.5243988, 21.1585369, -0.027863
0.6791992, -0.1948242, -0.9775391, -15.6097565, -149.2073212, 20.060976, -0.0169528
0.6655273, -0.1679688, -1.0131836, -15.4268293, -148.1707306, 19.6951218, -0.0095674
0.6601562, -0.1630859, -1.0097656, -15.9756098, -148.5975647, 20.060976, -0.0028534
0.6811523, -0.1816406, -0.9648438, -16.6463413, -149.5731812, 20.3658543, 0.0031891
0.6870117, -0.1928711, -0.9379883, -16.4024391, -150.9756165, 20.7926826, 0.0038605
0.6816406, -0.2177734, -0.8930664, -15.1829271, -149.7561035, 20.2439022, 0.0172885
0.6679688, -0.2290039, -0.8930664, -13.5975609, -148.8414612, 19.2682934, 0.0327306
0.6142578, -0.230957, -0.9267578, -10.9756098, -147.7439117, 18.1707325, 0.0360876
0.5800781, -0.2182617, -0.96875, -10.6097565, -147.5609741, 17.9268303, 0.0360876
0.5439453, -0.1748047, -1.0683594, -11.0975609, -147.8048859, 18.4146347, 0.0359197
0.5410156, -0.1557617, -1.1069336, -12.2560978, -148.2926788, 18.8414631, 0.0347448
0.5834961, -0.1342773, -1.0981445, -15.7317076, -150.6707306, 19.7560978, 0.030045
0.6679688, -0.1484375, -1.0092773, -17.3170738, -152.2561035, 20.1829281, 0.0172885
0.6962891, -0.1645508, -0.965332, -18.9024391, -152.0731812, 20.3658543, 0.0048676
0.7045898, -0.1865234, -0.9414062, -18.5975609, -150.36586, 20.3658543, -0.005539
0.6782227, -0.1855469, -0.9682617, -16.280489, -146.0365906, 20.7317085, -0.0186313
0.6083984, -0.1777344, -1.0449219, -14.2682934, -143.0487823, 21.4024391, -0.0283665
0.581543, -0.1650391, -1.0717773, -14.2682934, -142.9268341, 21.8902435, -0.0369268
0.5532227, -0.1552734, -1.0585938, -15.5487804, -143.8414612, 22.3170738, -0.0424659
0.5566406, -0.1616211, -1.0361328, -16.2195129, -144.6341553, 22.560976, -0.0464942
0.5761719, -0.1845703, -1.0058594, -17.3780499, -146.0365906, 22.560976, -0.0357519
0.5830078, -0.1967773, -1.0073242, -17.560976, -145.7926788, 22.3170738, -0.0263523
0.5932617, -0.2109375, -1.027832, -16.8292694, -145.8536682, 21.8902435, -0.0495155
0.5922852, -0.2124023, -1.0483398, -16.5243912, -145.2439117, 21.3414631, -0.0592508
0.5908203, -0.206543, -1.0473633, -15.4878054, -144.2073212, 21.5853672, -0.0641184
0.5869141, -0.2036133, -1.0083008, -15.7317076, -143.4756165, 21.280489, -0.0632792
0.5766602, -0.2006836, -0.9882812, -15.6707325, -141.8902435, 20, -0.0679789
0.5419922, -0.1904297, -0.980957, -15.3048782, -140.5487823, 18.0487804, -0.0686503
0.5151367, -0.1894531, -1.0058594, -15.060976, -140.6097565, 17.8048782, -0.0652934
0.4707031, -0.1821289, -1.0566406, -14.6951227, -141.4024353, 18.780489, -0.0710002
0.4677734, -0.1801758, -1.0664062, -14.4512196, -141.8292694, 19.2073174, -0.0686503
0.4926758, -0.1850586, -1.0375977, -14.5731707, -143.7804871, 20.060976, -0.064622
0.5087891, -0.1845703, -1.0087891, -14.4512196, -144.2073212, 20, -0.0654612
0.5307617, -0.1879883, -0.9541016, -14.3292685, -143.5365906, 17.9878044, -0.0767071
0.5131836, -0.203125, -0.9707031, -14.2682934, -142.6829376, 16.8902435, -0.0760357
0.487793, -0.2172852, -1, -13.5365858, -141.8902435, 15.1219511, -0.0783856
0.4418945, -0.2368164, -1.0571289, -12.8658543, -141.8902435, 14.8780489, -0.0834211
0.4360352, -0.2446289, -1.059082, -11.5243902, -143.7195129, 15.3658543, -0.0616007
0.4521484, -0.2431641, -1.0307617, -10.4268293, -145.8536682, 16.0975609, -0.0411231
0.4594727, -0.2392578, -1.0170898, -10, -145.7926788, 15.9756098, -0.0337377
0.4726562, -0.237793, -1, -9.3902445, -145, 16.4634151, -0.0303807
0.4760742, -0.2358398, -1.0014648, -8.9634151, -144.2682953, 15.9146347, -0.01561
0.4570312, -0.2250977, -1.0043945, -7.9268293, -143.5975647, 14.3902445, -0.0109102
0.4482422, -0.2246094, -0.9960938, -7.1341467, -144.2682953, 13.9024391, -0.021149
0.4262695, -0.2294922, -0.9863281, -5.670732, -145.36586, 12.7439032, -0.018967
0.3955078, -0.2202148, -1.0209961, -5.4268293, -145.4878082, 12.5, -0.0226596
0.3857422, -0.2045898, -1.0546875, -5.0609756, -144.8170776, 12.1341467, -0.0330663
0.3720703, -0.1733398, -1.1113281, -5.609756, -145.0609741, 12.1341467, -0.0350805
0.375, -0.1591797, -1.1157227, -7.3170733, -146.1585388, 13.1097565, -0.0391089
0.4077148, -0.1220703, -1.0898438, -10.2439022, -147.3780518, 13.7195129, -0.0399481
0.421875, -0.1040039, -1.074707, -11.5243902, -147.0731812, 13.4756098, -0.0357519
0.4331055, -0.09375, -1.097168, -13.780488, -145.6707306, 14.2682934, -0.0384375
0.4355469, -0.1020508, -1.1210938, -15.060976, -145, 15.2439032, -0.04448
0.4492188, -0.1479492, -1.1499023, -17.0121956, -144.8780518, 18.1707325, -0.0387732
0.4604492, -0.1826172, -1.1386719, -17.5, -144.5731812, 19.8170738, -0.0229953
0.480957, -0.2358398, -1.0649414, -16.4024391, -143.1707306, 21.2195129, -0.0135958
0.4604492, -0.2485352, -0.9936523, -14.8780489, -141.0975647, 20.8536587, -0.0223239
0.4257812, -0.2402344, -0.9912109, -10.7926836, -135.5487823, 18.9024391, -0.0538796
0.3383789, -0.1831055, -1.0483398, -8.841464, -133.4146423, 17.9268303, -0.0686503
0.2988281, -0.152832, -1.0839844, -8.2926826, -132.9878082, 17.6829281, -0.0743572
0.269043, -0.1152344, -1.1123047, -11.5853662, -137.6219482, 18.2317085, -0.0582437
0.2797852, -0.1064453, -1.1162109, -14.5731707, -140.3048859, 18.9024391, -0.0182956
0.3251953, -0.1132812, -1.1030273, -19.5731716, -143.7195129, 19.8170738, 0.0179599
0.3481445, -0.1289062, -1.0825195, -21.5853672, -144.3292694, 20.060976, 0.0562295
0.3867188, -0.1733398, -1.0185547, -23.1707325, -143.9024353, 20.1219521, 0.0924849
0.3935547, -0.1953125, -0.9858398, -23.1707325, -142.86586, 19.7560978, 0.1243763
0.3554688, -0.237793, -0.9570312, -21.4024391, -139.9390259, 18.780489, 0.1482109
0.2705078, -0.2543945, -1.0151367, -20.1829281, -138.2926788, 18.2926826, 0.1461967
0.2260742, -0.2558594, -1.0639648, -17.2560978, -135.9146423, 19.0853672, 0.117998
0.1821289, -0.222168, -1.1425781, -16.5243912, -135.9756165, 20, 0.1010452
0.1879883, -0.1914062, -1.1464844, -16.0365849, -138.8414612, 20.9756107, 0.0783856
0.2456055, -0.1499023, -1.0913086, -17.9878044, -142.3170776, 20.1829281, 0.0616007
0.2773438, -0.1416016, -1.0566406, -19.8780499, -143.1707306, 19.5121956, 0.0424659
0.3115234, -0.1616211, -1.0087891, -23.4756107, -143.1707306, 18.4756107, 0.0240024
0.3066406, -0.1826172, -0.9985352, -24.1463413, -142.1341553, 18.1707325, 0.0058747
0.2661133, -0.2138672, -0.9975586, -22.560976, -140.4878082, 17.8048782, -0.0130922
0.2387695, -0.2250977, -1.0146484, -20.7926826, -140.0609741, 17.9878044, -0.0344091
0.2094727, -0.2446289, -1.065918, -16.7073174, -140.1219482, 18.1097565, -0.0538796
0.2041016, -0.2495117, -1.1069336, -15.3658543, -140.36586, 18.9024391, -0.0607614
0.2143555, -0.2490234, -1.1044922, -13.5975609, -140.9146423, 19.8170738, -0.0639506
0.2387695, -0.2358398, -1.0625, -13.6585369, -141.0365906, 19.3902435, -0.0704967
0.2480469, -0.2207031, -1.0380859, -13.4146347, -140.1219482, 17.3170738, -0.0820783
0.2402344, -0.1943359, -1.0053711, -13.1707315, -139.0243988, 14.7560978, -0.0889601
0.2270508, -0.1777344, -1.0043945, -13.1707315, -138.3536682, 13.5975609, -0.093492
0.1860352, -0.1484375, -1.0375977, -13.2926836, -137.9878082, 12.8048782, -0.0995346
0.1601562, -0.1416016, -1.0644531, -13.841464, -138.1707306, 13.2317076, -0.0995346
0.1289062, -0.1411133, -1.1069336, -15.3048782, -139.4512177, 14.8170738, -0.0936599
0.1313477, -0.1416016, -1.1103516, -15.9756098, -140.1219482, 15.9146347, -0.0884565
0.1538086, -0.1455078, -1.0981445, -17.3780499, -140.7317047, 16.6463413, -0.0639506
0.1796875, -0.1557617, -1.0927734, -17.8658543, -140.1829376, 16.6463413, -0.0592508
0.1904297, -0.1616211, -1.0922852, -18.4146347, -139.5731812, 17.0121956, -0.0599222
0.2084961, -0.1791992, -1.0629883, -18.9024391, -139.5121918, 17.3170738, -0.0642863
0.2099609, -0.1870117, -1.0415039, -19.3902435, -139.6951294, 17.0731716, -0.0793927
0.1943359, -0.2011719, -1.0625, -19.3292694, -137.1341553, 15.8536587, -0.0924849
0.1762695, -0.2021484, -1.0932617, -19.3292694, -135.1219482, 15.3658543, -0.1022202
0.1313477, -0.1992188, -1.1450195, -19.4512196, -132.9268341, 15.6097565, -0.1075914
0.121582, -0.1928711, -1.1455078, -20.1219521, -133.0487823, 16.0365849, -0.1119554
0.1352539, -0.184082, -1.1069336, -20.6097565, -134.7561035, 16.3414631, -0.1062486
0.1489258, -0.1811523, -1.0834961, -20.7317085, -135.1219482, 16.280489, -0.0951705
0.1679688, -0.1894531, -1.0717773, -20.8536587, -132.86586, 15.3658543, -0.090135
0.171875, -0.2226562, -1.0849609, -20.3658543, -132.0121918, 15.2439032, -0.0783856
0.1806641, -0.2426758, -1.0791016, -19.2682934, -130.9146423, 15.4268293, -0.0686503
0.1806641, -0.2856445, -1.0566406, -18.5365849, -130.5487823, 15.3048782, -0.0491798
0.1674805, -0.2939453, -1.0512695, -16.4024391, -127.4390259, 14.1463413, -0.0260166
0.1088867, -0.2729492, -1.0581055, -13.4756098, -122.1951218, 12.9268293, -0.0112459
0.0712891, -0.2451172, -1.0581055, -11.8292685, -120.3048782, 12.0731707, -0.0030213
0.0288086, -0.1635742, -1.0546875, -9.6341467, -120.4268341, 11.6463413, 0.0206455
0.0200195, -0.1318359, -1.0493164, -9.8780489, -122.5, 11.341464, 0.0471656
0.0341797, -0.1137695, -1.0537109, -12.2560978, -128.1097565, 12.3170738, 0.0451514
0.0512695, -0.1293945, -1.0639648, -14.5731707, -130.4268341, 13.1707315, 0.0342412
0.0874023, -0.1777344, -1.090332, -18.5365849, -132.3170776, 15.5487804, 0.026688
0.0947266, -0.2075195, -1.0678711, -19.1463413, -131.7073212, 15.9146347, 0.0240024
0.090332, -0.2133789, -1.0292969, -17.8658543, -128.5365906, 15.6707325, 0.0104067
0.0639648, -0.1918945, -0.9477539, -15.1829271, -126.2195129, 14.4512196, -0.0008392
0.0410156, -0.1860352, -0.9306641, -14.2682934, -125.8536606, 13.780488, -0.0152743
-0.012207, -0.1733398, -0.9458008, -14.4512196, -126.2195129, 13.2317076, -0.0290379
-0.043457, -0.1704102, -0.9799805, -15.6097565, -126.5853653, 13.2317076, -0.0344091
-0.0898438, -0.15625, -1.0483398, -18.1707325, -126.8902435, 13.7195129, -0.0374304
-0.1044922, -0.1484375, -1.0615234, -19.1463413, -128.2926788, 14.0243902, -0.0431373
-0.0830078, -0.1479492, -1.0297852, -21.3414631, -133.1707306, 13.841464, -0.0407874
-0.0595703, -0.1552734, -1.0063477, -22.439024, -136.0975647, 13.9634151, -0.0417945
-0.019043, -0.1787109, -0.9790039, -24.5121956, -139.3292694, 14.5121956, -0.0394446
-0.0117188, -0.1708984, -1.0063477, -24.5731716, -138.4146423, 15.060976, -0.0417945
-0.0214844, -0.1577148, -1.0268555, -23.780489, -132.5, 15.3048782, -0.0397803
-0.0566406, -0.1411133, -1.0595703, -21.2195129, -128.6585388, 16.1585369, -0.0384375
-0.0625, -0.1425781, -1.0561523, -20.6097565, -128.9634247, 16.7682934, -0.04448
-0.0537109, -0.1870117, -1.0410156, -20.3658543, -133.1097565, 18.7195129, -0.047837
-0.0419922, -0.2070312, -1.03125, -20.3658543, -134.7561035, 19.5731716, -0.0501869
-0.0229492, -0.2314453, -1.0664062, -19.939024, -133.5975647, 20.4268303, -0.0552224
-0.0214844, -0.2270508, -1.0991211, -19.5731716, -130.9146423, 20.7317085, -0.0720073
-0.0253906, -0.1894531, -1.140625, -18.780489, -125.3048782, 19.8780499, -0.068986
-0.0263672, -0.1635742, -1.1381836, -19.2073174, -123.7804871, 19.1463413, -0.0599222
-0.019043, -0.1425781, -1.0996094, -20.8536587, -123.5975647, 17.3780499, -0.0464942
-0.0073242, -0.1669922, -1.078125, -22.5, -124.6341476, 16.8292694, -0.0307164
-0.0039062, -0.1904297, -1.0737305, -25.6097565, -124.9390259, 16.9512196, -0.0330663
-0.0083008, -0.215332, -1.0463867, -26.4634151, -122.8048782, 17.1951218, -0.0354162
-0.0214844, -0.2143555, -1.0117188, -25.9146347, -120.6707382, 16.5243912, -0.0360876
-0.0698242, -0.171875, -0.9321289, -23.4756107, -115.36586, 13.3536587, -0.0347448
-0.112793, -0.1494141, -0.9003906, -22.439024, -113.7195129, 11.280488, -0.0357519
-0.2001953, -0.1357422, -0.8383789, -22.6219521, -115.0609818, 9.8170738, -0.0297093
-0.2338867, -0.1499023, -0.8291016, -24.0853672, -118.1097565, 9.9390249, -0.0236667
-0.2905273, -0.1870117, -0.8574219, -27.560976, -124.5121994, 10.7317076, -0.0142672
-0.3085938, -0.1899414, -0.8989258, -29.0853672, -126.2804871, 10.8536587, -0.0127565
-0.3222656, -0.1889648, -0.9868164, -30, -128.4146423, 11.7682934, -0.0253452
-0.2851562, -0.1772461, -1.0073242, -29.5121956, -130.4878082, 11.8902445, -0.0196384
-0.2412109, -0.1835938, -0.9824219, -28.4146347, -137.1951294, 12.6219511, -0.005539
-0.1508789, -0.1923828, -0.8974609, -27.1951218, -141.4634247, 11.9512196, 0.0045319
-0.1186523, -0.1918945, -0.862793, -26.8292694, -141.0365906, 11.7073174, 0.005539
-0.1132812, -0.1899414, -0.8701172, -24.9390259, -133.6585388, 10.5487804, 0.0046998
-0.1328125, -0.1796875, -0.9238281, -24.1463413, -128.7195129, 10.6097565, 0.0018463
-0.1977539, -0.1582031, -1.0810547, -22.7439022, -120.7926865, 11.7073174, 0.0011749
-0.2207031, -0.1518555, -1.1474609, -22.6829281, -119.8170776, 13.0487804, 0.0052033
-0.2060547, -0.1391602, -1.1738281, -23.4756107, -124.8780518, 16.4634151, 0.0078889
-0.1689453, -0.1391602, -1.1225586, -23.7195129, -129.146347, 17.5, 0.0105745
-0.0810547, -0.1333008, -0.9716797, -24.3292694, -132.7439117, 16.6463413, 0.0280308
-0.0634766, -0.1289062, -0.8696289, -24.6951218, -130.4878082, 15.7926836, 0.0565652
-0.0932617, -0.1245117, -0.862793, -24.8170738, -119.146347, 13.3536587, 0.0589151
-0.1933594, -0.1293945, -0.9287109, -24.6951218, -108.2317123, 12.9878054, 0.0454871
-0.246582, -0.1445312, -0.9736328, -24.5121956, -106.646347, 13.9024391, 0.0206455
-0.3076172, -0.1723633, -1.0537109, -25.060976, -110.5487823, 16.4024391, -0.0035248
-0.3120117, -0.190918, -1.0708008, -25.3048782, -114.2073212, 17.8658543, -0.0243381
-0.2744141, -0.206543, -1.0561523, -25.2439022, -120.4268341, 20.6097565, -0.0303807
-0.2368164, -0.1879883, -1.0288086, -24.5121956, -121.7073212, 20.8536587, -0.0240024
-0.1738281, -0.1328125, -0.9907227, -23.9024391, -118.6585388, 19.4512196, 0.0223239
-0.1606445, -0.0996094, -0.9858398, -24.2682934, -115.2439041, 17.9878044, 0.0911421
-0.1748047, -0.0585938, -0.9853516, -27.2560978, -109.6341476, 16.3414631, 0.1294118
-0.1948242, -0.0688477, -0.949707, -29.5121956, -109.0243912, 16.9512196, 0.1374685
-0.1982422, -0.0839844, -0.9179688, -34.0853653, -111.1585388, 18.4756107, 0.1272297
-0.2231445, -0.1289062, -0.8798828, -35.9146347, -112.0731735, 19.5731716, 0.0941634
-0.2387695, -0.144043, -0.8764648, -35.6097565, -110.4268341, 19.8780499, 0.0602579
-0.293457, -0.1586914, -0.8979492, -33.4146347, -106.4024429, 20.1829281, 0.018967
-0.3198242, -0.1582031, -0.8999023, -32.3170738, -105, 20.6097565, -0.0085603
-0.34375, -0.1557617, -0.8652344, -30.6097565, -106.1585388, 20.2439022, -0.0285344
-0.3544922, -0.1582031, -0.8286133, -30.3658543, -108.6585388, 19.4512196, -0.0377661
-0.3598633, -0.171875, -0.7573242, -31.341465, -113.4756088, 17.6219521, -0.04448
-0.3613281, -0.1875, -0.7441406, -31.5853672, -115.18293, 16.5853653, -0.0558938
-0.3857422, -0.2124023, -0.7807617, -32.0121956, -114.6341476, 14.6951227, -0.0716716
-0.4125977, -0.2109375, -0.8847656, -31.7073174, -113.6585388, 14.8170738, -0.0767071
-0.418457, -0.2006836, -0.9355469, -30, -112.86586, 15.2439032, -0.0847639
-0.3886719, -0.1611328, -0.965332, -27.6219521, -116.2804871, 15.6097565, -0.0881209
-0.3588867, -0.1401367, -0.9526367, -26.9512196, -119.0853653, 15.6097565, -0.0981918
-0.2919922, -0.0996094, -0.9067383, -28.0487804, -122.6219559, 14.3292685, -0.1082628
-0.2646484, -0.0834961, -0.8994141, -29.6341476, -121.4024429, 13.2926836, -0.1176623
-0.2451172, -0.0668945, -0.9433594, -32.9268303, -114.0853653, 12.6219511, -0.1216907
-0.2456055, -0.0791016, -0.9775391, -34.0243912, -110.18293, 12.9878054, -0.1119554
-0.2402344, -0.1416016, -0.9868164, -34.2073174, -107.5609818, 15.1829271, -0.1025559
-0.2294922, -0.2099609, -0.9228516, -33.5975609, -108.2926865, 16.280489, -0.0950027
-0.2329102, -0.2216797, -0.8930664, -30.1219521, -107.68293, 17.2560978, -0.0703288
-0.2709961, -0.1914062, -0.878418, -27.8048782, -104.0243912, 17.439024, -0.0330663
-0.3037109, -0.1552734, -0.8837891, -22.6829281, -94.2682953, 16.4024391, -0.0068818
-0.3623047, -0.0883789, -0.9047852, -21.4024391, -89.8170776, 14.8170738, 0.0213169
-0.3852539, -0.0649414, -0.9179688, -23.1097565, -91.2195129, 13.841464, 0.0293736
-0.4086914, -0.0439453, -0.9296875, -29.0853672, -97.8048782, 13.2926836, 0.0226596
-0.4038086, -0.0546875, -0.9282227, -31.8902454, -101.5853653, 13.5975609, 0.0196384
-0.3657227, -0.105957, -0.8901367, -36.2804871, -107.3170776, 15, 0.0293736
-0.3422852, -0.1420898, -0.8691406, -36.4024391, -108.2317123, 15.7317076, 0.0481727
-0.3168945, -0.1967773, -0.840332, -34.6951218, -105.4878082, 16.4024391, 0.0622721
-0.3227539, -0.1914062, -0.8642578, -32.9268303, -102.4390259, 17.0731716, 0.0528725
-0.3417969, -0.1635742, -0.8935547, -29.7560978, -94.6341476, 17.6829281, 0.0441444
-0.3745117, -0.0854492, -0.9306641, -28.4146347, -91.4634171, 17.560976, 0.0273594
-0.3867188, -0.050293, -0.9169922, -29.4512196, -89.5121994, 16.8292694, 0.0092317
-0.4003906, -0.0092773, -0.8461914, -33.5365868, -93.4146347, 15.3048782, -0.0035248
-0.4086914, -0.0112305, -0.7910156, -35.7317085, -96.0975647, 14.6341467, -0.0031891
-0.4262695, -0.0576172, -0.6835938, -39.8170738, -100.18293, 14.8170738, -0.0119173
-0.4384766, -0.0883789, -0.6552734, -40.5487823, -100.3048782, 15.3048782, -0.0323949
-0.4887695, -0.1176758, -0.6884766, -38.7195129, -96.2804871, 16.8902435, -0.0448157
-0.519043, -0.1132812, -0.7470703, -36.5853653, -92.9268341, 17.3780499, -0.0491798
-0.5732422, -0.0952148, -0.9257812, -33.2317085, -87.8658524, 19.0853672, -0.0569009
-0.5527344, -0.1054688, -1.0112305, -33.0487823, -88.7804871, 20.6097565, -0.0605936
-0.5131836, -0.1245117, -0.9814453, -33.841465, -98.5365906, 22.6829281, -0.0614328
-0.3994141, -0.1572266, -0.8178711, -34.4512215, -104.8170776, 22.5, -0.061265
-0.3500977, -0.1542969, -0.7329102, -34.7560997, -109.9390259, 20, -0.0639506
-0.3305664, -0.1181641, -0.6762695, -32.0731697, -97.9268341, 15.6707325, -0.0602579
-0.3662109, -0.0981445, -0.7280273, -29.7560978, -87.8658524, 14.3292685, -0.0585794
-0.4716797, -0.0830078, -0.9052734, -26.4634151, -71.6463394, 16.2195129, -0.0627756
-0.5078125, -0.0976562, -0.9716797, -25.4268303, -69.5731735, 19.0853672, -0.0721752
-0.5195312, -0.1455078, -0.9633789, -24.3292694, -77.68293, 23.9634151, -0.0840925
-0.4936523, -0.1635742, -0.8984375, -24.0243912, -84.0243912, 24.0853672, -0.0891279
-0.4438477, -0.1445312, -0.7875977, -23.4146347, -90.0609741, 20.4268303, -0.0874495
-0.456543, -0.1005859, -0.7548828, -23.4756107, -87.8048782, 17.9878044, -0.0881209
-0.4833984, -0.0742188, -0.7592773, -24.3902435, -78.7195129, 14.2073174, -0.090135
-0.5405273, -0.0493164, -0.7495117, -25.9146347, -75.2439041, 13.2317076, -0.0814069
-0.5571289, -0.0561523, -0.734375, -28.841465, -74.6951218, 13.780488, -0.0726787
-0.5732422, -0.0922852, -0.7109375, -31.2195129, -80.8536606, 14.4512196, -0.0674754
-0.5761719, -0.1079102, -0.7246094, -32.0731697, -83.9024429, 14.5121956, -0.0543832
-0.5966797, -0.1035156, -0.828125, -32.6829262, -84.0243912, 15.2439032, -0.0293736
-0.6030273, -0.0878906, -0.8813477, -32.8658562, -82.9268341, 16.280489, -0.0078889
-0.5810547, -0.0693359, -0.8989258, -32.9878044, -83.2317123, 18.4146347, 0.0018463
-0.5522461, -0.0678711, -0.8549805, -33.2926826, -85.9146347, 18.6585369, 0.0130922
-0.4824219, -0.0629883, -0.7421875, -35, -91.2804871, 17.560976, 0.0196384
-0.4560547, -0.0410156, -0.6704102, -36.1585388, -91.4024429, 16.4024391, 0.0238346
-0.4707031, -0.0249023, -0.6621094, -37.9268303, -85.7926865, 14.5121956, 0.0075532
-0.5302734, -0.0195312, -0.6738281, -38.4756088, -81.4634171, 14.3902445, 0.0018463
-0.5620117, -0.0273438, -0.6816406, -39.9390259, -75.5487823, 15.1219511, -0.0008392
-0.6240234, -0.0595703, -0.7099609, -40.4268303, -75.5487823, 16.3414631, -0.0075532
-0.6469727, -0.0844727, -0.734375, -40.5487823, -77.2560959, 17.1341476, -0.0015106
-0.6616211, -0.1279297, -0.7768555, -39.6341476, -82.68293, 19.3292694, -0.0005035
-0.6538086, -0.1391602, -0.7856445, -39.3902435, -85.0609741, 20.060976, -0.0015106
-0.6079102, -0.1269531, -0.7797852, -38.0487823, -87.4390259, 19.939024, -0.0016785
-0.5917969, -0.1147461, -0.7661133, -37.2560997, -86.9512253, 18.780489, -0.0048676
-0.5595703, -0.0795898, -0.7451172, -37.0731697, -84.0853653, 16.0365849, -0.0082246
-0.5493164, -0.0649414, -0.7421875, -37.4390259, -82.2560959, 15.2439032, -0.0139315
-0.5449219, -0.0649414, -0.7436523, -39.2073174, -78.9634171, 14.5121956, -0.0072175
-0.5493164, -0.074707, -0.7763672, -40.3658562, -77.3170776, 14.5731707, -0.0030213
-0.5576172, -0.090332, -0.8037109, -40.0609779, -74.1463394, 15.6097565, -0.0008392
-0.5629883, -0.128418, -0.8393555, -38.2926826, -72.3170776, 18.3536587, 0.0023499
-0.5571289, -0.1416016, -0.831543, -36.8902435, -72.3170776, 19.939024, -0.012253
-0.5375977, -0.1303711, -0.7563477, -34.3292694, -72.5609741, 21.5853672, -0.0246738
-0.5322266, -0.0996094, -0.7163086, -33.1707306, -70.8536606, 20.6097565, -0.0229953
-0.5605469, -0.0166016, -0.6835938, -33.0487823, -64.0853653, 17.439024, -0.0216526
-0.5859375, 0.0258789, -0.6953125, -34.2682953, -60, 15.9146347, -0.0139315
-0.6479492, 0.0527344, -0.706543, -38.1707344, -57.2560997, 15.1829271, -0.0023499
-0.6733398, -0.0112305, -0.6333008, -40.7926826, -59.5121956, 15.6097565, 0.0186313
-0.6762695, -0.0600586, -0.59375, -45, -67.8658524, 17.1951218, 0.0318914
-0.6757812, -0.1293945, -0.59375, -45.4878044, -70.7926865, 17.5, 0.0454871
-0.6860352, -0.1347656, -0.6401367, -43.5365868, -70.1219559, 18.4756107, 0.0290379
-0.7070312, -0.0957031, -0.7583008, -39.7560997, -64.8170776, 19.939024, 0.0048676
-0.7036133, -0.0600586, -0.8012695, -38.5975609, -63.4756126, 20.4878044, -0.0095674
-0.6674805, -0.0136719, -0.800293, -39.5731735, -65.1219559, 19.8780499, -0.008896
-0.637207, -0.0092773, -0.7666016, -41.6463432, -67.8048782, 19.0853672, -0.0018463
-0.5834961, -0.0317383, -0.6767578, -46.2804871, -72.1951218, 17.0731716, 0.0058747
-0.5556641, -0.0556641, -0.6362305, -47.8048782, -72.3170776, 16.5853653, 0.0016785
-0.5385742, -0.1083984, -0.6264648, -47.5, -67.8048782, 15.8536587, 0.011078
-0.5688477, -0.1259766, -0.6879883, -45.3658562, -63.5365868, 15.9146347, 0.0414588
-0.5883789, -0.1259766, -0.7216797, -39.6951218, -54.2682953, 17.0731716, 0.063447
-0.6196289, -0.1098633, -0.7529297, -36.4634171, -51.5243912, 17.6829281, 0.0750286
-0.6308594, -0.0991211, -0.7436523, -32.2560997, -50.4268303, 18.3536587, 0.0757
-0.6289062, -0.0737305, -0.6943359, -31.7073174, -52.9268303, 17.6219521, 0.0540475
-0.6274414, -0.0527344, -0.6733398, -32.1951218, -53.7195129, 16.5243912, 0.0250095
-0.6474609, -0.0273438, -0.6425781, -33.7195129, -53.3536606, 13.9634151, -0.0015106
-0.6601562, -0.0317383, -0.6303711, -34.3292694, -53.0487823, 13.0487804, -0.023331
-0.6699219, -0.0737305, -0.6279297, -33.9024391, -54.5731735, 12.4390249, -0.036759
-0.6699219, -0.0991211, -0.6469727, -33.7195129, -55.18293, 12.3780489, -0.0505226
-0.6826172, -0.1162109, -0.7172852, -32.7439041, -55.4878044, 13.1707315, -0.0599222
-0.6777344, -0.0961914, -0.746582, -31.7073174, -55.3048782, 13.7195129, -0.0652934
-0.6708984, -0.0737305, -0.7382812, -29.4512196, -56.341465, 14.6951227, -0.0793927
-0.6352539, -0.0546875, -0.6967773, -28.780489, -57.3780518, 14.7560978, -0.0864424
-0.6225586, -0.0424805, -0.6811523, -28.2926826, -59.1463432, 13.9024391, -0.0911421
-0.6079102, -0.012207, -0.6826172, -29.8170738, -57.9268303, 12.560976, -0.085771
-0.6108398, 0.0073242, -0.7036133, -31.0365868, -56.1585388, 12.5, -0.0809033
-0.6259766, 0.0317383, -0.7426758, -32.9878044, -52.3170738, 12.560976, -0.0800641
-0.6259766, 0.0366211, -0.746582, -34.2682953, -51.9512215, 12.9878054, -0.0733501
-0.6269531, 0.0249023, -0.7036133, -36.4634171, -53.9634171, 13.6585369, -0.072343
-0.6245117, 0.012207, -0.6679688, -37.6219521, -55.4878044, 13.9024391, -0.0773785
-0.6313477, -0.0097656, -0.6123047, -38.9024391, -56.0365868, 14.5731707, -0.0815747
-0.659668, -0.0209961, -0.625, -38.7195129, -54.8170738, 14.8780489, -0.0867781
-0.6772461, -0.0166016, -0.6513672, -37.9268303, -52.9878044, 15.9146347, -0.0856031
-0.7011719, -0.0024414, -0.7094727, -37.6219521, -52.3780518, 16.8292694, -0.0767071
-0.703125, 0.0131836, -0.7265625, -38.4146347, -53.6585388, 17.5, -0.068986
-0.7016602, 0.0195312, -0.722168, -40.7926826, -56.5243912, 17.0121956, -0.0501869
-0.6884766, 0.0097656, -0.6958008, -41.8292694, -58.0487823, 16.7073174, -0.0327306
-0.6611328, -0.0244141, -0.6210938, -42.9878044, -61.341465, 15.9756098, -0.0095674
-0.6450195, -0.0415039, -0.5913086, -42.9268303, -61.5853691, 15.4268293, 0.0238346
-0.6484375, -0.0634766, -0.5922852, -41.5243912, -59.0853691, 14.4512196, 0.0458228
-0.6552734, -0.0703125, -0.6279297, -39.9390259, -56.5243912, 14.4512196, 0.0500191
-0.6865234, -0.0668945, -0.7163086, -36.5853653, -52.3170738, 15.4268293, 0.0683146
-0.6992188, -0.0473633, -0.7421875, -35.4268303, -51.6463432, 16.4634151, 0.0867781
-0.6835938, -0.0429688, -0.7163086, -33.6585388, -53.9634171, 16.6463413, 0.0928206
-0.65625, -0.0400391, -0.6391602, -33.2317085, -56.9512215, 15.1829271, 0.0909743
-0.6430664, -0.0371094, -0.6196289, -33.1097565, -56.8292694, 14.1463413, 0.0830854
-0.6337891, -0.0288086, -0.6166992, -32.1951218, -53.2317085, 12.7439032, 0.0602579
-0.644043, -0.0244141, -0.6264648, -31.5853672, -50.7317085, 12.3780489, 0.0431373
-0.6523438, -0.0292969, -0.6508789, -30.3658543, -47.9268303, 12.560976, 0.0407874
-0.6616211, -0.0297852, -0.6655273, -30.060976, -47.3170738, 12.6219511, 0.0320592
-0.6787109, -0.0151367, -0.7006836, -29.0853672, -46.2195129, 13.6585369, 0.0125887
-0.6850586, -0.0009766, -0.7197266, -28.7195129, -45.6707344, 14.3292685, -0.0058747
-0.6767578, 0.0131836, -0.7226562, -28.841465, -45.4268303, 15.5487804, -0.0250095
-0.6616211, 0.0263672, -0.6547852, -28.9634151, -45.9146347, 16.1585369, -0.0411231
-0.6523438, 0.0341797, -0.6132812, -30.1219521, -46.341465, 14.8780489, -0.0518654
-0.6503906, 0.0424805, -0.5556641, -31.7682934, -43.841465, 12.9268293, -0.0619364
-0.6640625, 0.0405273, -0.5551758, -32.7439041, -41.7073174, 12.5, -0.0710002
-0.7089844, 0.0175781, -0.565918, -33.1097565, -38.2926826, 12.9878054, -0.0881209
-0.7324219, -0.003418, -0.5703125, -33.1707306, -38.0487823, 13.5365858, -0.1018845
-0.7539062, -0.0537109, -0.5458984, -31.0365868, -40.3658562, 14.4512196, -0.1089342
-0.7558594, -0.0727539, -0.5258789, -29.6341476, -41.7073174, 14.5731707, -0.1062486
-0.7612305, -0.0600586, -0.5146484, -27.4390259, -42.6829262, 13.4756098, -0.0991989
-0.7714844, -0.0297852, -0.5302734, -26.9512196, -42.2560997, 12.7439032, -0.0908064
-0.7944336, 0.027832, -0.5639648, -27.5, -42.0121956, 10.9146347, -0.0891279
-0.7944336, 0.0332031, -0.5629883, -28.780489, -43.2926826, 10.5487804, -0.0924849
-0.78125, 0.0224609, -0.5556641, -31.341465, -48.9024391, 10.1829271, -0.0988632
-0.753418, -0.012207, -0.5537109, -32.1341476, -52.5, 10.5487804, -0.1080949
-0.7397461, -0.03125, -0.5654297, -31.5243912, -52.8048782, 11.0365858, -0.1169909
-0.7026367, -0.0356445, -0.5834961, -27.0731716, -50.8536606, 13.1097565, -0.1176623
-0.6870117, -0.0317383, -0.5810547, -24.3902435, -49.1463432, 13.4146347, -0.1143053
-0.6533203, -0.0307617, -0.5473633, -20.1219521, -46.1585388, 12.3780489, -0.1042344
-0.6538086, -0.0288086, -0.53125, -19.0243912, -44.2073174, 11.1585369, -0.0881209
-0.6782227, -0.0214844, -0.5541992, -19.5731716, -39.7560997, 9.2073174, -0.0632792
-0.7006836, -0.0146484, -0.5917969, -20.2439022, -37.6219521, 8.841464, -0.047837
-0.746582, 0.0146484, -0.6523438, -21.0365868, -35.3048782, 9.2073174, -0.0292058
-0.7626953, 0.0302734, -0.640625, -21.5243912, -35.7926826, 10.060976, -0.0008392
-0.7573242, 0.0341797, -0.6064453, -21.4024391, -38.7195129, 10.060976, 0.0023499
-0.7333984, 0.0249023, -0.5288086, -20.4268303, -40.7317085, 9.4512196, 0.0253452
-0.722168, 0.027832, -0.5141602, -20.5487804, -40.3658562, 9.0243902, 0.0381018
-0.7250977, 0.0400391, -0.5405273, -22.1951218, -37.0731697, 8.719512, 0.0283665
-0.7348633, 0.0532227, -0.5654297, -22.9268303, -35.0609779, 8.4146347, 0.0172885
-0.7636719, 0.0629883, -0.5800781, -24.5121956, -33.4146347, 9.3292685, 0.0052033
-0.7631836, 0.0551758, -0.5629883, -24.7560978, -34.1463432, 9.6951218, -0.0008392
-0.753418, 0.0273438, -0.5166016, -25.060976, -36.4024391, 9.2073174, 0.0119173
-0.7509766, 0.0161133, -0.5048828, -25.060976, -36.7073174, 9.1463413, 0.0198062
-0.7607422, 0.0126953, -0.5126953, -25.9756107, -34.9390259, 8.719512, 0.0344091
-0.7827148, 0.0136719, -0.5336914, -26.3414631, -33.5365868, 8.5365858, 0.0562295
-0.7929688, 0.0175781, -0.534668, -27.1341476, -32.3170738, 8.5365858, 0.0642863
-0.7866211, 0.0166016, -0.5166016, -27.9268303, -33.841465, 8.2926826, 0.0468299
-0.7836914, 0.0126953, -0.5009766, -28.1707325, -34.8170738, 7.6829271, 0.0317235
-0.7827148, -0.003418, -0.46875, -27.9268303, -35.6097565, 6.890244, 0.0250095
-0.784668, -0.0087891, -0.4560547, -27.1951218, -35.1219521, 6.9512196, 0.023331
-0.793457, -0.0092773, -0.4394531, -25.060976, -33.0487823, 6.7073174, 0.0240024
-0.8007812, -0.0073242, -0.4453125, -24.0243912, -32.3780479, 6.4024391, 0.0186313
-0.8149414, 0.0112305, -0.4492188, -22.5, -32.1341476, 5.9756098, 0.0119173
-0.8183594, 0.015625, -0.4550781, -21.8902435, -32.1341476, 5.4878049, -0.0035248
-0.8193359, 0.0092773, -0.4677734, -22.0121956, -32.7439041, 5.0609756, -0.0058747
-0.8144531, -0.0073242, -0.4907227, -22.1341476, -33.2317085, 5.1219511, -0.002182
-0.8066406, -0.0146484, -0.496582, -21.2195129, -33.2926826, 5.1829271, -0.0068818
-0.7792969, -0.0371094, -0.4765625, -18.1707325, -33.1097565, 4.6341462, -0.0169528
-0.7675781, -0.0473633, -0.465332, -16.280489, -32.5609779, 4.2073174, -0.0216526
-0.7568359, -0.0527344, -0.4731445, -12.1341467, -30.1219521, 3.6585367, -0.0176242
-0.7543945, -0.0419922, -0.4868164, -10.8536587, -27.6829281, 3.3536587, -0.0209812
-0.7675781, 0.0161133, -0.5273438, -9.0243902, -22.9878063, 3.1707318, -0.043473
-0.7749023, 0.0493164, -0.5366211, -8.6585369, -20.9146347, 2.804878, -0.0693217
-0.7875977, 0.081543, -0.5297852, -10.1219511, -19.7560978, 2.0121951, -0.0904707
-0.7856445, 0.0761719, -0.5146484, -10.9146347, -20.3048782, 1.7073171, -0.0944991
-0.7749023, 0.0537109, -0.4882812, -13.0487804, -21.4634151, 1.8292683, -0.1149767
-0.7675781, 0.0283203, -0.5092773, -13.7195129, -20.9756107, 1.8292683, -0.1143053
-0.7685547, 0.0195312, -0.5302734, -13.4146347, -17.439024, 2.3170731, -0.0849317
-0.7695312, 0.0009766, -0.5229492, -11.8292685, -14.6951227, 2.7439024, -0.0297093
-0.7631836, -0.0063477, -0.4960938, -10.7926836, -13.7195129, 3.1097562, 0.0119173
-0.762207, -0.0039062, -0.4394531, -9.1463413, -12.3170738, 2.1341465, 0.0538796
-0.7695312, 0.0014648, -0.4233398, -8.780488, -10.8536587, 1.4634147, 0.0736858
-0.7993164, 0.0170898, -0.4282227, -7.9878049, -7.5, 1.097561, 0.0619364
-0.8139648, 0.0244141, -0.4492188, -7.4390244, -5.9146342, 1.5853659, 0.0397803
-0.8295898, 0.0493164, -0.5263672, -7.7439027, -4.6341462, 2.7439024, 0.0152743
-0.8251953, 0.0629883, -0.5756836, -8.2926826, -4.5121951, 2.4390244, -0.0058747
-0.8139648, 0.059082, -0.5585938, -10.6707315, -6.2195125, 2.3170731, -0.0095674
-0.7631836, 0.0332031, -0.4511719, -11.5853662, -7.5, 2.1341465, -0.0139315
-0.7431641, 0.012207, -0.3911133, -13.1097565, -8.2926826, -0.0609756, -0.0258488
-0.7412109, -0.0268555, -0.3286133, -11.8902445, -3.9634147, -2.0731707, -0.0323949
-0.753418, -0.0361328, -0.3388672, -10.8536587, -0.7317073, -2.8658538, -0.033402
-0.8056641, -0.0219727, -0.387207, -8.2317076, 4.2073174, -3.3536587, -0.0384375
-0.8251953, -0.012207, -0.4194336, -6.7682929, 5.2439027, -3.2926829, -0.0533761
-0.8442383, 0.0126953, -0.4472656, -5.3048782, 3.1097562, -3.7195122, -0.0693217
-0.84375, 0.0244141, -0.4379883, -5.3048782, 1.097561, -4.2682929, -0.0931563
-0.8183594, 0.0219727, -0.3823242, -5.3048782, -2.2560976, -5.5487804, -0.1044022
-0.7875977, 0.0112305, -0.3496094, -5.1219511, -2.804878, -6.2195125, -0.109102
-0.7841797, 0.0107422, -0.3652344, -4.7560978, 0.0609756, -7.2560978, -0.1055772
-0.7871094, 0.0258789, -0.4179688, -4.7560978, 2.6219513, -7.7439027, -0.0918135
-0.7880859, 0.0288086, -0.4384766, -3.5975611, 5.8536587, -7.3780489, -0.0803998
-0.7705078, 0.0146484, -0.4233398, -1.2195122, 5, -6.5853658, -0.0720073
-0.7514648, 0.0039062, -0.4077148, 0.1829268, 4.5731707, -6.7073174, -0.0649577
-0.7314453, -0.0048828, -0.3974609, 1.6463414, 6.7073174, -7.3170733, -0.0599222
-0.7333984, 0.0004883, -0.4121094, 1.8292683, 9.5731707, -7.8048782, -0.057908
-0.7539062, 0.0273438, -0.4648438, 1.5243902, 15.8536587, -7.9268293, -0.061265
-0.7641602, 0.0458984, -0.4858398, 0.9146342, 17.1951218, -7.5609756, -0.0713359
-0.7670898, 0.065918, -0.4980469, 0.4878049, 16.8902435, -6.7073174, -0.0814069
-0.7436523, 0.0585938, -0.4731445, 0.4268293, 15.9146347, -6.3414636, -0.0941634
-0.7275391, 0.0463867, -0.4560547, -0.3048781, 15.6707325, -5.9756098, -0.0981918
-0.7011719, 0.0258789, -0.4165039, -0.7317073, 16.8292694, -6.0365853, -0.0995346
-0.6987305, 0.0209961, -0.4052734, -0.9146342, 21.6463413, -6.5853658, -0.0847639
-0.7167969, 0.0380859, -0.4194336, -1.2804878, 27.1341476, -6.8292685, -0.0669718
-0.7280273, 0.0483398, -0.449707, -1.402439, 29.2682934, -6.9512196, -0.054551
-0.746582, 0.059082, -0.515625, -2.5609756, 30.8536587, -5.8536587, -0.0459907
-0.7451172, 0.0634766, -0.5385742, -3.5975611, 31.0365868, -5.3048782, -0.0352483
-0.71875, 0.0512695, -0.5249023, -5.2439027, 30.2439022, -4.8780489, -0.0323949
-0.7041016, 0.0366211, -0.496582, -5.8536587, 30, -5.1219511, -0.0310521
-0.671875, 0.0083008, -0.4140625, -5.8536587, 32.6219521, -6.0365853, -0.0223239
-0.6630859, 0.0024414, -0.3657227, -5.5487804, 35.3048782, -6.8292685, -0.0095674
-0.6782227, 0.0019531, -0.3657227, -4.0853658, 42.5609779, -8.6585369, 0.0001678
-0.7163086, -0.0083008, -0.3901367, -3.9024391, 45.6097565, -9.0853662, 0.0105745
-0.737793, -0.0092773, -0.3994141, -2.5, 48.7195129, -9.8170738, 0.0164492
-0.7602539, -0.027832, -0.3945312, -0.8536586, 47.5609779, -10.060976, 0.0246738
-0.7592773, -0.0390625, -0.3896484, -0.1219512, 46.5853653, -10.3658543, 0.0347448
-0.7558594, -0.0400391, -0.4189453, 0.2439024, 46.0975609, -11.1585369, 0.0461585
-0.7514648, -0.0375977, -0.4589844, 0.1829268, 46.7073174, -11.4024391, 0.0706645
-0.7329102, -0.0117188, -0.5424805, -0.3048781, 47.6829262, -11.6463413, 0.1166552
-0.7167969, 0.0009766, -0.5625, -0.3048781, 47.6219521, -11.6463413, 0.1367971
-0.6625977, 0.0166016, -0.5380859, 1.3414634, 45.7926826, -11.9512196, 0.1500572
-0.6079102, 0.0117188, -0.4584961, 2.2560976, 45.4268303, -11.8292685, 0.1643244
-0.5834961, 0.0004883, -0.4160156, 4.2682929, 48.0487823, -12.5, 0.1730526
-0.5776367, -0.0249023, -0.3935547, 5.3048782, 51.8902435, -13.0487804, 0.1686885
-0.5952148, -0.034668, -0.4091797, 6.4024391, 62.68293, -13.2926836, 0.1527428
-0.6489258, -0.0493164, -0.4682617, 8.1707315, 70.7317123, -12.6219511, 0.1183337
-0.6733398, -0.0458984, -0.496582, 8.780488, 72.0731735, -12.1951218, 0.0763714
-0.7060547, -0.0209961, -0.5688477, 9.5731707, 70.3658524, -12.3780489, 0.0392767
-0.7143555, -0.0009766, -0.5942383, 9.0853662, 68.4756088, -11.9512196, 0.0172885
-0.7045898, 0.0585938, -0.6191406, 6.3414636, 64.6951218, -10.3658543, 0.0077211
-0.6816406, 0.0849609, -0.6132812, 4.6341462, 63.5365868, -9.2073174, -0.0142672
-0.625, 0.0996094, -0.5834961, 1.3414634, 63.7195129, -9.3902445, -0.0365911
-0.5869141, 0.0600586, -0.5737305, -0.2439024, 64.6951218, -9.2682924, -0.0525368
-0.5649414, 0.0332031, -0.5668945, -3.2317073, 67.5609741, -8.5365858, -0.0605936
-0.5395508, -0.0131836, -0.5454102, -4.0853658, 69.9390259, -8.2926826, -0.0733501
-0.5356445, -0.0371094, -0.5322266, -3.7195122, 74.8170776, -7.9268293, -0.0876173
-0.5488281, -0.0727539, -0.5073242, -0.6707317, 79.7560959, -8.5975609, -0.090135
-0.5595703, -0.0834961, -0.5063477, 1.402439, 81.8292694, -8.5365858, -0.0941634
-0.5874023, -0.0947266, -0.5288086, 5.3048782, 85.9146347, -8.9634151, -0.1037308
-0.6098633, -0.0854492, -0.5517578, 6.4024391, 87.6219559, -9.3292685, -0.102388
-0.6391602, -0.0439453, -0.5800781, 7.7439027, 89.6951218, -9.8170738, -0.0963455
-0.6450195, -0.0166016, -0.5751953, 7.7439027, 89.5731735, -10.3658543, -0.090135
-0.6391602, -0.0058594, -0.5317383, 7.8048782, 86.0975647, -12.6219511, -0.0830854
-0.6274414, -0.0297852, -0.4907227, 8.0487804, 83.7195129, -13.6585369, -0.0928206
-0.6171875, -0.0463867, -0.5048828, 7.3780489, 82.0121994, -15.2439032, -0.1008774
-0.6108398, -0.050293, -0.5942383, 7.0121951, 82.5609741, -15.5487804, -0.0995346
-0.605957, -0.046875, -0.6362305, 6.8292685, 85.8536606, -15.3658543, -0.0928206
-0.5771484, -0.0322266, -0.6430664, 7.8048782, 86.8292694, -15.3658543, -0.1085985
-0.5600586, -0.0332031, -0.6147461, 8.841464, 86.0975647, -15.9146347, -0.1143053
-0.5400391, -0.0253906, -0.5527344, 9.9390249, 85.9146347, -16.7682934, -0.1055772
-0.5361328, -0.0131836, -0.5522461, 10.1829271, 87.1341476, -16.4024391, -0.0887922
-0.5483398, 0.0209961, -0.5908203, 8.9634151, 93.3536606, -14.2682934, -0.0676432
-0.5576172, 0.0419922, -0.6108398, 7.9268293, 97.1951218, -12.9878054, -0.0468299
-0.578125, 0.0595703, -0.6142578, 6.0975609, 101.646347, -12.9268293, -0.030045
-0.59375, 0.0131836, -0.6010742, 5.1829271, 101.2804871, -13.5975609, -0.0209812
-0.5908203, -0.015625, -0.6040039, 3.2317073, 96.8902435, -13.5365858, -0.0169528
-0.5898438, -0.0390625, -0.6235352, 2.0731707, 94.0243912, -13.2317076, -0.0184634
-0.5864258, -0.0317383, -0.6425781, 0.8536586, 91.5243912, -11.8292685, -0.008896
-0.5644531, -0.0039062, -0.6796875, 0.7317073, 92.5609741, -11.219512, 0.0085603
-0.5483398, 0.0068359, -0.6928711, 0.7317073, 92.9268341, -11.219512, 0.0099031
-0.5107422, 0.0073242, -0.6791992, 0.4878049, 91.5853653, -11.6463413, 0.0186313
-0.4946289, 0.0043945, -0.6699219, 0.2439024, 90.7317123, -12.0731707, 0.0293736
-0.465332, 0.0107422, -0.7099609, -2.5609756, 91.7073212, -12.6219511, 0.0344091
-0.4643555, 0.0253906, -0.7573242, -5.1219511, 94.0243912, -12.6219511, 0.0370947
-0.4765625, 0.0634766, -0.8549805, -10.4878054, 99.9390259, -10.3048782, 0.0513619
-0.4702148, 0.0732422, -0.824707, -12.7439032, 100.9756088, -8.6585369, 0.0562295
-0.4570312, 0.0610352, -0.7705078, -14.3292685, 98.8414688, -6.2195125, 0.0347448
-0.4316406, 0.0234375, -0.6645508, -13.6585369, 97.5609741, -5.7317076, 0.0119173
-0.4223633, -0.0043945, -0.644043, -10.9756098, 97.9878082, -5.9756098, -0.0099031
-0.440918, -0.0820312, -0.6875, -7.6829271, 104.3902435, -4.8780489, -0.0109102
-0.4580078, -0.1269531, -0.7280273, -5.8536587, 107.4390259, -3.9024391, -0.0139315
-0.4780273, -0.2021484, -0.7905273, -1.1585366, 110.7926865, -2.2560976, -0.0317235
-0.4829102, -0.2236328, -0.8022461, 2.0731707, 110.4878082, -2.1341465, -0.0518654
-0.4770508, -0.2182617, -0.7607422, 9.2682924, 109.2682953, -3.3536587, -0.0364233
-0.4750977, -0.1894531, -0.7246094, 12.9878054, 108.9634171, -4.7560978, -0.0015106
-0.4667969, -0.1230469, -0.6806641, 19.3902435, 110.8536606, -8.1707315, 0.0209812
-0.4785156, -0.0546875, -0.6948242, 21.280489, 112.86586, -9.8780489, 0.0344091
-0.487793, -0.034668, -0.7148438, 21.7073174, 115.36586, -12.9878054, 0.0374304
-0.4941406, -0.0366211, -0.71875, 21.2195129, 115, -14.2682934, 0.0265202
-0.4907227, -0.0561523, -0.7045898, 20.3048782, 110.7317123, -16.3414631, 0.0065461
-0.4692383, -0.112793, -0.6611328, 22.3780499, 105.5487823, -17.560976, -0.0229953
-0.4560547, -0.1337891, -0.6533203, 24.6341476, 104.2073212, -18.2317085, -0.0313878
-0.4389648, -0.1396484, -0.6699219, 29.7560978, 105.9146347, -19.3902435, -0.0310521
-0.4345703, -0.1264648, -0.6982422, 31.2195129, 108.1707306, -20.2439022, -0.0283665
-0.440918, -0.0800781, -0.7700195, 32.6219521, 111.8902435, -21.4024391, -0.0310521
-0.4438477, -0.0449219, -0.815918, 31.8902454, 113.0487823, -22.1341476, -0.0224918
-0.4536133, 0.0292969, -0.8813477, 27.0121956, 112.3170776, -23.0487804, -0.0169528
-0.4438477, 0.0703125, -0.8754883, 24.3902435, 110.8536606, -23.2317085, -0.0065461
-0.4360352, 0.0791016, -0.8496094, 18.6585369, 106.4634171, -22.0731716, 0.0008392
-0.4125977, 0.0761719, -0.7978516, 14.4512196, 104.0853653, -20.5487804, -0.0001678
-0.3979492, 0.065918, -0.7939453, 12.2560978, 104.3902435, -19.6341476, -0.0112459
-0.3994141, 0.0405273, -0.8144531, 7.7439027, 107.5609818, -17.9268303, -0.0206455
-0.4072266, 0.0253906, -0.8466797, 5.4878049, 108.8414688, -17.3780499, -0.0218204
-0.4257812, -0.0224609, -0.9316406, -1.097561, 109.3292694, -14.3902445, -0.0360876
-0.4267578, -0.0556641, -0.9594727, -4.0243902, 108.2317123, -12.6219511, -0.0471656
-0.40625, -0.105957, -0.9594727, -5.3658538, 103.8414688, -7.8048782, -0.054551
-0.371582, -0.1230469, -0.9262695, -4.0243902, 102.9268341, -6.0365853, -0.0569009
-0.3154297, -0.1508789, -0.8618164, 1.5243902, 105.1219559, -6.2195125, -0.0525368
-0.2822266, -0.1679688, -0.8769531, 5, 108.4756088, -6.7682929, -0.036759
-0.28125, -0.168457, -0.9135742, 10, 117.1951218, -9.0853662, -0.0219883
-0.2919922, -0.152832, -0.9926758, 12.1341467, 123.1707382, -10.060976, -0.0125887
-0.2949219, -0.1425781, -1.0141602, 11.7073174, 124.7561035, -10.3658543, -0.0102388
-0.2836914, -0.1303711, -0.9897461, 11.0975609, 124.2073212, -11.219512, -0.0015106
-0.2724609, -0.1264648, -0.9648438, 11.280488, 123.5365906, -12.560976, 0.0139315
-0.2558594, -0.0991211, -0.9418945, 10.6707315, 124.6951218, -14.6951227, 0.0327306
-0.2617188, -0.081543, -0.9521484, 9.8780489, 127.5, -16.0975609, 0.0750286
-0.2851562, -0.0356445, -0.9863281, 6.9512196, 133.0487823, -18.2317085, 0.0740215
-0.3012695, -0.027832, -0.9848633, 5.4268293, 134.8780518, -19.3902435, 0.0240024
-0.3305664, -0.0341797, -0.9082031, 3.2317073, 132.9268341, -21.0365868, -0.0135958
-0.3378906, -0.1083984, -0.7807617, 2.9878049, 129.6951294, -21.4024391, -0.0320592
-0.3422852, -0.1577148, -0.7319336, 4.9390244, 123.7804871, -21.7073174, -0.061265
-0.3588867, -0.2480469, -0.6933594, 9.8170738, 121.7073212, -21.6463413, -0.090135
-0.3720703, -0.2744141, -0.6992188, 13.2317076, 122.1341476, -21.8292694, -0.0797284
-0.4277344, -0.2739258, -0.7338867, 20.4878044, 125, -22.0731716, -0.0125887
-0.4516602, -0.2460938, -0.7602539, 24.3292694, 126.5243912, -22.2560978, 0.0558938
-0.4755859, -0.1577148, -0.8427734, 29.3902454, 127.3780518, -22.7439022, 0.0710002
-0.4736328, -0.1083984, -0.9082031, 30.1829281, 126.8292694, -23.1097565, 0.0626078
-0.4321289, -0.0454102, -1.0654297, 25.6707325, 123.7195129, -24.0853672, 0.0139315
-0.3881836, -0.0297852, -1.1367188, 20.4268303, 121.1585388, -24.3292694, -0.0431373
-0.277832, -0.0268555, -1.1982422, 8.780488, 115.2439041, -24.0853672, -0.0861067
-0.1416016, -0.0458984, -1.1416016, 3.1097562, 112.86586, -23.6585369, -0.1263905
-0.0791016, -0.0610352, -1.0805664, -2.804878, 111.5853653, -22.7439022, -0.1545892
0.0073242, -0.0976562, -0.9658203, -2.0731707, 116.1585388, -21.7073174, -0.1639887
0.015625, -0.112793, -0.9365234, 0.3658537, 120.9146347, -20.6097565, -0.1604639
-0.0322266, -0.1430664, -0.949707, 5.609756, 133.1097565, -18.9634151, -0.1451896
-0.078125, -0.1479492, -0.9858398, 8.1097565, 139.0853729, -17.9268303, -0.1324331
-0.1791992, -0.1552734, -1.0405273, 11.0365858, 146.5853729, -16.0365849, -0.1109483
-0.2338867, -0.1650391, -1.0380859, 11.8902445, 146.2804871, -15.3658543, -0.0716716
-0.3007812, -0.1826172, -0.9335938, 11.280488, 139.146347, -15.1219511, -0.0458228
-0.3178711, -0.1938477, -0.8583984, 11.4634151, 133.5365906, -15.9146347, -0.0287022
-0.3334961, -0.2001953, -0.7924805, 13.2926836, 126.4634171, -18.4756107, -0.0377661
-0.3496094, -0.1977539, -0.9238281, 15.060976, 125.8536606, -20.3048782, -0.0528725
-0.3540039, -0.2016602, -1.0385742, 18.3536587, 127.0731735, -22.5, -0.0236667
-0.3193359, -0.2338867, -1.2075195, 18.5365849, 125.36586, -22.0121956, -0.0058747
-0.2719727, -0.2607422, -1.2294922, 18.1097565, 122.3780518, -20.7317085, -0.0292058
-0.1347656, -0.2919922, -1.1513672, 17.6829281, 116.1585388, -18.1097565, -0.0364233
-0.0610352, -0.28125, -1.0795898, 18.7195129, 115.9756088, -17.439024, -0.0464942
0.0429688, -0.1933594, -0.9604492, 22.0731716, 124.5121994, -19.6951218, -0.0485084
0.0517578, -0.1240234, -0.9389648, 24.1463413, 131.8902435, -22.3170738, -0.0381018
-0.0087891, 0.0068359, -0.9550781, 25.3658543, 143.6585388, -27.9268303, -0.0216526
-0.0629883, 0.0463867, -0.9848633, 23.5365868, 145.8536682, -29.6341476, -0.0219883
-0.1899414, 0.0429688, -1.0039062, 13.9634151, 140.36586, -29.8170738, -0.0270237
-0.2685547, -0.0341797, -0.9516602, 8.1707315, 134.2682953, -28.6585369, -0.0276951
-0.2797852, -0.0854492, -0.9179688, -1.4634147, 122.3780518, -24.6951218, -0.0310521
-0.2739258, -0.1889648, -0.9033203, -3.9024391, 114.6951218, -22.8658543, -0.0485084
-0.2539062, -0.2280273, -0.9277344, -2.9878049, 113.4146347, -22.8048782, -0.0767071
-0.2119141, -0.2817383, -1.0112305, 1.5853659, 113.6585388, -22.6219521, -0.0874495
-0.1855469, -0.2988281, -1.0375977, 3.7195122, 114.2682953, -22.560976, -0.0891279
-0.1323242, -0.2915039, -1.0166016, 6.9512196, 115, -22.3170738, -0.0897993
-0.0996094, -0.269043, -0.9794922, 8.4146347, 115.7317123, -22.439024, -0.0850996
-0.0351562, -0.2084961, -0.9560547, 10.4878054, 119.7561035, -24.0243912, -0.0740215
-0.0166016, -0.1679688, -1.0131836, 10.9756098, 123.9634171, -25.4878063, -0.0431373
-0.0141602, -0.0893555, -1.2026367, 8.4146347, 132.8048859, -27.9878063, -0.008896
-0.0170898, -0.0405273, -1.3261719, 5.7317076, 135.4878082, -28.2926826, -0.0062104
-0.0043945, -0.027832, -1.3061523, -1.6463414, 134.5121918, -25.9146347, -0.0036927
0.0498047, -0.0371094, -1.1518555, -6.4024391, 130.7317047, -21.1585369, 0.0078889
0.0810547, -0.0566406, -1.0493164, -6.5853658, 130.1829224, -19.0853672, 0.0115816
0.1142578, -0.1176758, -0.8847656, -1.2804878, 134.0853729, -17.0121956, 0.0142672
0.1015625, -0.1523438, -0.8413086, 2.6219513, 137.5, -16.9512196, 0.0072175
0.0170898, -0.2226562, -0.8305664, 10.4878054, 142.6829376, -18.2926826, -0.023331
-0.0375977, -0.2563477, -0.8540039, 13.4146347, 143.0487823, -18.9634151, -0.0485084
-0.1333008, -0.2963867, -0.9536133, 15.7317076, 139.7561035, -20.7926826, -0.0595865
-0.184082, -0.2895508, -1.1166992, 15.1829271, 137.7439117, -21.4634151, -0.0622721
-0.1816406, -0.2587891, -1.1967773, 11.280488, 134.8780518, -21.6463413, -0.0552224
-0.1337891, -0.1879883, -1.2739258, 9.2073174, 134.2073212, -21.5243912, -0.0446479
-0.0766602, -0.1621094, -1.2495117, 4.3292685, 130.36586, -20.7926826, -0.0404517
0.0644531, -0.1586914, -1.0986328, 2.5609756, 123.9024429, -19.8170738, -0.0303807
0.1396484, -0.1733398, -1.012207, 2.9268293, 121.2804871, -19.3292694, -0.0297093
0.253418, -0.2045898, -0.9033203, 5.7317076, 122.0731735, -19.5731716, -0.0260166
0.2792969, -0.21875, -0.9101562, 7.6829271, 125.7317123, -20.4878044, -0.0243381
0.2597656, -0.2094727, -1.0498047, 11.1585369, 136.0365906, -23.3536587, -0.01561
0.2202148, -0.1899414, -1.1484375, 11.6463413, 140.1829376, -24.5731716, 0.0246738
0.1342773, -0.1220703, -1.2734375, 8.1097565, 143.8414612, -24.4512196, 0.0884565
0.0830078, -0.0405273, -1.2172852, 4.8170733, 142.1341553, -22.8658543, 0.142504
0.0825195, -0.0087891, -1.125, -2.7439024, 135, -18.9024391, 0.1958801
0.0961914, 0.0087891, -0.894043, -5.670732, 131.0365906, -17.3780499, 0.2096437
0.0986328, -0.0146484, -0.7895508, -8.4756098, 123.9634171, -16.9512196, 0.1864805
0.0625, -0.1118164, -0.6547852, -7.8658538, 117.6219559, -19.3902435, 0.1413291
0.0229492, -0.168457, -0.6489258, -6.5243902, 114.3902435, -20.5487804, 0.0908064
-0.050293, -0.2543945, -0.8051758, -3.7195122, 110.2439041, -22.3170738, 0.0533761
-0.0791016, -0.2685547, -0.9604492, -1.8902439, 109.3292694, -22.6219521, 0.0105745
-0.0844727, -0.277832, -1.2700195, -0.1829268, 108.8414688, -20.2439022, -0.0290379
-0.0541992, -0.2827148, -1.3588867, 0.1219512, 107.3170776, -17.6829281, -0.0488441
0.0922852, -0.309082, -1.3217773, -0.4268293, 99.0243912, -12.3170738, -0.0783856
0.3164062, -0.3222656, -1.105957, -0.1219512, 94.5731735, -10, -0.0971847
0.4257812, -0.3134766, -1.0253906, 3.1097562, 94.0243912, -8.3536587, -0.0995346
0.565918, -0.2211914, -1.0688477, 5.8536587, 101.2195129, -9.3292685, -0.0978561
0.5791016, -0.159668, -1.1806641, 13.3536587, 126.3414688, -15.4268293, -0.0923171
0.5019531, -0.0551758, -1.3925781, 18.780489, 145.3048859, -20.9146347, -0.0908064
0.4545898, -0.0429688, -1.4208984, 18.780489, 147.4390259, -20.9756107, -0.0814069
0.3935547, -0.0913086, -1.2641602, 13.7195129, 139.8170776, -16.1585369, -0.0809033
0.3891602, -0.1425781, -1.1132812, 10.9146347, 134.3292694, -13.1707315, -0.061265
0.3803711, -0.2348633, -0.8266602, 9.2682924, 130.0609741, -9.8780489, -0.030045
0.3530273, -0.262207, -0.7578125, 11.8902445, 132.1341553, -11.280488, -0.0256809
0.2324219, -0.2729492, -0.8027344, 20.3048782, 139.6951294, -18.7195129, -0.018967
0.0678711, -0.2333984, -1.0209961, 23.9634151, 141.8292694, -23.2317085, 0.0001678
-0.0039062, -0.2138672, -1.1342773, 26.1585369, 140.2439117, -28.9634151, -0.0058747
-0.0605469, -0.1860352, -1.2651367, 23.5365868, 136.4024353, -28.841465, 0.0003357
-0.0366211, -0.1831055, -1.2509766, 13.0487804, 123.8414688, -24.2682934, 0.0169528
0.1069336, -0.1733398, -1.1025391, 1.9512196, 110.7317123, -18.780489, 0.0135958
0.1938477, -0.1674805, -1.0009766, -0.9146342, 106.7073212, -17.439024, -0.0104067
0.3515625, -0.1401367, -0.8344727, -0.9756098, 106.7073212, -18.4756107, -0.0337377
0.3994141, -0.1181641, -0.7915039, 1.5243902, 109.6951218, -20.6707325, -0.0632792
0.3969727, -0.0917969, -0.7915039, 7.4390244, 116.4634171, -25.8536587, -0.0908064
0.3603516, -0.0839844, -0.8232422, 9.6951218, 118.4756088, -27.7439022, -0.1065843
0.2592773, -0.0717773, -0.9194336, 9.2073174, 118.4756088, -28.3536587, -0.1049058
0.1787109, -0.0864258, -1.0019531, 7.0121951, 116.7682953, -27.560976, -0.0887922
0.1611328, -0.1079102, -1.0375977, 0.7926829, 110.5487823, -24.0853672, -0.0642863
0.1826172, -0.1738281, -1.097168, -2.3170731, 107.0121994, -22.560976, -0.0364233
0.2099609, -0.2128906, -1.1337891, -7.9268293, 101.7682953, -20.7317085, -0.008896
0.3037109, -0.2875977, -1.2167969, -9.8780489, 100.7317123, -20.6097565, -0.0018463
0.3613281, -0.3183594, -1.2617188, -9.2682924, 102.1341476, -20.7317085, 0.0146029
0.4741211, -0.3579102, -1.3051758, -5.670732, 106.4634171, -20.4268303, 0.0438087
0.5288086, -0.3701172, -1.2866211, -2.9268293, 108.9024429, -19.7560978, 0.0464942
0.6323242, -0.3916016, -1.1635742, 3.7804878, 114.6951218, -17.9268303, 0.0574044
0.671875, -0.3935547, -1.0922852, 7.8658538, 119.9390259, -17.2560978, 0.0599222
0.6928711, -0.3530273, -0.9960938, 18.4146347, 134.0243988, -19.0853672, 0.0616007
0.6030273, -0.2709961, -0.9975586, 24.3292694, 141.8292694, -21.2195129, 0.0464942
0.5249023, -0.2172852, -1.0102539, 34.6341476, 152.5, -26.8292694, 0.0270237
0.3598633, -0.1210938, -1.0273438, 37.5, 154.0853729, -28.841465, 0.0062104
0.2871094, -0.0878906, -1.0307617, 37.0121956, 150.9146423, -30.7926846, -0.0095674
0.1982422, -0.0546875, -1.0371094, 29.2073174, 143.5365906, -29.5121956, -0.0135958
0.1806641, -0.0639648, -1.0493164, 24.0853672, 139.8780518, -28.5975609, -0.002182
0.1958008, -0.1123047, -1.0942383, 12.9268293, 132.5, -25.7317085, 0.0223239
0.2202148, -0.1362305, -1.1191406, 7.8658538, 128.7804871, -24.4512196, 0.0464942
0.2998047, -0.1767578, -1.140625, 0.4268293, 124.8780518, -21.2195129, 0.0654612
0.3505859, -0.1728516, -1.1376953, -1.7073171, 124.4512253, -19.3902435, 0.0736858
0.4516602, -0.1333008, -1.1064453, -3.2317073, 127.0121994, -15.7926836, 0.0710002
0.5498047, -0.0742188, -1.0620117, -3.1097562, 129.6951294, -14.0853662, 0.072343
0.5859375, -0.0585938, -1.0327148, -3.6585367, 133.6585388, -12.4390249, 0.073518
0.6245117, -0.0615234, -0.9609375, -5.4268293, 133.9634247, -12.6219511, 0.0931563
0.6206055, -0.0864258, -0.9335938, -10.8536587, 131.7682953, -13.4146347, 0.1166552
0.5708008, -0.1352539, -0.8808594, -16.5853653, 126.5853653, -15.7926836, 0.1539178
0.5258789, -0.1660156, -0.8603516, -18.3536587, 123.5975647, -17.1951218, 0.1401541
0.4243164, -0.2182617, -0.8422852, -18.5975609, 119.0243912, -18.9634151, 0.105745
0.3759766, -0.2387695, -0.8603516, -17.9268303, 117.2561035, -19.3292694, 0.0931563
0.3261719, -0.2700195, -0.9277344, -15.3048782, 114.8780518, -18.4146347, 0.0743572
0.3222656, -0.2827148, -0.9702148, -14.2073174, 113.2317123, -17.3170738, 0.0475013
0.3583984, -0.2978516, -1.0146484, -13.2926836, 109.2073212, -15.1219511, 0.0038605
0.4555664, -0.3105469, -0.9833984, -13.1707315, 106.2195129, -14.3902445, -0.0649577
0.5146484, -0.3168945, -0.9624023, -11.7682934, 101.8902435, -13.3536587, -0.1055772
0.628418, -0.3212891, -0.9492188, -9.8170738, 101.4634171, -13.6585369, -0.1055772
0.6708984, -0.3217773, -0.9648438, -4.0243902, 104.5121994, -15.1829271, -0.0943313
0.7236328, -0.3349609, -1.0141602, 3.9634147, 110.5487823, -17.8048782, -0.1082628
0.7294922, -0.3491211, -1.0214844, 7.9268293, 112.0121994, -18.5975609, -0.1015488
0.7265625, -0.3657227, -0.9868164, 15.1219511, 113.9024429, -19.6341476, -0.0909743
0.7197266, -0.3588867, -0.9521484, 18.2926826, 115.2439041, -20.2439022, -0.0736858
0.6879883, -0.3110352, -0.9121094, 23.2317085, 118.9634171, -22.1341476, -0.0515297
0.6503906, -0.2705078, -0.9204102, 26.280489, 121.9512253, -23.780489, -0.0609293
0.5566406, -0.1816406, -0.9960938, 29.3292694, 126.5243912, -27.0121956, -0.057908
0.4731445, -0.1113281, -1.105957, 29.0853672, 127.68293, -28.1097565, -0.0525368
0.4477539, -0.0942383, -1.1445312, 24.3902435, 126.2804871, -27.560976, -0.0310521
0.4482422, -0.1088867, -1.1293945, 20.3048782, 123.7804871, -25.8536587, 0.0050355
0.472168, -0.1289062, -1.0898438, 11.280488, 117.6219559, -21.4634151, 0.0058747
0.5561523, -0.1777344, -0.9858398, 5.4268293, 114.146347, -17.8048782, -0.0552224
0.6020508, -0.1914062, -0.9492188, 4.6951222, 114.6341476, -17.3170738, -0.1250477
0.6542969, -0.1894531, -0.9223633, 5.5487804, 119.5731735, -18.2317085, -0.1710384
0.6621094, -0.1772461, -0.9291992, 6.4634147, 122.86586, -19.4512196, -0.2395209
0.6318359, -0.1376953, -0.9609375, 6.5243902, 127.9878082, -21.5243912, -0.3063249
0.6069336, -0.1186523, -0.9775391, 4.8780489, 128.9024353, -22.0121956, -0.4056916
0.5712891, -0.0922852, -1.0244141, -1.2195122, 127.1341476, -21.4634151, -0.4667887
0.5722656, -0.1083984, -1.0498047, -5.3658538, 125.5487823, -20.8536587, -0.418616
0.5859375, -0.1362305, -1.0385742, -14.0243902, 120.2439041, -19.3292694, -0.2663767
0.6381836, -0.2099609, -0.9829102, -17.9878044, 117.1341476, -18.6585369, -0.0814069
0.6640625, -0.2451172, -0.9467773, -23.3536587, 112.3170776, -18.8414631, 0.0501869
0.7036133, -0.2978516, -0.8774414, -22.439024, 111.3414688, -20.1829281, 0.1305867
0.7109375, -0.309082, -0.8530273, -20.3658543, 112.8048782, -21.5243912, 0.1681849
0.6894531, -0.3085938, -0.8066406, -12.6219511, 116.646347, -24.3292694, 0.1468681
0.6694336, -0.2944336, -0.784668, -8.4756098, 118.1097565, -25.4878063, 0.0864424
0.6171875, -0.262207, -0.7504883, -1.4634147, 118.5365906, -26.4024391, 0.0072175
0.5947266, -0.2495117, -0.7407227, 0.3048781, 117.68293, -26.7682934, -0.0793927
0.5439453, -0.2192383, -0.7739258, 1.097561, 113.9634171, -27.8048782, -0.1106126
0.5107422, -0.2021484, -0.8696289, -0.0609756, 111.646347, -28.7195129, -0.0765393
0.4985352, -0.1894531, -0.921875, -3.9024391, 106.4634171, -29.5121956, -0.026688
0.5078125, -0.1679688, -0.9907227, -6.5853658, 103.9634171, -29.5731716, 0.018967
0.5385742, -0.1669922, -1.0009766, -10.9146347, 98.1097565, -27.6829281, 0.0696574
0.6337891, -0.1972656, -0.9716797, -13.3536587, 94.2073212, -24.5121956, 0.0763714
0.6914062, -0.2270508, -0.9487305, -13.2317076, 93.1097565, -23.0487804, 0.0439765
0.8037109, -0.2797852, -0.9013672, -11.341464, 93.9024429, -20.7926826, 0.0078889
0.8466797, -0.3017578, -0.8828125, -9.3292685, 95.8536606, -20.9756107, -0.0246738
0.8823242, -0.3125, -0.8930664, -4.3292685, 102.8658524, -23.1097565, -0.0404517
0.8706055, -0.2983398, -0.9287109, -1.7682927, 107.1341476, -24.6341476, -0.0616007
0.8125, -0.2451172, -1.0512695, 2.5, 115.2439041, -27.4390259, -0.0750286
0.7480469, -0.1933594, -1.1767578, 3.2317073, 118.2926865, -27.9268303, -0.1089342
0.730957, -0.1850586, -1.1918945, 1.097561, 121.2804871, -26.1585369, -0.1237049
0.7392578, -0.1962891, -1.0942383, -4.9390244, 118.4146347, -22.2560978, -0.1169909
0.7612305, -0.2148438, -0.9931641, -7.6219516, 116.646347, -20.6707325, -0.0961776
0.8154297, -0.253418, -0.7998047, -9.5121956, 116.8292694, -20.6097565, -0.0809033
0.8232422, -0.2631836, -0.7426758, -7.8048782, 119.2682953, -21.6463413, -0.0616007
0.777832, -0.265625, -0.7612305, -1.5243902, 126.4024429, -25.6707325, -0.0384375
0.7358398, -0.2543945, -0.8251953, 2.0121951, 129.2682953, -27.560976, -0.0124208
0.6455078, -0.2275391, -0.9746094, 4.6341462, 130.9756165, -28.4146347, 0.0172885
0.6196289, -0.2148438, -1.0224609, 2.9878049, 129.5731812, -27.1951218, 0.0270237
0.6162109, -0.1948242, -0.9887695, -3.5365853, 124.6951218, -22.560976, 0.026688
0.6850586, -0.1923828, -0.8081055, -7.3170733, 121.2804871, -20, 0.0320592
0.7324219, -0.1918945, -0.7084961, -11.219512, 116.7682953, -17.560976, 0.0340734
0.7866211, -0.1948242, -0.6113281, -9.6951218, 115.2439041, -19.5121956, 0.0223239
0.7866211, -0.1938477, -0.6386719, -7.3780489, 115.7926865, -21.8902435, 0.0085603
0.7416992, -0.1967773, -0.7973633, -4.2073174, 115.36586, -26.280489, -0.0008392
0.7104492, -0.2050781, -0.8779297, -4.390244, 113.9634171, -26.8292694, 0.0062104
0.6923828, -0.2197266, -0.9609375, -9.2073174, 108.7804871, -24.5121956, 0.026688
0.7045898, -0.2294922, -0.9448242, -12.3170738, 105.9756088, -22.2560978, 0.0637827
0.78125, -0.2324219, -0.8535156, -16.5853653, 102.5609818, -18.2317085, 0.0894636
0.8237305, -0.2250977, -0.8032227, -16.7073174, 102.5609818, -17.6829281, 0.0844282
0.8867188, -0.2050781, -0.7441406, -14.0243902, 104.9390259, -19.2073174, 0.1065843
0.8793945, -0.1767578, -0.7490234, -11.8292685, 106.3414688, -20.7926826, 0.1388113
0.8588867, -0.1694336, -0.7587891, -8.9634151, 107.1951218, -23.9634151, 0.1381399
0.8095703, -0.1772461, -0.8051758, -10, 105.0609818, -24.6951218, 0.117998
0.7880859, -0.1831055, -0.8408203, -11.5853662, 103.9634171, -23.9634151, 0.1032273
0.7617188, -0.2036133, -0.8945312, -15.2439032, 101.1585388, -21.4634151, 0.0783856
0.7685547, -0.2192383, -0.9013672, -16.7682934, 99.4512253, -20.060976, 0.0495155
0.8056641, -0.265625, -0.8676758, -17.9268303, 96.0365906, -18.0487804, 0.0213169
0.8339844, -0.2890625, -0.8305664, -17.3780499, 95.0609741, -17.6829281, -0.0005035
0.8911133, -0.3198242, -0.7792969, -14.2682934, 95.7317123, -18.4146347, -0.0048676
0.9082031, -0.3310547, -0.7583008, -11.7682934, 96.8292694, -19.6951218, -0.0152743
0.9106445, -0.3300781, -0.7294922, -6.4634147, 99.6341476, -22.0121956, -0.0464942
0.8769531, -0.3037109, -0.7324219, -3.9024391, 100.3048782, -23.2317085, -0.0642863
0.8530273, -0.2783203, -0.7485352, 0.2439024, 101.2804871, -24.5731716, -0.073518
0.8081055, -0.2172852, -0.8208008, 2.0731707, 102.0731735, -24.8780499, -0.079057
0.7929688, -0.1884766, -0.8730469, 1.8902439, 102.5, -24.2682934, -0.0923171
0.7841797, -0.1416016, -0.9560547, -0.9756098, 103.8414688, -22.0121956, -0.1008774
0.796875, -0.1376953, -0.9692383, -2.9878049, 104.0853653, -21.1585369, -0.1079271
0.8579102, -0.1591797, -0.9194336, -7.3780489, 102.8658524, -18.8414631, -0.1129625
0.8979492, -0.1850586, -0.8632812, -9.1463413, 102.2561035, -18.1097565, -0.115816
0.9643555, -0.2299805, -0.769043, -10.3658543, 103.9634171, -17.560976, -0.1159838
0.9790039, -0.2446289, -0.7470703, -8.9634151, 106.5853653, -18.1097565, -0.1183337
0.9624023, -0.234375, -0.7636719, -5.4268293, 114.0243912, -20.1829281, -0.1331044
0.8891602, -0.1777344, -0.8164062, -4.0243902, 117.0121994, -20.9756107, -0.1572747
0.8515625, -0.1386719, -0.8344727, -3.1707318, 120.2439041, -20.5487804, -0.1754025
0.8041992, -0.0839844, -0.8271484, -6.4024391, 118.9634171, -18.6585369, -0.1831235
0.8012695, -0.0727539, -0.8066406, -9.3292685, 117.5609818, -17.5, -0.1646601
0.8261719, -0.1035156, -0.7783203, -15.6707325, 113.7195129, -15, -0.1216907
0.84375, -0.1313477, -0.7753906, -18.4146347, 111.9512253, -14.2682934, -0.1012131
0.8916016, -0.2216797, -0.7592773, -21.5243912, 107.6219559, -14.3292685, -0.0780499
0.9155273, -0.2734375, -0.7304688, -22.1951218, 105.3658524, -14.3902445, -0.012253
0.956543, -0.3569336, -0.6254883, -20.1829281, 101.5853653, -15.8536587, 0.0619364
0.96875, -0.3803711, -0.5595703, -17.9878044, 100.3048782, -16.7682934, 0.1193408
0.9536133, -0.3833008, -0.4672852, -10.3048782, 100.3048782, -18.1707325, 0.1394827
0.8896484, -0.3193359, -0.4658203, -5.609756, 100.9146347, -19.6341476, 0.0884565
0.8452148, -0.2763672, -0.4960938, 3.7195122, 100, -22.1951218, 0.0139315
0.7763672, -0.1972656, -0.5644531, 7.8048782, 94.5121994, -23.4146347, -0.0884565
0.7626953, -0.1699219, -0.59375, 7.5609756, 90.6097565, -23.4756107, -0.2064546
0.7768555, -0.144043, -0.6040039, 3.3536587, 81.8902435, -22.0121956, -0.2821546
0.7993164, -0.1396484, -0.6015625, 0.9756098, 78.1097565, -21.4634151, -0.3059892
0.8710938, -0.1557617, -0.625, -3.3536587, 73.2926865, -21.8292694, -0.240528
0.902832, -0.1679688, -0.6640625, -4.5731707, 71.8292694, -22.6219521, -0.0438087
0.9541016, -0.1987305, -0.7573242, -6.5853658, 71.9512177, -24.0853672, 0.1515679
0.987793, -0.2226562, -0.7924805, -7.0121951, 72.5, -24.3902435, 0.2848402
1.0029297, -0.2294922, -0.7749023, -6.890244, 74.5731735, -23.4756107, 0.3701076
1.0375977, -0.2329102, -0.6992188, -6.1585369, 76.0975647, -22.439024, 0.3785
1.0493164, -0.2333984, -0.6625977, -2.3170731, 80, -21.0975609, 0.3194171
1.0410156, -0.2231445, -0.6362305, 1.9512196, 84.2682953, -20.7317085, 0.2274357
1.0200195, -0.2177734, -0.6508789, 3.9024391, 85.9146347, -20.7926826, 0.1082628
0.9658203, -0.1967773, -0.7241211, 4.2073174, 88.9024429, -20.7317085, 0.0292058
0.9477539, -0.1879883, -0.7719727, 3.3536587, 89.4512253, -20.7317085, -0.012253
0.9335938, -0.1708984, -0.8466797, -0.6097561, 90.4268341, -20.4878044, -0.0411231
0.9394531, -0.1640625, -0.8549805, -3.1707318, 90.4878082, -19.6951218, -0.0592508
0.9716797, -0.1679688, -0.78125, -6.5243902, 90.3658524, -17.9268303, -0.0793927
1.0209961, -0.175293, -0.6611328, -7.1341467, 90.8536606, -17.3170738, -0.093492
1.0361328, -0.1821289, -0.6157227, -6.3414636, 93.1097565, -16.7682934, -0.0931563
1.019043, -0.1762695, -0.6044922, -5.1829271, 95.2439041, -16.7682934, -0.0928206
0.9951172, -0.1645508, -0.6313477, -3.4756098, 98.5365906, -17.9268303, -0.1012131
0.9370117, -0.1396484, -0.7211914, -4.8170733, 99.3292694, -17.1951218, -0.1032273
0.9160156, -0.1254883, -0.7592773, -6.7073174, 98.2926865, -16.4634151, -0.0941634
0.9155273, -0.0957031, -0.7871094, -12.1951218, 95.6097565, -14.0853662, -0.0854353
0.9394531, -0.0908203, -0.7685547, -15.2439032, 94.2682953, -12.6829271, -0.0693217
1.0039062, -0.0883789, -0.6816406, -19.1463413, 93.1707306, -10.2439022, -0.0542153
1.0385742, -0.0961914, -0.6132812, -19.7560978, 92.9878082, -9.3292685, -0.0273594
1.0703125, -0.1313477, -0.4775391, -19.939024, 92.9878082, -8.9634151, -0.0152743
1.0424805, -0.1645508, -0.3813477, -18.9634151, 92.3170776, -9.4512196, -0.0243381
1.0029297, -0.1806641, -0.3588867, -16.8902435, 88.7804871, -10.6707315, -0.0421302
0.9038086, -0.2104492, -0.3623047, -15.9146347, 86.0975647, -11.5243902, -0.0391089
0.8588867, -0.2241211, -0.375, -14.1463413, 78.4756088, -11.8902445, -0.027863
0.7978516, -0.2504883, -0.3959961, -13.841464, 69.5121994, -10.6097565, -0.018967
0.7836914, -0.2587891, -0.4033203, -13.841464, 64.8170776, -10.1219511, -0.0018463
0.8071289, -0.2543945, -0.4238281, -12.3780489, 57.0121956, -9.3292685, 0.0226596
0.8295898, -0.2451172, -0.4345703, -10.6097565, 54.2073174, -8.9024391, 0.0407874
0.8984375, -0.2197266, -0.4799805, -6.7682929, 51.5853653, -9.3902445, 0.0651255
0.9306641, -0.2045898, -0.5068359, -5.2439027, 51.4024391, -10, 0.0763714
0.9926758, -0.1904297, -0.5498047, -3.7195122, 51.0365868, -11.219512, 0.0736858
1.0454102, -0.184082, -0.5463867, -3.8414636, 50.7926826, -11.219512, 0.0569009
1.0649414, -0.1879883, -0.5341797, -4.5121951, 50.4268303, -11.1585369, 0.0522011
1.0825195, -0.2055664, -0.4956055, -4.0243902, 49.9390259, -11.0975609, 0.056733
1.0766602, -0.2104492, -0.4946289, -2.5, 49.5731735, -11.8292685, 0.072343
1.043457, -0.2114258, -0.5415039, -0.6097561, 50.3048782, -12.0731707, 0.0830854
1.0234375, -0.2109375, -0.5742188, -0.4268293, 50.3048782, -11.8902445, 0.1015488
0.9936523, -0.1899414, -0.6411133, -0.9146342, 50.5487823, -11.280488, 0.1267262
0.9916992, -0.1791992, -0.6586914, -1.7682927, 50.7317085, -10.6707315, 0.124712
0.9960938, -0.1533203, -0.6645508, -4.8780489, 51.0975609, -10.3048782, 0.1178302
1.0097656, -0.1455078, -0.6484375, -6.2195125, 51.7682953, -10.060976, 0.131426
1.0390625, -0.1479492, -0.6049805, -7.5609756, 53.5975609, -10.7317076, 0.1331044
1.0478516, -0.168457, -0.5771484, -7.9878049, 54.8780518, -10.9756098, 0.1220264
1.0493164, -0.1757812, -0.5854492, -8.6585369, 57.6219521, -11.8292685, 0.0830854
1.0268555, -0.1811523, -0.6220703, -9.0853662, 58.9024391, -12.2560978, 0.0293736
1.0092773, -0.1748047, -0.6484375, -11.0365858, 61.0975609, -11.8902445, -0.0250095
0.9970703, -0.1611328, -0.6855469, -14.3292685, 62.68293, -10.5487804, -0.0746929
0.9941406, -0.1474609, -0.6850586, -15.4878054, 63.5975609, -9.8780489, -0.1085985
1.0117188, -0.1186523, -0.6386719, -16.8902435, 65.6707306, -8.4756098, -0.1263905
1.027832, -0.1064453, -0.6020508, -16.6463413, 67.1951218, -8.4756098, -0.1371328
1.0390625, -0.1010742, -0.5175781, -16.7073174, 68.9024429, -9.1463413, -0.1381399
1.0405273, -0.1049805, -0.4829102, -17.0731716, 69.4512177, -9.4512196, -0.1522393
1.0126953, -0.1298828, -0.4580078, -18.9024391, 68.8414688, -10.4878054, -0.1532464
0.9648438, -0.1621094, -0.5024414, -20.5487804, 67.8658524, -10.3658543, -0.1618067
0.9394531, -0.1767578, -0.5375977, -25.6097565, 65.5487823, -10.1219511, -0.1616388
0.9023438, -0.1958008, -0.5620117, -28.1097565, 63.841465, -9.3902445, -0.1478752
0.9067383, -0.1977539, -0.5405273, -30.7317085, 60.6707344, -7.5, -0.1408255
0.9394531, -0.1948242, -0.434082, -28.2317085, 57.9878044, -6.8292685, -0.1075914
0.9619141, -0.1933594, -0.3745117, -25.7317085, 56.8292694, -7.3780489, -0.0861067
0.9853516, -0.184082, -0.2880859, -20.6707325, 55.8536606, -8.2317076, -0.0817426
0.9741211, -0.1855469, -0.265625, -18.4146347, 55.6097565, -8.9634151, -0.0706645
0.9267578, -0.1821289, -0.2763672, -17.6219521, 53.3536606, -9.8780489, -0.0565652
0.8979492, -0.184082, -0.3022461, -18.8414631, 50.9756126, -9.9390249, -0.0337377
0.8476562, -0.1801758, -0.3823242, -22.1951218, 43.7804871, -9.5121956, -0.0109102
0.8242188, -0.1816406, -0.4663086, -24.3902435, 39.8780479, -8.4756098, -0.0283665
0.8291016, -0.1782227, -0.5009766, -27.9878063, 34.3902435, -6.280488, -0.04448
0.8916016, -0.1611328, -0.5112305, -28.6585369, 32.5, -5, -0.0515297
0.9384766, -0.1518555, -0.4985352, -26.9512196, 31.4024391, -3.9024391, -0.0837568
1.0180664, -0.140625, -0.4589844, -23.6585369, 31.9512196, -3.7804878, -0.1116197
1.0439453, -0.1367188, -0.4355469, -22.1951218, 32.8658562, -4.2073174, -0.1173266
1.0678711, -0.1313477, -0.4140625, -20.7926826, 34.7560997, -3.6585367, -0.1106126
1.0605469, -0.1298828, -0.4111328, -20.7926826, 35.0609779, -3.1707318, -0.1079271
1.0385742, -0.1289062, -0.4111328, -21.5243912, 34.0853653, -1.5853659, -0.0887922
1.0253906, -0.1303711, -0.4072266, -21.7073174, 33.0487823, -0.7317073, -0.0565652
1.0039062, -0.1240234, -0.4116211, -21.9512196, 30.060976, 1.0365853, -0.0276951
0.9941406, -0.128418, -0.4238281, -21.4024391, 28.4146347, 1.402439, 0.0005035
0.9946289, -0.1259766, -0.4384766, -21.3414631, 26.280489, 2.0731707, 0.0708324
1.003418, -0.1196289, -0.4711914, -21.280489, 25.9756107, 2.195122, 0.1257191
1.0073242, -0.1157227, -0.4794922, -22.1341476, 25.6097565, 2.6829269, 0.1341115
1.019043, -0.1103516, -0.4848633, -23.2926826, 25.9146347, 2.5, 0.1445182
1.0253906, -0.1103516, -0.4780273, -23.6585369, 26.280489, 2.8658538, 0.1401541
1.0385742, -0.1157227, -0.4765625, -24.1463413, 27.3170738, 2.8658538, 0.1475395
1.0361328, -0.1220703, -0.4736328, -24.1463413, 28.3536587, 3.2926829, 0.1196765
1.0327148, -0.1435547, -0.4604492, -24.0853672, 29.6951218, 3.2317073, 0.1025559
1.0268555, -0.152832, -0.4584961, -24.3902435, 30.6097565, 3.0487804, 0.0783856
1.0087891, -0.1796875, -0.4536133, -25.1219521, 31.6463413, 2.6829269, 0.0276951
0.984375, -0.1899414, -0.4570312, -25.3048782, 32.1951218, 2.5609756, -0.0020142
0.9736328, -0.190918, -0.4570312, -26.0975609, 32.8658562, 2.4390244, 0.0119173
0.9604492, -0.1875, -0.4521484, -26.1585369, 33.0487823, 2.195122, 0.0320592
0.9628906, -0.1835938, -0.440918, -25.3658543, 33.1707306, 2.2560976, 0.0399481
0.9682617, -0.1699219, -0.4204102, -23.9634151, 32.8658562, 2.195122, 0.017792
0.9775391, -0.1630859, -0.4091797, -23.7195129, 32.7439041, 1.8292683, -0.018967
0.9838867, -0.1533203, -0.3920898, -24.1463413, 32.5, 0.7926829, -0.0538796
0.9824219, -0.1542969, -0.3828125, -24.5121956, 32.4390259, 0.7317073, -0.0814069
0.9780273, -0.1508789, -0.3657227, -25.8536587, 31.4024391, 0.3658537, -0.0931563
0.9750977, -0.1484375, -0.3813477, -26.3414631, 30.6707325, 0, -0.0928206
0.9648438, -0.1508789, -0.4414062, -27.4390259, 29.8170738, -0.1219512, -0.090135
0.9472656, -0.1503906, -0.4794922, -28.0487804, 29.8780499, 0.1219512, -0.0807355
0.9477539, -0.1469727, -0.4750977, -28.5975609, 29.9390259, 1.097561, -0.0552224
0.9692383, -0.1469727, -0.421875, -28.4756107, 29.7560978, 1.8902439, -0.0760357
0.9804688, -0.1430664, -0.3837891, -26.4024391, 29.2073174, 2.7439024, -0.1028916
0.9892578, -0.1435547, -0.3452148, -23.9634151, 28.780489, 2.5, -0.1535821
0.9873047, -0.1459961, -0.34375, -23.4146347, 29.0853672, 2.3780489, -0.2032654
0.972168, -0.1489258, -0.3671875, -23.2926826, 29.1463413, 2.3780489, -0.2546273
0.9682617, -0.1445312, -0.3808594, -24.0243912, 28.780489, 2.5609756, -0.3090105
0.9741211, -0.1337891, -0.418457, -24.8780499, 25.8536587, 3.2317073, -0.3192493
0.9765625, -0.1279297, -0.4375, -25.1219521, 24.0243912, 3.5365853, -0.2400244
1.0097656, -0.109375, -0.4677734, -25.6707325, 20.9756107, 3.9634147, -0.1106126
1.0546875, -0.1069336, -0.4521484, -25.7926826, 19.8780499, 4.2682929, -0.012253
1.0761719, -0.1088867, -0.4213867, -26.3414631, 18.5975609, 5.1829271, 0.0803998
1.0976562, -0.1289062, -0.3422852, -25.9146347, 18.2926826, 5.7317076, 0.1173266
1.0947266, -0.1289062, -0.3027344, -24.5731716, 17.8048782, 6.280488, 0.093492
1.0527344, -0.1201172, -0.2641602, -22.8658543, 17.8048782, 7.3780489, 0.0397803
1.0214844, -0.1069336, -0.2695312, -22.5, 17.1341476, 7.5, -0.04448
0.9624023, -0.0888672, -0.3105469, -22.6219521, 13.9024391, 8.3536587, -0.0726787
0.940918, -0.0898438, -0.3374023, -23.4146347, 11.219512, 8.4756098, -0.0459907
0.9213867, -0.1064453, -0.3901367, -25.9146347, 4.8170733, 8.5975609, -0.0236667
0.925293, -0.1142578, -0.3999023, -26.8902454, 2.195122, 9.0243902, -0.0082246
0.9580078, -0.1323242, -0.3740234, -27.3780499, -1.3414634, 9.5731707, 0.0018463
1.0014648, -0.1435547, -0.3364258, -26.5853672, -2.3170731, 9.3902445, 0.0018463
1.0146484, -0.152832, -0.3266602, -23.9024391, -2.5, 8.4756098, 0.0320592
1.019043, -0.1660156, -0.34375, -22.1951218, -1.4634147, 7.9878049, 0.0770428
1.0117188, -0.1655273, -0.3686523, -22.2560978, -0.9146342, 7.8658538, 0.1388113
0.9868164, -0.1523438, -0.421875, -23.1097565, -1.097561, 9.0853662, 0.1431754
0.9790039, -0.1416016, -0.4458008, -23.5365868, -1.5853659, 9.6951218, 0.1153124
0.9887695, -0.1162109, -0.4589844, -24.2073174, -3.5365853, 10.6707315, 0.0656291
1.0004883, -0.1000977, -0.449707, -23.7195129, -4.5731707, 10.7317076, -0.0115816
1.0405273, -0.1005859, -0.4213867, -22.560976, -6.7073174, 10.1219511, -0.0528725
1.0610352, -0.1083984, -0.4057617, -22.3780499, -7.1341467, 9.3292685, -0.0795605
1.0732422, -0.137207, -0.3764648, -23.2926826, -7.5, 8.1097565, -0.0975204
1.0419922, -0.1777344, -0.3608398, -23.5365868, -7.0121951, 7.8048782, -0.093492
1.0244141, -0.1894531, -0.3657227, -24.0243912, -6.4634147, 7.9878049, -0.0659648
0.9819336, -0.2001953, -0.3984375, -22.7439022, -6.9512196, 9.3292685, -0.0411231
0.9633789, -0.190918, -0.4238281, -21.280489, -7.3780489, 10.1219511, -0.0320592
0.9521484, -0.1499023, -0.4619141, -19.0243912, -8.9634151, 11.280488, -0.0253452
0.96875, -0.128418, -0.46875, -18.1097565, -10, 11.8902445, -0.0219883
1.0068359, -0.0957031, -0.4760742, -17.439024, -11.7682934, 11.219512, -0.0451514
1.0317383, -0.0864258, -0.4804688, -18.1097565, -12.1341467, 10.8536587, -0.0847639
1.0629883, -0.0795898, -0.4804688, -20.6707325, -12.1341467, 10.2439022, -0.100206
1.0688477, -0.0795898, -0.4819336, -22.0731716, -11.341464, 10.060976, -0.0988632
1.0698242, -0.0878906, -0.4726562, -24.0243912, -10, 10.7926836, -0.1096056
1.043457, -0.1040039, -0.4516602, -24.5121956, -9.5121956, 11.9512196, -0.1143053
1.0214844, -0.1054688, -0.4414062, -24.2073174, -8.5365858, 13.7195129, -0.1129625
0.9887695, -0.0981445, -0.4199219, -23.7195129, -7.9268293, 15.1829271, -0.1049058
0.96875, -0.0908203, -0.4077148, -23.4756107, -8.0487804, 16.0365849, -0.0807355
0.9521484, -0.0688477, -0.394043, -24.1463413, -9.2682924, 16.280489, -0.0676432
0.9482422, -0.0766602, -0.4033203, -25.3048782, -10.4878054, 15.7317076, -0.0572366
0.9370117, -0.1088867, -0.4355469, -28.841465, -13.7195129, 14.0853662, -0.0109102
0.9311523, -0.1293945, -0.4453125, -31.0365868, -15.3658543, 13.4756098, 0.0226596
0.9345703, -0.1772461, -0.4189453, -33.2926826, -18.1707325, 13.2926836, 0.0199741
0.9355469, -0.1860352, -0.3886719, -32.7439041, -18.780489, 13.6585369, 0.0179599
0.9448242, -0.1962891, -0.3432617, -28.7195129, -20.1829281, 13.841464, 0.0085603
0.9370117, -0.184082, -0.34375, -26.2195129, -20.2439022, 14.2073174, -0.0152743
0.9350586, -0.1713867, -0.355957, -23.4756107, -20.6097565, 14.6341467, -0.0305486
0.9350586, -0.1484375, -0.3793945, -23.4146347, -22.9268303, 14.8780489, -0.0397803
0.9370117, -0.1420898, -0.3837891, -24.2682934, -25.3048782, 14.7560978, -0.0414588
0.9580078, -0.1420898, -0.3828125, -26.0975609, -30.9146347, 13.5365858, -0.0377661
0.9716797, -0.1523438, -0.3862305, -26.4024391, -33.841465, 12.6829271, -0.0169528
0.9882812, -0.1679688, -0.4038086, -26.1585369, -37.6829262, 11.6463413, 0.0159457
0.9892578, -0.1777344, -0.4150391, -25.7317085, -38.6585388, 11.5853662, 0.0844282
0.9794922, -0.1860352, -0.421875, -23.4756107, -39.1463432, 12.8658543, 0.1153124
0.9755859, -0.1806641, -0.4199219, -22.3170738, -38.9634171, 13.5975609, 0.0908064
0.9746094, -0.1650391, -0.4072266, -19.2682934, -38.841465, 15.2439032, 0.0874495
0.9716797, -0.1420898, -0.4121094, -18.1097565, -39.2073174, 15.6097565, 0.0861067
0.9628906, -0.1298828, -0.4296875, -17.560976, -40.4268303, 15.6097565, 0.0955062
0.956543, -0.1166992, -0.4785156, -19.4512196, -43.4146347, 14.9390249, 0.072343
0.9545898, -0.1123047, -0.4980469, -20.7926826, -44.6341476, 14.5121956, 0.0414588
0.9643555, -0.125, -0.4921875, -23.2317085, -47.6829262, 14.3292685, 0.0293736
0.9799805, -0.1376953, -0.4780273, -23.4146347, -49.0243912, 14.2682934, 0.0280308
1.003418, -0.159668, -0.453125, -22.2560978, -50.2439041, 14.1463413, 0.0565652
1.0019531, -0.1694336, -0.4614258, -21.4024391, -49.8780518, 13.7195129, 0.0720073
0.9985352, -0.175293, -0.5063477, -20.1219521, -47.8048782, 13.780488, 0.0528725
0.9926758, -0.1665039, -0.5317383, -19.8170738, -46.5853653, 13.780488, 0.0129244
0.9794922, -0.1484375, -0.5517578, -20.7317085, -45.5487823, 15.3048782, -0.0292058
0.9902344, -0.1303711, -0.5317383, -20.9756107, -45.7317085, 15.6097565, -0.0639506
0.996582, -0.1313477, -0.512207, -21.2195129, -47.4390259, 15.4878054, -0.0911421
1.0009766, -0.1396484, -0.449707, -21.6463413, -48.841465, 14.6951227, -0.1008774
1.0024414, -0.1484375, -0.4140625, -21.9512196, -49.1463432, 14.3292685, -0.1028916
0.9750977, -0.1606445, -0.3530273, -20.9146347, -49.6341476, 13.5975609, -0.1089342
0.9550781, -0.1635742, -0.355957, -20.3658543, -50.1219521, 13.780488, -0.1008774
0.9033203, -0.1748047, -0.4223633, -20.1219521, -51.7682953, 13.780488, -0.0847639
0.8769531, -0.175293, -0.4726562, -20.2439022, -52.9268303, 14.1463413, -0.0629435
0.8579102, -0.1679688, -0.5458984, -21.6463413, -56.2804909, 15.1219511, -0.0397803
0.8657227, -0.1630859, -0.5551758, -22.5, -58.2317085, 15.4268293, -0.0451514
0.9140625, -0.1606445, -0.5180664, -22.439024, -60.9146347, 16.0365849, -0.0679789
0.9643555, -0.1552734, -0.4760742, -22.2560978, -61.4024391, 15.4268293, -0.0720073
0.9775391, -0.152832, -0.4682617, -21.1585369, -60.1219521, 14.3902445, -0.0458228
0.9799805, -0.1547852, -0.4633789, -21.280489, -58.5975609, 13.780488, -0.0229953
0.965332, -0.1547852, -0.4560547, -21.4634151, -58.2317085, 13.9634151, 0.0083925
0.9404297, -0.1484375, -0.4560547, -22.1951218, -60.0609779, 14.8780489, 0.0357519
0.9287109, -0.144043, -0.4682617, -22.6829281, -62.0121956, 15.3048782, 0.114641
0.9135742, -0.1362305, -0.4941406, -24.0243912, -65.4878082, 16.6463413, 0.1918517
0.9086914, -0.1376953, -0.5043945, -24.5121956, -67.0731735, 17.439024, 0.2542916
0.9233398, -0.1328125, -0.4970703, -25.060976, -69.3902435, 17.6829281, 0.2536202
0.9370117, -0.1289062, -0.4702148, -25.1829281, -70.6097565, 17.6829281, 0.1931945
0.9375, -0.1337891, -0.4648438, -25.6707325, -72.5, 17.0731716, 0.1287404
0.9296875, -0.140625, -0.4697266, -25.6707325, -73.2926865, 17.3170738, 0.0773785
0.9125977, -0.1445312, -0.4873047, -26.7073174, -74.8170776, 17.9878044, 0.023331
0.8984375, -0.1411133, -0.5307617, -28.2926826, -76.0365906, 19.939024, -0.026688
0.890625, -0.1318359, -0.5488281, -29.4512196, -77.0121994, 21.280489, -0.0036927
0.8911133, -0.1083984, -0.578125, -31.4024391, -79.0243912, 22.9268303, 0.1032273
0.8964844, -0.1035156, -0.5844727, -32.9268303, -80.2439041, 23.9024391, 0.2076295
0.9345703, -0.1245117, -0.5893555, -35.9146347, -82.5, 24.7560978, 0.2599985
0.9560547, -0.1416016, -0.5795898, -37.3170738, -83.5975647, 24.7560978, 0.2422065
0.9785156, -0.1567383, -0.5419922, -38.841465, -83.7804871, 24.6341476, 0.1535821
0.9824219, -0.1518555, -0.5234375, -38.841465, -83.0487823, 24.8170738, 0.0303807
0.9785156, -0.1479492, -0.5249023, -37.1951218, -81.5243912, 25.6707325, -0.1096056
0.984375, -0.1542969, -0.5541992, -36.0975609, -81.4024429, 25.9146347, -0.2433814
0.9868164, -0.1694336, -0.5605469, -35.8536606, -83.3536606, 25.7926826, -0.3231098
1.0004883, -0.2084961, -0.5429688, -36.1585388, -86.8292694, 24.9390259, -0.34963
1.0048828, -0.2275391, -0.5302734, -35.9756088, -87.9268341, 24.8170738, -0.3526513
0.9936523, -0.2416992, -0.5200195, -33.7195129, -88.2317123, 24.4512196, -0.3586938
0.9873047, -0.2348633, -0.5336914, -32.3780479, -87.5, 24.1463413, -0.364065
0.9633789, -0.2089844, -0.5561523, -29.0853672, -86.5243912, 23.6585369, -0.3566796
0.9584961, -0.199707, -0.5629883, -27.9878063, -87.0731735, 23.2926826, -0.3476158
0.9614258, -0.1977539, -0.5517578, -27.0731716, -89.3292694, 22.6829281, -0.3415732
0.9633789, -0.1943359, -0.5292969, -26.8902454, -90.4878082, 22.5, -0.3419089
0.9614258, -0.1918945, -0.5258789, -26.0975609, -91.7073212, 22.3780499, -0.3348592
0.9619141, -0.1713867, -0.5322266, -25.2439022, -91.8292694, 22.560976, -0.3106889
0.9658203, -0.1738281, -0.5415039, -23.8414631, -92.4390259, 22.1341476, -0.2569772
0.9692383, -0.1801758, -0.5805664, -23.5365868, -94.5121994, 20.4878044, -0.2079652
0.9692383, -0.1899414, -0.6025391, -24.1463413, -96.1585388, 20.2439022, -0.1673457
0.9775391, -0.1899414, -0.6220703, -25.3658543, -97.8048782, 20.4878044, -0.103563
0.9887695, -0.1894531, -0.6147461, -25.4268303, -97.8658524, 20.4268303, -0.0602579
1.0063477, -0.184082, -0.5893555, -23.2926826, -98.0487823, 20.4268303, -0.0317235
1.0136719, -0.1816406, -0.5844727, -22.1951218, -97.9268341, 20.1829281, 0.0112459
1.0166016, -0.1782227, -0.5864258, -20.4268303, -98.1707306, 20.060976, 0.0365911
1.0087891, -0.1811523, -0.5966797, -20.7926826, -98.3536606, 19.8780499, 0.0293736
1.0039062, -0.1762695, -0.5952148, -21.4634151, -99.9390259, 19.8170738, 0.0119173
0.9926758, -0.1835938, -0.5800781, -21.6463413, -100.6707306, 19.6951218, 0.030045
0.9853516, -0.1884766, -0.574707, -20.8536587, -102.5609818, 18.5365849, 0.0770428
0.9643555, -0.190918, -0.6035156, -20.5487804, -104.146347, 17.439024, 0.0803998
0.9580078, -0.1914062, -0.628418, -20.7926826, -105.0609818, 17.1951218, 0.0757
0.9482422, -0.1987305, -0.6821289, -21.8292694, -106.8902435, 17.6219521, 0.0679789
0.9550781, -0.1982422, -0.6992188, -21.6463413, -108.1097565, 18.1097565, 0.0508583
0.9912109, -0.1967773, -0.6708984, -20, -108.3536606, 19.3902435, 0.0370947
1.0131836, -0.1914062, -0.6464844, -18.5365849, -107.9268341, 19.1463413, 0.0213169
1.0375977, -0.1689453, -0.6196289, -16.0365849, -105.6097565, 19.0243912, 0.0421302
1.0239258, -0.1538086, -0.6152344, -15.9146347, -105, 18.780489, 0.0703288
1.0029297, -0.1430664, -0.6113281, -16.9512196, -105.3048782, 18.5975609, 0.0757
0.9614258, -0.137207, -0.609375, -18.1707325, -106.646347, 18.5365849, 0.0522011
0.9453125, -0.1328125, -0.6181641, -20, -109.7561035, 18.5365849, 0.0273594
0.9116211, -0.1386719, -0.652832, -21.5853672, -112.9268341, 17.560976, 0.0102388
0.9072266, -0.1420898, -0.6630859, -22.3170738, -114.3292694, 17.3780499, -0.0048676
0.9194336, -0.1547852, -0.6508789, -23.7195129, -115.9756088, 17.3170738, -0.0206455
0.9301758, -0.1567383, -0.6464844, -24.2682934, -116.2195129, 17.1341476, -0.0552224
0.9423828, -0.1503906, -0.6459961, -24.3902435, -116.8292694, 16.0365849, -0.0948348
0.9375, -0.1416016, -0.6538086, -24.8170738, -117.1951218, 15.6707325, -0.1233692
0.934082, -0.128418, -0.6928711, -26.7682934, -118.1097565, 15.3658543, -0.13579
0.9321289, -0.1289062, -0.7285156, -27.6219521, -118.5975647, 15.8536587, -0.1331044
0.9418945, -0.137207, -0.7353516, -29.0853672, -120.4268341, 16.3414631, -0.1205158
0.9658203, -0.1708984, -0.7070312, -29.2073174, -120.9146347, 16.8292694, -0.1089342
0.9731445, -0.1904297, -0.6845703, -28.4756107, -120.7926865, 16.6463413, -0.100206
0.9594727, -0.2104492, -0.6665039, -26.5853672, -118.1707382, 16.5243912, -0.0861067
0.9331055, -0.2036133, -0.6777344, -25.5487804, -117.0121994, 16.1585369, -0.0619364
0.8847656, -0.1762695, -0.7114258, -24.8170738, -115.9146347, 15.6707325, -0.0339055
0.8681641, -0.1699219, -0.7250977, -25.2439022, -116.646347, 15.5487804, -0.0157778
0.862793, -0.1796875, -0.7260742, -27.2560978, -120, 15.2439032, 0.0035248
0.8691406, -0.1875, -0.7294922, -28.2926826, -121.7073212, 15.1829271, 0.0320592
0.8852539, -0.2089844, -0.75, -29.2682934, -123.4756088, 15.1219511, 0.0602579
0.9223633, -0.2055664, -0.7583008, -28.9634151, -123.4756088, 14.9390249, 0.0908064
0.9350586, -0.2099609, -0.7470703, -27.9878063, -122.1341476, 15, 0.1005417
0.9506836, -0.2075195, -0.7045898, -27.1341476, -121.5853653, 14.7560978, 0.100206
0.9467773, -0.2119141, -0.7021484, -25.7926826, -120.18293, 13.780488, 0.0985275
0.9077148, -0.215332, -0.7299805, -25.6097565, -119.6951218, 13.9024391, 0.0943313
0.887207, -0.2070312, -0.746582, -25.7926826, -120, 14.0853662, 0.0941634
0.8657227, -0.1933594, -0.7412109, -26.5853672, -121.4024429, 14.1463413, 0.1059129
0.8588867, -0.1845703, -0.7280273, -26.9512196, -122.0731735, 13.9634151, 0.1307546
0.859375, -0.1821289, -0.6943359, -27.3170738, -123.6585388, 12.6219511, 0.1253834
0.8520508, -0.1889648, -0.6894531, -27.1951218, -124.6341476, 12.3170738, 0.1092699
0.8383789, -0.2026367, -0.7138672, -28.0487804, -127.2561035, 12.8658543, 0.0990311
0.8266602, -0.2045898, -0.7695312, -28.2926826, -128.2317047, 13.2926836, 0.1032273
0.8266602, -0.2011719, -0.7905273, -28.4756107, -129.8780518, 14.1463413, 0.0891279
0.8383789, -0.1850586, -0.8193359, -28.2317085, -130.3048859, 14.8170738, 0.0488441
0.8505859, -0.1816406, -0.8203125, -27.7439022, -130, 16.280489, 0.054551
0.894043, -0.175293, -0.7807617, -27.8048782, -129.8780518, 17.3170738, 0.1371328
0.909668, -0.1811523, -0.7485352, -27.9878063, -130.3048859, 17.2560978, 0.2286107
0.9111328, -0.1923828, -0.7441406, -28.2926826, -129.8780518, 16.8902435, 0.2630198
0.8867188, -0.1977539, -0.7724609, -28.2926826, -129.9390259, 16.4634151, 0.1777523
0.8383789, -0.2075195, -0.8100586, -29.6341476, -130.9756165, 16.8292694, 0.1710384
0.8261719, -0.2182617, -0.8125, -30.1829281, -132.4390259, 17.3170738, 0.2180362
0.828125, -0.2304688, -0.793457, -30.5487804, -134.2073212, 17.3780499, 0.1535821
0.8305664, -0.2138672, -0.7729492, -30.4268303, -134.4512177, 16.7682934, 0.0085603
0.8261719, -0.2006836, -0.777832, -30, -134.2073212, 15.5487804, -0.1250477
0.8129883, -0.1728516, -0.8208008, -29.8780499, -134.4512177, 15.1219511, -0.2076295
0.8125, -0.1748047, -0.8354492, -31.4024391, -136.2804871, 15.1829271, -0.1774166
0.8237305, -0.1757812, -0.8457031, -33.6585388, -137.6219482, 15.5487804, -0.0773785
0.8325195, -0.1777344, -0.8481445, -34.6341476, -137.8048859, 15.7317076, 0.0199741
0.8417969, -0.1674805, -0.8520508, -35.7317085, -136.7073212, 16.0975609, 0.0876173
