Application:, Trigno Discover (1.6.5)
Date/Time:, 12/02/2025 16:22:19
Collection Length (seconds):, 32.9265
wrist (81457), , , , , , bicep (81139)
sensor mode: 609, , , , , , sensor mode: 40
ACC X (G), ACC Y (G), ACC Z (G), GYRO X (deg/s), GYRO Y (deg/s), GYRO Z (deg/s), EMG 1 (mV)
370.3704 Hz, 370.3704 Hz, 370.3704 Hz, 370.3704 Hz, 370.3704 Hz, 370.3704 Hz, 2148.1481 Hz
0.9604492, -0.1142578, -0.2636719, -7.6829271, -5.9146342, -2.0731707, -0.0099031
0.9536133, -0.1201172, -0.2631836, -7.5609756, -6.0365853, -1.8902439, -0.0139315
0.9477539, -0.1196289, -0.2685547, -7.3780489, -5.9756098, -2.0121951, -0.0139315
0.9487305, -0.1201172, -0.2714844, -7.1341467, -6.280488, -2.195122, -0.0172885
0.9536133, -0.1113281, -0.2773438, -6.5853658, -6.4024391, -2.6829269, -0.0186313
0.9580078, -0.1083984, -0.2822266, -6.2195125, -6.7682929, -2.8658538, -0.0169528
0.9677734, -0.0991211, -0.2797852, -6.4024391, -6.280488, -3.2317073, -0.0203098
0.9819336, -0.0908203, -0.2602539, -6.4634147, -5.9146342, -3.2317073, -0.0243381
0.9838867, -0.0888672, -0.2475586, -6.4634147, -5.7926831, -3.9634147, -0.0256809
0.9780273, -0.0908203, -0.2480469, -6.9512196, -5.4268293, -3.9634147, -0.0224918
0.9677734, -0.0932617, -0.2514648, -7.9878049, -5.9146342, -3.7195122, -0.012253
0.9448242, -0.105957, -0.2714844, -8.4146347, -6.5853658, -3.1097562, -0.0109102
0.9428711, -0.1108398, -0.2734375, -9.8170738, -7.4390244, -2.0731707, -0.0050355
0.9492188, -0.1171875, -0.2729492, -10.1829271, -7.8048782, -1.5853659, 0.0001678
0.949707, -0.1166992, -0.2724609, -10, -7.8048782, -2.0731707, -0.0001678
0.9580078, -0.1171875, -0.2719727, -9.6951218, -7.5, -2.6219513, -0.005539
0.9589844, -0.1108398, -0.2661133, -9.8170738, -7.0121951, -2.6219513, -0.0082246
0.9575195, -0.1098633, -0.2592773, -10.4268293, -7.0121951, -2.4390244, -0.0099031
0.9604492, -0.0986328, -0.2558594, -10.7926836, -6.9512196, -2.3780489, -0.0129244
0.9624023, -0.0927734, -0.2548828, -10.9146347, -7.2560978, -2.3780489, -0.0216526
0.9614258, -0.0913086, -0.2583008, -10.8536587, -7.4390244, -2.2560976, -0.0285344
0.9580078, -0.0893555, -0.2631836, -11.7682934, -7.6829271, -1.8292683, -0.0340734
0.9541016, -0.0922852, -0.269043, -12.4390249, -7.8658538, -1.6463414, -0.0370947
0.9516602, -0.0957031, -0.269043, -13.2317076, -7.8048782, -1.2195122, -0.040116
0.9555664, -0.0981445, -0.2700195, -13.7195129, -7.6219516, -1.1585366, -0.0384375
0.949707, -0.097168, -0.2709961, -13.9634151, -7.1341467, -1.0365853, -0.0357519
0.9443359, -0.0942383, -0.2739258, -14.2073174, -7.1951222, -1.097561, -0.0340734
0.9453125, -0.0888672, -0.2758789, -14.1463413, -7.3170733, -1.2195122, -0.0271916
0.9536133, -0.0893555, -0.2802734, -14.0853662, -7.4390244, -1.4634147, -0.0229953
0.9643555, -0.0917969, -0.2758789, -13.9634151, -7.3780489, -1.4634147, -0.0209812
0.9648438, -0.0961914, -0.2763672, -14.5731707, -7.2560978, -1.5853659, -0.0129244
0.9658203, -0.1123047, -0.2749023, -14.2682934, -7.1951222, -1.5853659, -0.0132601
0.9692383, -0.1147461, -0.2705078, -14.7560978, -7.0121951, -1.402439, -0.0115816
0.9584961, -0.1113281, -0.2617188, -14.6951227, -6.7682929, -1.402439, -0.0058747
0.9521484, -0.1083984, -0.265625, -14.1463413, -6.1585369, -1.4634147, -0.0035248
0.9448242, -0.1040039, -0.2709961, -13.9634151, -6.0975609, -1.7073171, -0.0028534
0.9404297, -0.1103516, -0.2739258, -13.9634151, -6.0975609, -2.0121951, -0.0030213
0.9355469, -0.1181641, -0.284668, -14.3292685, -6.4634147, -1.7682927, -0.0018463
0.9414062, -0.1254883, -0.2905273, -14.4512196, -6.7073174, -1.8292683, -0.0028534
0.9511719, -0.1308594, -0.2885742, -14.5121956, -6.4024391, -2.1341465, -0.0075532
0.9589844, -0.128418, -0.2866211, -14.0243902, -6.1585369, -2.2560976, -0.0075532
0.965332, -0.1279297, -0.2827148, -13.9634151, -5.7926831, -2.5, -0.0083925
0.9702148, -0.1181641, -0.2783203, -13.7195129, -5.609756, -2.804878, -0.0102388
0.9677734, -0.1152344, -0.2773438, -13.9024391, -5.0609756, -2.804878, -0.0149386
0.9648438, -0.1103516, -0.2744141, -14.1463413, -4.9390244, -2.6829269, -0.0209812
0.96875, -0.1074219, -0.2734375, -14.5731707, -4.9390244, -2.6219513, -0.0236667
0.9731445, -0.1088867, -0.2714844, -14.3902445, -4.8170733, -2.2560976, -0.0283665
0.9741211, -0.1040039, -0.2670898, -14.2073174, -4.8170733, -2.2560976, -0.030045
0.9672852, -0.1083984, -0.2651367, -13.841464, -4.6951222, -2.6219513, -0.0283665
0.9628906, -0.1123047, -0.2597656, -13.7195129, -4.9390244, -2.7439024, -0.0283665
0.9663086, -0.1176758, -0.2514648, -12.6219511, -4.8170733, -2.6829269, -0.0287022
0.9624023, -0.1230469, -0.2509766, -12.1341467, -5, -2.7439024, -0.0283665
0.9638672, -0.1264648, -0.2529297, -10.6097565, -4.6951222, -2.8658538, -0.0310521
0.9672852, -0.1342773, -0.2495117, -9.9390249, -4.6341462, -2.9268293, -0.0340734
0.9677734, -0.1357422, -0.2421875, -8.1707315, -4.5121951, -3.1097562, -0.0330663
0.9624023, -0.1381836, -0.2280273, -7.7439027, -4.0853658, -3.2926829, -0.0297093
0.9516602, -0.1386719, -0.2275391, -6.5853658, -3.2926829, -4.2682929, -0.0298772
0.9243164, -0.1347656, -0.234375, -6.0365853, -3.9024391, -4.5731707, -0.0323949
0.918457, -0.1367188, -0.2412109, -5.1219511, -5.1829271, -4.7560978, -0.0276951
0.9189453, -0.1376953, -0.2470703, -3.9024391, -6.280488, -4.2682929, -0.0276951
0.9262695, -0.137207, -0.2509766, -3.2926829, -6.4634147, -3.9634147, -0.0243381
0.9472656, -0.1298828, -0.2587891, -2.2560976, -6.2195125, -3.6585367, -0.0250095
0.9633789, -0.1132812, -0.2587891, -1.7682927, -5.8536587, -3.9634147, -0.0250095
0.9682617, -0.1025391, -0.2587891, -1.097561, -5.4268293, -4.0243902, -0.0276951
0.9780273, -0.0854492, -0.2509766, -0.6707317, -5.3658538, -4.2073174, -0.0337377
0.9785156, -0.078125, -0.2480469, -1.097561, -5.3048782, -3.9634147, -0.0411231
0.9794922, -0.0600586, -0.2602539, -1.4634147, -5.4878049, -3.6585367, -0.0508583
0.9785156, -0.0571289, -0.2636719, -2.3170731, -6.5243902, -3.1097562, -0.064622
0.9711914, -0.0581055, -0.2719727, -3.2926829, -6.7682929, -2.6829269, -0.0710002
0.9716797, -0.0600586, -0.277832, -4.5121951, -7.8658538, -2.1341465, -0.0740215
0.9799805, -0.0673828, -0.2700195, -5.9146342, -7.9878049, -2.0731707, -0.0710002
0.9814453, -0.0776367, -0.265625, -6.6463418, -8.1097565, -1.9512196, -0.0746929
0.9765625, -0.0917969, -0.2651367, -6.7073174, -7.6829271, -2.3780489, -0.0740215
0.9707031, -0.1020508, -0.265625, -6.7682929, -7.6829271, -2.195122, -0.0716716
0.9682617, -0.1074219, -0.2705078, -7.0121951, -7.5609756, -2.0731707, -0.068986
0.9692383, -0.109375, -0.265625, -6.9512196, -7.6219516, -1.6463414, -0.0659648
0.9736328, -0.105957, -0.2612305, -6.6463418, -7.4390244, -1.3414634, -0.0599222
0.9887695, -0.1000977, -0.2426758, -6.6463418, -7.3170733, -1.6463414, -0.047837
0.9956055, -0.0942383, -0.2353516, -7.0121951, -6.7073174, -2.0121951, -0.0359197
0.9926758, -0.0932617, -0.2348633, -7.0121951, -6.4024391, -2.3780489, -0.0218204
0.9892578, -0.0961914, -0.2373047, -7.6829271, -6.4024391, -2.195122, -0.0052033
0.9770508, -0.0961914, -0.2470703, -8.4146347, -7.1341467, -1.4634147, 0.0117494
0.9707031, -0.0986328, -0.246582, -8.9024391, -7.8048782, -0.7926829, 0.0250095
0.9658203, -0.0991211, -0.2490234, -8.1707315, -8.1707315, -0.4878049, 0.0320592
0.9750977, -0.0991211, -0.2402344, -7.9878049, -7.9268293, -0.7317073, 0.0310521
0.9755859, -0.0957031, -0.2373047, -8.0487804, -7.4390244, -1.5853659, 0.0285344
0.9716797, -0.1005859, -0.2387695, -7.8658538, -7.6829271, -1.8902439, 0.0246738
0.9648438, -0.0981445, -0.2416992, -8.1097565, -8.1707315, -1.7682927, 0.0236667
0.956543, -0.1000977, -0.2597656, -8.2317076, -8.6585369, -1.6463414, 0.0280308
0.9575195, -0.0952148, -0.2651367, -8.719512, -9.3902445, -0.6707317, 0.0283665
0.9555664, -0.0922852, -0.2719727, -8.5975609, -9.5731707, -0.4268293, 0.0243381
0.9599609, -0.0874023, -0.2749023, -8.719512, -9.3902445, -0.1219512, 0.0199741
0.9648438, -0.0776367, -0.2724609, -8.841464, -8.9024391, -0.6707317, 0.0196384
0.9677734, -0.078125, -0.2744141, -8.9024391, -8.780488, -0.9756098, 0.0159457
0.9736328, -0.0776367, -0.2871094, -9.7560978, -8.9634151, -0.7926829, 0.0139315
0.9760742, -0.0834961, -0.2836914, -10.3658543, -9.3902445, -0.4268293, 0.0105745
0.9804688, -0.090332, -0.2788086, -10.7926836, -9.5731707, 0, 0.0041962
0.9887695, -0.0932617, -0.2719727, -11.0365858, -10, -0.1829268, -0.0082246
0.9936523, -0.0932617, -0.2675781, -10.6707315, -8.9634151, -0.4268293, -0.012253
0.9931641, -0.097168, -0.262207, -10.3658543, -8.4146347, 0.1219512, -0.0162814
0.9838867, -0.0942383, -0.2573242, -10.7317076, -7.8658538, -0.0609756, -0.01561
0.9755859, -0.0874023, -0.2568359, -10.6707315, -7.3780489, 0.0609756, -0.0162814
0.9702148, -0.0834961, -0.2587891, -11.1585369, -7.6829271, 0.1219512, -0.0196384
0.9633789, -0.0859375, -0.2636719, -11.4634151, -8.1097565, 0.1829268, -0.0176242
0.9658203, -0.090332, -0.2670898, -11.7682934, -8.1097565, 0.3048781, -0.0196384
0.9672852, -0.0908203, -0.2680664, -12.3780489, -8.1707315, 0.5487805, -0.021149
0.9770508, -0.0947266, -0.2695312, -12.4390249, -8.1097565, 0.4268293, -0.0246738
0.9799805, -0.090332, -0.2592773, -12.8048782, -7.5609756, 0.4268293, -0.0256809
0.9863281, -0.0878906, -0.2373047, -12.8048782, -6.9512196, 0.4878049, -0.0287022
0.987793, -0.0859375, -0.230957, -12.7439032, -6.5243902, -0.1829268, -0.0297093
0.9755859, -0.0805664, -0.2260742, -12.7439032, -6.4024391, -0.3658537, -0.0297093
0.9726562, -0.0839844, -0.2319336, -13.4756098, -7.3170733, -0.4268293, -0.0313878
0.9648438, -0.0898438, -0.2412109, -13.5365858, -7.6829271, 0.1219512, -0.0391089
0.9628906, -0.0913086, -0.2460938, -14.0243902, -8.841464, 0.6097561, -0.0493477
0.9707031, -0.0976562, -0.2539062, -13.841464, -9.1463413, 1.4634147, -0.0518654
0.9780273, -0.0966797, -0.2543945, -13.5975609, -9.1463413, 1.2195122, -0.0602579
0.972168, -0.0966797, -0.2553711, -12.9268293, -8.4756098, 0.7317073, -0.0659648
0.972168, -0.0893555, -0.2504883, -13.1097565, -8.4146347, 1.097561, -0.0642863
0.9741211, -0.0839844, -0.2509766, -13.2317076, -8.780488, 0.8536586, -0.0639506
0.9790039, -0.0878906, -0.2426758, -13.4756098, -8.9634151, 0.7317073, -0.0609293
0.9785156, -0.0883789, -0.2431641, -13.3536587, -9.4512196, 0.8536586, -0.0632792
0.987793, -0.0917969, -0.2416992, -13.2317076, -9.6951218, 0.7317073, -0.061265
0.9858398, -0.0917969, -0.2407227, -13.3536587, -9.4512196, 1.1585366, -0.0538796
0.987793, -0.0834961, -0.2368164, -13.3536587, -9.0853662, 1.2195122, -0.0424659
0.9863281, -0.0795898, -0.2358398, -13.4756098, -8.9634151, 1.6463414, -0.0283665
0.9794922, -0.0727539, -0.2416992, -13.7195129, -9.0853662, 0.9146342, -0.0219883
0.9619141, -0.0810547, -0.2661133, -14.2682934, -9.4512196, 0.7926829, -0.0172885
0.9550781, -0.0864258, -0.2739258, -15.3048782, -10.4268293, 1.5853659, -0.0198062
0.9506836, -0.1040039, -0.2836914, -15.7317076, -10.9756098, 1.8902439, -0.0152743
0.9536133, -0.1123047, -0.2817383, -15.9756098, -11.0975609, 2.4390244, -0.012253
0.9658203, -0.1191406, -0.2709961, -15.060976, -10.7926836, 2.1341465, -0.0129244
0.9726562, -0.1181641, -0.2695312, -13.2317076, -9.9390249, 1.3414634, -0.0119173
0.9726562, -0.1186523, -0.2680664, -12.3780489, -9.7560978, 0.9146342, -0.0043641
0.9750977, -0.1176758, -0.2675781, -11.8292685, -9.4512196, 0.6707317, 0.0008392
0.980957, -0.1064453, -0.2705078, -11.6463413, -9.7560978, 0.7926829, 0.0078889
0.9790039, -0.1030273, -0.2749023, -11.6463413, -9.8170738, 1.0365853, 0.0119173
0.9799805, -0.0942383, -0.28125, -12.0731707, -9.4512196, 1.4634147, 0.012253
0.9794922, -0.0839844, -0.28125, -12.1951218, -9.8780489, 1.6463414, 0.005539
0.9799805, -0.0791016, -0.2797852, -12.3780489, -9.4512196, 1.8902439, -0.0031891
0.9765625, -0.0708008, -0.2768555, -12.4390249, -9.6341467, 1.7073171, -0.0166171
0.9736328, -0.0664062, -0.2802734, -13.1097565, -9.0243902, 2.0121951, -0.0323949
0.965332, -0.0625, -0.277832, -13.9024391, -9.1463413, 2.1341465, -0.04448
0.9584961, -0.0673828, -0.2783203, -15.4268293, -9.5731707, 2.5, -0.0547189
0.9594727, -0.078125, -0.2788086, -16.2195129, -10.1829271, 2.5, -0.054551
0.9658203, -0.0844727, -0.2753906, -16.8292694, -10.7926836, 3.2317073, -0.0495155
0.9731445, -0.0859375, -0.269043, -16.4024391, -10.9146347, 3.5365853, -0.04448
0.9750977, -0.0805664, -0.2666016, -16.0975609, -10.4878054, 3.4146342, -0.0421302
0.9804688, -0.0771484, -0.2602539, -15.2439032, -9.9390249, 2.804878, -0.0381018
0.9799805, -0.074707, -0.2539062, -15.060976, -9.6951218, 2.5, -0.0337377
0.9780273, -0.0800781, -0.2495117, -15.6707325, -9.2682924, 2.6219513, -0.0271916
0.9599609, -0.0820312, -0.2451172, -15.9756098, -9.6341467, 2.7439024, -0.0250095
0.9570312, -0.0820312, -0.2495117, -16.4024391, -9.9390249, 3.2317073, -0.0229953
0.9492188, -0.0898438, -0.2563477, -16.5853653, -10.1829271, 3.0487804, -0.018967
0.9462891, -0.09375, -0.2597656, -16.5243912, -10.7317076, 3.0487804, -0.0182956
0.9458008, -0.1030273, -0.2607422, -16.2195129, -10.4878054, 3.2926829, -0.0206455
0.9506836, -0.1118164, -0.2543945, -14.9390249, -10.6097565, 2.3170731, -0.0193027
0.9589844, -0.1132812, -0.2460938, -13.841464, -9.5121956, 1.7682927, -0.0169528
0.9619141, -0.1142578, -0.2446289, -13.5975609, -9.0853662, 1.6463414, -0.0102388
0.9672852, -0.105957, -0.2485352, -12.9268293, -9.1463413, 1.402439, -0.0015106
0.9770508, -0.0991211, -0.2636719, -12.1951218, -9.3902445, 1.097561, -0.0001678
0.9824219, -0.1010742, -0.2705078, -11.8902445, -10.060976, 1.097561, 0.0023499
0.9858398, -0.0952148, -0.2875977, -11.5853662, -10.060976, 1.1585366, 0.0031891
0.9848633, -0.0922852, -0.2963867, -12.3170738, -10.1219511, 1.4634147, 0.0011749
0.9853516, -0.0908203, -0.3071289, -12.6219511, -10.060976, 1.7682927, -0.0075532
0.984375, -0.0898438, -0.3095703, -13.4756098, -9.8780489, 1.7073171, -0.01561
0.980957, -0.0957031, -0.3007812, -13.9024391, -9.7560978, 1.5243902, -0.0196384
0.9731445, -0.09375, -0.2988281, -13.9634151, -10, 1.3414634, -0.0307164
0.9702148, -0.1030273, -0.2919922, -13.9024391, -9.9390249, 1.2804878, -0.0354162
0.9682617, -0.1025391, -0.2919922, -14.2073174, -10.2439022, 1.6463414, -0.0364233
0.965332, -0.1000977, -0.2890625, -13.780488, -10.1829271, 1.8292683, -0.0384375
0.9692383, -0.0878906, -0.2773438, -13.6585369, -10.2439022, 2.2560976, -0.0340734
0.9716797, -0.0786133, -0.2744141, -13.5975609, -10, 2.4390244, -0.0323949
0.9663086, -0.0595703, -0.2744141, -13.780488, -9.8170738, 2.2560976, -0.0328985
0.9648438, -0.0581055, -0.2763672, -15.060976, -10.4268293, 2.2560976, -0.0318914
0.9638672, -0.059082, -0.2832031, -15.5487804, -10.7317076, 2.1341465, -0.0263523
0.9633789, -0.0673828, -0.277832, -17.1341476, -12.1341467, 2.4390244, -0.0218204
0.9697266, -0.0864258, -0.2700195, -17.1341476, -12.6829271, 2.6829269, -0.0223239
0.9716797, -0.0932617, -0.2631836, -16.7073174, -13.2926836, 2.9878049, -0.0162814
0.9614258, -0.1020508, -0.2460938, -15.6707325, -12.8048782, 2.9878049, -0.0139315
0.9575195, -0.1025391, -0.2368164, -15.6707325, -12.7439032, 2.7439024, -0.0139315
0.9438477, -0.0927734, -0.2207031, -14.7560978, -13.1707315, 2.6219513, -0.0162814
0.9438477, -0.09375, -0.2207031, -14.5731707, -13.780488, 2.4390244, -0.0137636
0.9511719, -0.090332, -0.2280273, -14.0853662, -15.1219511, 2.804878, -0.0099031
0.956543, -0.0820312, -0.2446289, -13.780488, -15.9146347, 2.9878049, -0.0048676
0.9697266, -0.0805664, -0.2573242, -13.841464, -16.8292694, 3.9634147, -0.0008392
0.9873047, -0.0688477, -0.2783203, -14.0853662, -16.9512196, 4.3292685, 0.0031891
0.9960938, -0.0668945, -0.2817383, -14.7560978, -17.0121956, 4.8170733, -0.0001678
1.0039062, -0.0595703, -0.277832, -15.3658543, -16.8292694, 4.6951222, 0.0001678
1.0097656, -0.065918, -0.2788086, -16.280489, -16.6463413, 3.9634147, -0.0068818
1.0058594, -0.0820312, -0.2851562, -16.7682934, -16.7073174, 3.5975611, -0.0095674
0.9975586, -0.0908203, -0.2973633, -17.3170738, -17.2560978, 3.7195122, -0.01561
0.9799805, -0.1005859, -0.3208008, -18.1097565, -18.0487804, 4.4512196, -0.0236667
0.9711914, -0.1123047, -0.3300781, -18.4756107, -18.3536587, 4.8170733, -0.03122
0.9770508, -0.1225586, -0.3300781, -18.4756107, -18.780489, 4.5731707, -0.0384375
0.9750977, -0.1176758, -0.3242188, -18.2317085, -18.6585369, 4.3292685, -0.0426337
0.9760742, -0.112793, -0.3139648, -17.7439022, -17.8658543, 3.6585367, -0.0495155
0.9731445, -0.0996094, -0.3164062, -17.2560978, -17.8658543, 3.2926829, -0.0522011
0.9692383, -0.0961914, -0.3149414, -17.6219521, -18.8414631, 3.3536587, -0.0522011
0.9736328, -0.0883789, -0.3173828, -18.1097565, -19.4512196, 3.4756098, -0.0485084
0.9746094, -0.0893555, -0.3134766, -19.3902435, -20.6097565, 3.9024391, -0.04448
0.9882812, -0.0883789, -0.2988281, -20.6707325, -21.1585369, 4.6951222, -0.0404517
0.9902344, -0.090332, -0.2944336, -21.5853672, -21.0975609, 5, -0.036759
0.9838867, -0.0844727, -0.2758789, -21.9512196, -21.5853672, 6.0365853, -0.0303807
0.9794922, -0.0664062, -0.2602539, -22.1341476, -21.7073174, 6.3414636, -0.0223239
0.9746094, -0.0566406, -0.2578125, -22.0731716, -21.7682934, 6.9512196, -0.01561
0.9580078, -0.0400391, -0.2773438, -22.439024, -22.2560978, 7.1951222, -0.0135958
0.9492188, -0.0351562, -0.2875977, -24.3292694, -23.4756107, 8.4756098, -0.0132601
0.9428711, -0.0385742, -0.3081055, -25.3658543, -24.3292694, 9.1463413, -0.0115816
0.9433594, -0.0439453, -0.3144531, -27.9268303, -25.8536587, 10.1829271, -0.0075532
0.9467773, -0.0668945, -0.331543, -28.841465, -26.2195129, 10.8536587, 0.0005035
0.9550781, -0.0727539, -0.3286133, -30.4268303, -27.560976, 11.4634151, 0.0068818
0.9614258, -0.0820312, -0.3203125, -31.341465, -27.3170738, 11.8292685, 0.0139315
0.9589844, -0.0874023, -0.3100586, -31.7682934, -27.1951218, 12.1951218, 0.0213169
0.9609375, -0.090332, -0.2954102, -32.2560997, -27.1951218, 11.8292685, 0.0226596
0.9584961, -0.0942383, -0.293457, -32.6829262, -27.3780499, 12.1341467, 0.0240024
0.9526367, -0.0961914, -0.2958984, -33.4146347, -27.8658543, 12.7439032, 0.0209812
0.9594727, -0.105957, -0.3164062, -33.7804871, -28.4146347, 13.2317076, 0.01561
0.9624023, -0.1132812, -0.3300781, -33.9024391, -29.6951218, 14.2682934, 0.0119173
0.9790039, -0.1186523, -0.3510742, -33.9024391, -30.1219521, 14.9390249, 0.0062104
0.9863281, -0.1289062, -0.355957, -34.0853653, -31.0365868, 15.2439032, -0.002182
0.9956055, -0.1420898, -0.362793, -33.9634171, -31.2195129, 15.2439032, -0.0115816
0.996582, -0.1435547, -0.3540039, -33.7195129, -31.0975609, 15.6707325, -0.018967
0.9814453, -0.1342773, -0.331543, -33.6585388, -30.3658543, 15.7926836, -0.0164492
0.9702148, -0.1293945, -0.3212891, -33.5365868, -30.1219521, 15.9146347, -0.0223239
0.953125, -0.1181641, -0.3061523, -33.841465, -30.1829281, 16.1585369, -0.0250095
0.9365234, -0.1108398, -0.3100586, -34.0243912, -30.9146347, 16.4024391, -0.0327306
0.9345703, -0.1088867, -0.3134766, -34.7560997, -32.8658562, 16.6463413, -0.0340734
0.9370117, -0.1171875, -0.3095703, -35.0609779, -33.6585388, 17.1341476, -0.0364233
0.9414062, -0.1210938, -0.2988281, -35.1829262, -34.6951218, 18.0487804, -0.0330663
0.956543, -0.1235352, -0.2832031, -35.1829262, -34.2073174, 18.4146347, -0.0330663
0.9594727, -0.1210938, -0.2832031, -34.2682953, -33.7804871, 18.0487804, -0.0283665
0.9511719, -0.1210938, -0.3012695, -33.841465, -33.7195129, 17.6829281, -0.0320592
0.9453125, -0.1259766, -0.315918, -34.3902435, -34.3292694, 18.0487804, -0.0337377
0.9418945, -0.1435547, -0.3408203, -35.6097565, -36.1585388, 19.5121956, -0.0330663
0.9423828, -0.1538086, -0.3398438, -35.9756088, -37.0731697, 20.060976, -0.0323949
0.9516602, -0.1557617, -0.3256836, -34.8170738, -37.5, 19.939024, -0.0260166
0.949707, -0.1518555, -0.315918, -33.9024391, -37.9878044, 19.5121956, -0.0213169
0.9448242, -0.1503906, -0.3217773, -32.3170738, -38.3536606, 19.2073174, -0.0169528
0.9321289, -0.1508789, -0.3554688, -32.2560997, -38.7804871, 19.2682934, -0.0109102
0.9248047, -0.159668, -0.3769531, -33.0487823, -39.9390259, 20, -0.0038605
0.9306641, -0.1606445, -0.4135742, -33.4756088, -40.6097565, 21.0975609, -0.0028534
0.940918, -0.1630859, -0.4189453, -33.5365868, -41.6463432, 22.1951218, -0.0041962
0.9594727, -0.1567383, -0.4169922, -33.1707306, -41.8902435, 21.8292694, -0.0075532
0.9628906, -0.1567383, -0.4038086, -32.8658562, -41.341465, 21.0975609, -0.0115816
0.9614258, -0.1503906, -0.3842773, -32.9268303, -40.9146347, 20.9146347, -0.0236667
0.9521484, -0.1464844, -0.3813477, -33.4756088, -41.1585388, 20.9756107, -0.0303807
0.9448242, -0.1416016, -0.3881836, -34.7560997, -42.1951218, 21.9512196, -0.0337377
0.9506836, -0.1293945, -0.3911133, -34.8780479, -42.9268303, 22.560976, -0.0330663
0.9555664, -0.1245117, -0.3881836, -35.3658562, -43.9024391, 24.1463413, -0.0384375
0.9731445, -0.1264648, -0.3730469, -35.4878044, -44.4512215, 24.5121956, -0.0377661
0.9814453, -0.1298828, -0.3666992, -35.7317085, -44.4512215, 23.9634151, -0.0377661
0.984375, -0.1455078, -0.3691406, -35.9756088, -44.3292694, 23.780489, -0.0364233
0.9746094, -0.1538086, -0.3847656, -36.4024391, -45.1829262, 24.6341476, -0.0431373
0.9619141, -0.1621094, -0.425293, -36.341465, -45.9146347, 25.4878063, -0.0392767
0.9628906, -0.1645508, -0.4453125, -36.4024391, -47.6829262, 27.560976, -0.0397803
0.9765625, -0.1635742, -0.4638672, -35.9146347, -48.6585388, 28.3536587, -0.0360876
0.9873047, -0.1582031, -0.4638672, -35.5487823, -48.7195129, 28.5365868, -0.0339055
1.012207, -0.1508789, -0.4672852, -34.6341476, -48.841465, 27.8048782, -0.0381018
1.0170898, -0.1567383, -0.4819336, -34.5731697, -48.9024391, 27.0731716, -0.0354162
1.0151367, -0.1591797, -0.4838867, -35.6097565, -49.6951218, 27.560976, -0.0374304
1.0068359, -0.1743164, -0.472168, -36.0365868, -50.4878044, 27.8658543, -0.0317235
1.0097656, -0.1787109, -0.4672852, -36.6463432, -51.4024391, 28.841465, -0.0344091
1.0087891, -0.184082, -0.4584961, -36.4634171, -52.0121956, 29.2073174, -0.0292058
1.0058594, -0.1855469, -0.456543, -35.5487823, -53.0487823, 28.9024391, -0.0276951
1.0058594, -0.1992188, -0.4624023, -34.9390259, -53.5975609, 29.0853672, -0.0320592
1.0048828, -0.2070312, -0.4716797, -35, -55.2439041, 28.9024391, -0.0337377
0.9970703, -0.2182617, -0.4672852, -34.3902435, -56.9512215, 30, -0.0411231
0.9960938, -0.2255859, -0.4594727, -34.0853653, -57.6219521, 30, -0.0414588
0.9970703, -0.2260742, -0.4501953, -32.5, -58.4756126, 31.0365868, -0.0391089
0.9936523, -0.2192383, -0.4575195, -31.341465, -59.3902435, 30.8536587, -0.0377661
0.9936523, -0.2094727, -0.4658203, -30.060976, -61.341465, 31.280489, -0.0354162
0.9931641, -0.2001953, -0.4824219, -29.7560978, -62.0731735, 31.2195129, -0.0303807
0.9975586, -0.1962891, -0.4916992, -29.2682934, -64.5121994, 31.5853672, -0.0290379
1.0043945, -0.1899414, -0.512207, -28.9634151, -65.4878082, 31.7073174, -0.033402
1.0092773, -0.1870117, -0.5180664, -28.6585369, -66.7073212, 32.3780479, -0.0397803
1.012207, -0.1787109, -0.5053711, -29.0853672, -67.1951218, 32.5609779, -0.0438087
1.0141602, -0.1762695, -0.4970703, -28.6585369, -68.1097565, 32.3170738, -0.0417945
0.9995117, -0.1748047, -0.4892578, -28.4756107, -69.3292694, 32.3170738, -0.0345769
0.9873047, -0.1801758, -0.4853516, -27.9878063, -70.1219559, 32.5609779, -0.0256809
0.9716797, -0.1855469, -0.487793, -27.6829281, -71.5243912, 33.2926826, -0.0229953
0.9658203, -0.190918, -0.5029297, -27.1341476, -72.3780518, 33.7195129, -0.0172885
0.9726562, -0.1943359, -0.5146484, -26.0975609, -73.6585388, 33.841465, -0.0048676
0.9775391, -0.1879883, -0.5341797, -25.3048782, -74.2073212, 34.1463432, -0.0003357
0.9794922, -0.1791992, -0.5405273, -25.3658543, -75.1219559, 34.9390259, -0.0003357
0.9926758, -0.1669922, -0.5522461, -25.6097565, -75.8536606, 34.9390259, 0.0020142
1.0004883, -0.1635742, -0.5507812, -26.1585369, -77.1951218, 35.2439041, 0.0025177
1.0004883, -0.1660156, -0.5380859, -26.5243912, -77.8658524, 35.2439041, 0.0052033
1, -0.1733398, -0.5244141, -27.3780499, -78.9634171, 36.1585388, 0.0058747
0.9941406, -0.1894531, -0.4829102, -27.3780499, -79.9390259, 36.8292694, 0.0046998
0.9853516, -0.1972656, -0.4677734, -26.8292694, -80.1219559, 37.4390259, 0.0008392
0.9594727, -0.1938477, -0.4658203, -26.4024391, -80.5487823, 38.3536606, -0.0092317
0.9282227, -0.1767578, -0.4853516, -26.2195129, -80.9756088, 39.3292694, -0.0164492
0.9287109, -0.1616211, -0.4970703, -27.0121956, -82.8658524, 40.7317085, -0.0203098
0.9467773, -0.1464844, -0.5263672, -27.3170738, -84.0243912, 41.2195129, -0.0209812
0.9628906, -0.1445312, -0.5336914, -27.7439022, -85.9146347, 41.2804871, -0.0209812
0.9814453, -0.1479492, -0.5532227, -28.2926826, -86.5853653, 41.4024391, -0.0176242
0.9926758, -0.1533203, -0.559082, -28.9024391, -87.2560959, 40.8536606, -0.0159457
0.996582, -0.1621094, -0.5698242, -29.6951218, -87.5, 41.2804871, -0.0001678
0.9985352, -0.1713867, -0.5756836, -31.0365868, -88.0487823, 42.1341476, 0.0112459
0.9833984, -0.1875, -0.5698242, -31.0365868, -88.9024429, 42.6829262, 0.0159457
0.9794922, -0.2094727, -0.559082, -31.0365868, -89.5731735, 42.9268303, 0.0216526
0.9697266, -0.2182617, -0.5522461, -30.5487804, -89.7560959, 43.2926826, 0.0290379
0.9487305, -0.234375, -0.5512695, -30.5487804, -90.1219559, 43.2926826, 0.0354162
0.9350586, -0.2299805, -0.5625, -29.5121956, -90, 43.2317085, 0.0374304
0.9189453, -0.2250977, -0.5849609, -28.9634151, -90.4268341, 43.2926826, 0.0364233
0.9165039, -0.2216797, -0.5966797, -29.2682934, -91.4634171, 43.9634171, 0.0347448
0.9199219, -0.1987305, -0.6152344, -29.2682934, -92.1341476, 43.9024391, 0.026688
0.9257812, -0.1967773, -0.6230469, -30.7926846, -93.4756088, 43.9634171, 0.0105745
0.9462891, -0.1953125, -0.628418, -32.0731697, -94.9390259, 44.1463432, -0.0075532
0.9560547, -0.203125, -0.6181641, -32.5, -94.8170776, 43.7195129, -0.0209812
0.965332, -0.2226562, -0.5776367, -33.0487823, -94.8170776, 43.2317085, -0.0216526
0.9516602, -0.2324219, -0.5561523, -32.5, -94.6341476, 42.9268303, -0.0236667
0.9335938, -0.2294922, -0.5600586, -31.7682934, -94.7561035, 43.1707344, -0.0273594
0.8901367, -0.2304688, -0.6035156, -31.1585369, -95.1219559, 43.9024391, -0.0325628
0.8779297, -0.2304688, -0.6293945, -31.341465, -96.646347, 45.4268303, -0.0360876
0.8803711, -0.2231445, -0.6586914, -31.0975609, -97.8048782, 46.0365868, -0.0317235
0.8891602, -0.2119141, -0.6645508, -31.0365868, -99.8780518, 46.8292694, -0.0297093
0.9106445, -0.1831055, -0.6489258, -30.7926846, -100.2439041, 46.4634171, -0.026688
0.9228516, -0.1704102, -0.6308594, -31.1585369, -99.8170776, 46.1585388, -0.023331
0.9179688, -0.1503906, -0.6083984, -32.1951218, -98.9024429, 44.9390259, -0.0203098
0.9125977, -0.152832, -0.6064453, -32.6219521, -99.3292694, 44.5731735, -0.0186313
0.8847656, -0.1762695, -0.6381836, -34.0243912, -100.9146347, 45.7926826, -0.0182956
0.8691406, -0.2250977, -0.6831055, -34.6341476, -102.3780518, 46.4634171, -0.0125887
0.8735352, -0.2470703, -0.6899414, -34.5731697, -104.6951218, 47.6829262, -0.0142672
0.9013672, -0.2807617, -0.6625977, -33.7804871, -105.9146347, 48.3536606, -0.01561
0.9165039, -0.2817383, -0.6362305, -31.280489, -106.2804871, 48.4146347, -0.0182956
0.9248047, -0.2680664, -0.5991211, -29.8780499, -105.9146347, 47.6829262, -0.01561
0.9145508, -0.2592773, -0.6035156, -27.7439022, -105.1219559, 47.0121956, -0.0176242
0.8759766, -0.2426758, -0.6337891, -27.6829281, -105.3658524, 47.2560997, -0.0186313
0.8666992, -0.2353516, -0.6572266, -27.6219521, -107.68293, 49.5121956, -0.0199741
0.8720703, -0.2294922, -0.6889648, -27.3170738, -111.0365906, 50.4268303, -0.018967
0.8828125, -0.2294922, -0.6948242, -26.3414631, -112.1341476, 50.5487823, -0.0226596
0.909668, -0.2226562, -0.6889648, -25.5487804, -113.1097565, 50.3658562, -0.0283665
0.9208984, -0.2285156, -0.6865234, -25.6097565, -112.9268341, 50.1219521, -0.0365911
0.918457, -0.2314453, -0.6953125, -26.2195129, -112.9268341, 50.3048782, -0.0364233
0.8911133, -0.2583008, -0.7416992, -27.0121956, -113.1707306, 50.7317085, -0.036759
0.8813477, -0.2700195, -0.7700195, -27.6829281, -113.8414688, 52.9268303, -0.0431373
0.8666992, -0.2841797, -0.8085938, -27.6219521, -113.9634171, 54.2682953, -0.0466621
0.8735352, -0.2866211, -0.8051758, -26.1585369, -114.5121994, 56.0365868, -0.0505226
0.8896484, -0.2685547, -0.7583008, -24.8780499, -114.8780518, 56.6463432, -0.0508583
0.8925781, -0.2495117, -0.7368164, -22.439024, -113.4756088, 56.341465, -0.0552224
0.8813477, -0.2080078, -0.7299805, -21.5853672, -112.68293, 55.9756126, -0.054551
0.8666992, -0.1992188, -0.7407227, -22.439024, -112.86586, 55.7926826, -0.0451514
0.8442383, -0.2036133, -0.7915039, -25.3658543, -115.36586, 57.1951218, -0.0407874
0.8505859, -0.2407227, -0.8188477, -26.6463413, -117.5, 57.9268303, -0.040116
0.8706055, -0.2709961, -0.8237305, -27.2560978, -120.36586, 58.6585388, -0.0297093
0.8925781, -0.3168945, -0.7983398, -26.8902454, -121.0365906, 59.0243912, -0.0229953
0.9038086, -0.3344727, -0.7773438, -24.3902435, -120.18293, 59.0853691, -0.0125887
0.9106445, -0.340332, -0.7329102, -23.3536587, -119.2682953, 59.1463432, 0.0008392
0.8994141, -0.3330078, -0.7143555, -21.3414631, -117.6219559, 58.841465, 0.0132601
0.8623047, -0.2988281, -0.7128906, -20.7317085, -117.0731735, 58.9634171, 0.0216526
0.8369141, -0.2797852, -0.7392578, -20.3048782, -117.7439041, 58.7804909, 0.0246738
0.800293, -0.262207, -0.8056641, -21.0975609, -120.18293, 59.0243912, 0.0159457
0.7924805, -0.2597656, -0.8408203, -21.7682934, -121.5243912, 59.5731735, -0.0015106
0.8076172, -0.2700195, -0.8725586, -23.2317085, -123.4756088, 59.7560997, -0.0251774
0.8481445, -0.2817383, -0.8535156, -23.2926826, -123.5975647, 59.2073174, -0.0506905
0.859375, -0.2905273, -0.8359375, -23.6585369, -122.8048782, 58.1707344, -0.0720073
0.8686523, -0.3120117, -0.8027344, -23.4756107, -122.0731735, 57.68293, -0.0861067
0.8608398, -0.3193359, -0.7988281, -23.6585369, -120.9146347, 57.4390259, -0.0961776
0.8251953, -0.3349609, -0.8149414, -23.8414631, -120.8536606, 57.68293, -0.1012131
0.8129883, -0.3378906, -0.8256836, -23.1097565, -122.1341476, 58.1707344, -0.1055772
0.7993164, -0.3466797, -0.8295898, -22.560976, -122.86586, 58.4146347, -0.0988632
0.800293, -0.347168, -0.8291016, -20.6707325, -124.0243912, 58.0487823, -0.0931563
0.8085938, -0.3466797, -0.8222656, -18.7195129, -123.7195129, 56.8292694, -0.0840925
0.8076172, -0.3452148, -0.824707, -18.1097565, -123.1097565, 55.8536606, -0.0686503
0.793457, -0.3442383, -0.8256836, -16.5243912, -122.0731735, 56.0365868, -0.0480049
0.7900391, -0.3413086, -0.8188477, -15.9146347, -122.4390259, 55.7317085, -0.0198062
0.7861328, -0.3427734, -0.8154297, -14.3902445, -123.5365906, 54.8170738, 0.0052033
0.7768555, -0.3476562, -0.8129883, -13.3536587, -124.4512253, 54.5731735, 0.0224918
0.7758789, -0.3549805, -0.8144531, -11.6463413, -125.3048782, 54.6951218, 0.0332341
0.7563477, -0.3549805, -0.8388672, -11.1585369, -125.3048782, 55, 0.0439765
0.7495117, -0.3535156, -0.8520508, -10.060976, -125.18293, 55.7926826, 0.0424659
0.7470703, -0.3295898, -0.8740234, -9.6951218, -125.1219559, 56.2804909, 0.0379339
0.7441406, -0.3154297, -0.8842773, -9.2682924, -125.3048782, 56.0975609, 0.0287022
0.7392578, -0.2924805, -0.9101562, -10.2439022, -125.6097565, 55, 0.0199741
0.7373047, -0.2880859, -0.9047852, -11.1585369, -125.4878082, 54.7560997, 0.0105745
0.7524414, -0.2958984, -0.8847656, -13.5365858, -125.6097565, 54.0853653, -0.0010071
0.7548828, -0.3227539, -0.8666992, -14.3292685, -126.0365906, 53.7804909, -0.0109102
0.7495117, -0.3374023, -0.8686523, -15.4268293, -125.5487823, 52.9878044, -0.0130922
0.71875, -0.3666992, -0.8896484, -16.0365849, -125.4878082, 53.2317085, -0.0176242
0.7075195, -0.3745117, -0.8955078, -15.6707325, -125.9756165, 54.5731735, -0.0139315
0.6904297, -0.3803711, -0.8999023, -15.2439032, -126.4634171, 55.0609779, -0.0104067
0.6914062, -0.3720703, -0.8920898, -14.2682934, -126.8292694, 54.9390259, -0.0038605
0.6899414, -0.3491211, -0.8764648, -13.4756098, -126.8292694, 54.4512215, -0.0028534
0.6831055, -0.3364258, -0.8725586, -12.9878054, -126.4634171, 53.4146347, -0.0031891
0.6669922, -0.3320312, -0.8862305, -13.2317076, -127.1951218, 52.9878044, -0.0075532
0.6616211, -0.3349609, -0.9086914, -13.4146347, -127.7439041, 52.9268303, -0.0142672
0.6606445, -0.3530273, -0.9370117, -13.2926836, -129.146347, 53.9024391, -0.0216526
0.6816406, -0.3725586, -0.9335938, -13.2317076, -129.8170776, 54.4512215, -0.0229953
0.6928711, -0.3745117, -0.9165039, -11.5243902, -129.6951294, 54.0853653, -0.0169528
0.6870117, -0.3706055, -0.8881836, -10.5487804, -128.8414612, 53.7804909, -0.0112459
0.6762695, -0.3608398, -0.8833008, -9.5731707, -127.0121994, 53.1707344, -0.0115816
0.6298828, -0.3496094, -0.8901367, -9.4512196, -126.4634171, 53.3536606, -0.0109102
0.6132812, -0.347168, -0.8881836, -9.5731707, -126.8902435, 54.3902435, -0.0191348
0.6020508, -0.3486328, -0.8813477, -9.2073174, -127.5609818, 54.4512215, -0.0199741
0.6040039, -0.359375, -0.8745117, -7.1951222, -129.2682953, 53.7195129, -0.0323949
0.5961914, -0.375, -0.8789062, -5.1829271, -130.7317047, 54.2073174, -0.0417945
0.5952148, -0.3862305, -0.8793945, -4.390244, -130.5487823, 55, -0.0424659
0.6025391, -0.3930664, -0.8793945, -2.0731707, -129.9390259, 55.8536606, -0.040116
0.6123047, -0.3857422, -0.8793945, -0.9146342, -130, 55.9756126, -0.033402
0.6069336, -0.3813477, -0.8862305, 0.8536586, -129.8780518, 55.3658562, -0.0250095
0.5874023, -0.3632812, -0.9018555, 1.097561, -129.5121918, 55.6097565, -0.0142672
0.5800781, -0.3510742, -0.9052734, 2.195122, -129.146347, 56.1585388, -0.0058747
0.5756836, -0.3364258, -0.8950195, 2.5, -129.2073212, 55.9146347, 0.0036927
0.5722656, -0.3295898, -0.890625, 2.8658538, -129.2682953, 55.3048782, 0.0065461
0.5561523, -0.3383789, -0.8994141, 2.6219513, -129.5121918, 54.9390259, 0.010071
0.5454102, -0.3476562, -0.9150391, 2.0121951, -130.1829224, 55.4878044, 0.0058747
0.5444336, -0.3779297, -0.9702148, 1.4634147, -132.1951294, 56.5243912, 0.0038605
0.5473633, -0.3979492, -0.9970703, 1.5853659, -132.86586, 56.9512215, -0.0028534
0.5673828, -0.4355469, -1.0307617, 2.9878049, -134.6341553, 57.9268303, -0.0070497
0.5991211, -0.4472656, -1.0117188, 4.0853658, -134.5121918, 58.2317085, -0.0152743
0.6157227, -0.4379883, -0.9897461, 7.0121951, -131.7073212, 57.4390259, -0.0162814
0.612793, -0.4067383, -0.9570312, 8.1707315, -129.9390259, 56.6463432, -0.0112459
0.5932617, -0.3837891, -0.956543, 8.1707315, -126.2195129, 55.1219521, -0.0083925
0.5356445, -0.3330078, -0.9765625, 7.3780489, -125.1219559, 54.5731735, -0.0063783
0.5063477, -0.3134766, -0.9956055, 4.390244, -125.9146347, 54.4512215, -0.0083925
0.4858398, -0.3022461, -1.0209961, 2.3780489, -127.3780518, 55.0609779, -0.0109102
0.4907227, -0.3076172, -1.0185547, -0.7317073, -130.2439117, 55.3048782, -0.0149386
0.5332031, -0.3398438, -0.9868164, -2.0121951, -130.9146423, 55.4268303, -0.0236667
0.5522461, -0.3579102, -0.9672852, -1.8292683, -130.36586, 55.0609779, -0.0297093
0.5605469, -0.4033203, -0.9511719, -1.5853659, -128.1097565, 55.4878044, -0.0323949
0.534668, -0.4311523, -0.9697266, -1.2804878, -127.1341476, 56.2804909, -0.0310521
0.5180664, -0.4355469, -0.984375, -0.1829268, -126.0365906, 58.1707344, -0.0344091
0.4882812, -0.4291992, -0.9941406, 0.0609756, -125.6707382, 58.4146347, -0.0424659
0.4838867, -0.4155273, -0.9770508, 1.7073171, -125.0609818, 58.2317085, -0.0518654
0.4814453, -0.3852539, -0.9350586, 2.1341465, -124.8780518, 57.3170738, -0.0525368
0.4755859, -0.3735352, -0.9277344, 3.1097562, -123.8414688, 55.0609779, -0.0515297
0.4428711, -0.3632812, -0.9541016, 2.6829269, -123.9024429, 54.8170738, -0.0527047
0.4311523, -0.3676758, -0.9819336, 1.2804878, -124.5731735, 56.0365868, -0.0538796
0.425293, -0.378418, -1.0336914, 0.4268293, -125.9756165, 58.6585388, -0.0649577
0.4423828, -0.3740234, -1.0332031, 0.1829268, -126.5853653, 59.0853691, -0.0639506
0.4868164, -0.3637695, -1, 0.0609756, -126.0975647, 58.4756126, -0.0614328
0.4960938, -0.362793, -0.9697266, -0.6097561, -125.0609818, 57.6219521, -0.0562295
0.4882812, -0.3681641, -0.9682617, -2.6219513, -123.9634171, 57.3170738, -0.0535439
0.4638672, -0.390625, -0.9731445, -3.4146342, -124.2073212, 57.9268303, -0.051194
0.4545898, -0.4072266, -0.9741211, -4.2073174, -125.5487823, 59.2073174, -0.0518654
0.4448242, -0.4150391, -0.9848633, -3.7804878, -126.1585388, 59.3902435, -0.0532082
0.4360352, -0.4199219, -0.9912109, -2.6829269, -125.4878082, 58.5365868, -0.0491798
0.4174805, -0.4345703, -0.9838867, -2.0731707, -125.0609818, 58.0487823, -0.0439765
0.4169922, -0.4306641, -0.9638672, -1.5853659, -124.4512253, 57.8658562, -0.04448
0.4125977, -0.4077148, -0.9365234, -1.1585366, -124.146347, 56.8902435, -0.047837
0.4047852, -0.3920898, -0.9423828, -1.5243902, -124.5121994, 56.2195129, -0.0438087
0.3779297, -0.390625, -0.9990234, -3.0487804, -126.5853653, 56.1585388, -0.0399481
0.3818359, -0.4228516, -1.0351562, -3.4146342, -128.2317047, 56.5853653, -0.0412909
0.4033203, -0.4428711, -1.0292969, -2.5609756, -129.6341553, 57.2560997, -0.0397803
0.4345703, -0.4638672, -1.0019531, -1.5853659, -128.7804871, 56.7073174, -0.0374304
0.4389648, -0.4589844, -0.9882812, 1.2195122, -126.4634171, 55.7317085, -0.0360876
0.4174805, -0.4487305, -0.9863281, 2.3170731, -124.6341476, 55.0609779, -0.033402
0.3984375, -0.4462891, -0.9960938, 3.4146342, -123.3536606, 54.8170738, -0.0303807
0.3657227, -0.4458008, -1.0253906, 4.0853658, -123.7804871, 55.18293, -0.0303807
0.359375, -0.449707, -1.0302734, 5.8536587, -125.36586, 55.7926826, -0.0270237
0.3681641, -0.4404297, -1.0273438, 8.3536587, -124.8780518, 55, -0.0223239
0.3676758, -0.4262695, -1.0244141, 9.0853662, -124.0243912, 54.5731735, -0.0149386
0.3701172, -0.4023438, -1.0253906, 8.5975609, -122.6219559, 53.6585388, -0.0213169
0.3569336, -0.3881836, -1.0424805, 8.2926826, -122.5, 53.6585388, -0.018967
0.3530273, -0.3867188, -1.0473633, 6.5853658, -123.3536606, 54.2682953, -0.0169528
0.3525391, -0.4033203, -1.0317383, 6.2195125, -123.7195129, 54.5121956, -0.0194705
0.3510742, -0.4125977, -1.0219727, 6.3414636, -123.3536606, 54.9390259, -0.0260166
0.3457031, -0.4267578, -0.9892578, 6.890244, -122.4390259, 54.9390259, -0.036759
0.3339844, -0.4248047, -0.9736328, 8.1707315, -120.1219559, 54.9390259, -0.0404517
0.300293, -0.4160156, -0.9628906, 8.6585369, -119.6951218, 55, -0.0411231
0.28125, -0.4072266, -0.9663086, 8.3536587, -119.3902435, 55.18293, -0.0377661
0.2475586, -0.3823242, -1.0014648, 6.5243902, -120.36586, 55.3048782, -0.0397803
0.237793, -0.3735352, -1.0195312, 5.3658538, -121.0975647, 55.9146347, -0.0414588
0.2431641, -0.3417969, -1.0405273, 2.2560976, -122.68293, 55.2439041, -0.0357519
0.2714844, -0.331543, -1.0551758, 0.8536586, -123.2317123, 55.3048782, -0.0327306
0.2753906, -0.3374023, -1.0615234, -2.6219513, -122.3170776, 55.3048782, -0.0360876
0.2822266, -0.3608398, -1.0581055, -4.0853658, -121.4024429, 55.7317085, -0.0310521
0.2885742, -0.3735352, -1.0581055, -6.5243902, -119.3902435, 56.9512215, -0.0203098
0.2910156, -0.4091797, -1.0498047, -7.2560978, -118.7804871, 57.4390259, -0.0078889
0.2851562, -0.4204102, -1.0478516, -8.4756098, -118.2317123, 57.8048782, 0.0001678
0.2724609, -0.4511719, -1.0258789, -8.4756098, -117.86586, 57.3780518, 0.0092317
0.2675781, -0.4667969, -1.0097656, -8.3536587, -117.6219559, 55.9146347, 0.0208133
0.2416992, -0.4892578, -0.987793, -7.0121951, -117.0121994, 54.8780518, 0.0260166
0.1923828, -0.4921875, -1.0019531, -6.6463418, -116.8292694, 54.6341476, 0.0246738
0.1757812, -0.4833984, -1.0219727, -5.1219511, -116.2195129, 55.4878044, 0.0193027
0.1513672, -0.4536133, -1.0561523, -5.0609756, -116.2195129, 55.5487823, 0.0130922
0.1503906, -0.4375, -1.0693359, -5.1829271, -117.5609818, 54.9390259, 0.0115816
0.1777344, -0.4086914, -1.0786133, -5.3048782, -118.2926865, 54.3292694, 0.0105745
0.1894531, -0.4091797, -1.0751953, -7.0731707, -119.7561035, 52.8048782, 0.0052033
0.2255859, -0.4233398, -1.0454102, -7.9268293, -120.4268341, 52.5609779, -0.0035248
0.2407227, -0.4296875, -1.0200195, -9.0243902, -120.7317123, 52.0731735, -0.0142672
0.2441406, -0.4438477, -0.9638672, -8.5365858, -119.8170776, 50.8536606, -0.0172885
0.2294922, -0.4472656, -0.9404297, -7.6219516, -119.0243912, 50.2439041, -0.0176242
0.1606445, -0.4399414, -0.9443359, -5.670732, -118.4756088, 50.1219521, -0.0182956
0.0795898, -0.4238281, -1.0126953, -5.1829271, -118.7804871, 50.6097565, -0.0152743
0.0551758, -0.4223633, -1.0463867, -5.609756, -120.7317123, 52.3780518, -0.0229953
0.0625, -0.4306641, -1.0664062, -5.9756098, -122.3170776, 53.2317085, -0.0199741
0.0898438, -0.4277344, -1.0581055, -6.280488, -124.4512253, 52.9268303, -0.0176242
0.1484375, -0.4150391, -1.0229492, -6.280488, -125, 52.0121956, -0.0216526
0.1660156, -0.4086914, -1.0009766, -7.5609756, -124.0853653, 50.3048782, -0.0203098
0.1723633, -0.4042969, -0.9775391, -8.9634151, -123.7804871, 49.7560997, -0.0146029
0.1640625, -0.4106445, -0.9697266, -10.8536587, -123.4756088, 49.7560997, -0.01561
0.1240234, -0.4248047, -0.9750977, -11.4634151, -124.4512253, 50.7926826, -0.01561
0.1113281, -0.4316406, -0.9819336, -10.7926836, -124.6951218, 51.1585388, -0.0172885
0.0854492, -0.4482422, -0.9897461, -8.2317076, -125.4268341, 51.4024391, -0.0280308
0.0771484, -0.4599609, -0.987793, -7.2560978, -125.4268341, 51.6463432, -0.036759
0.0737305, -0.4560547, -0.9873047, -5.1829271, -125.36586, 51.4024391, -0.0458228
0.059082, -0.4516602, -1.0014648, -4.6341462, -125.18293, 51.6463432, -0.0589151
0.050293, -0.4365234, -1.0068359, -3.7195122, -125.1219559, 51.8902435, -0.0686503
0.0439453, -0.4277344, -1.0043945, -3.2926829, -125.2439041, 52.0731735, -0.068986
0.046875, -0.4306641, -0.996582, -2.0731707, -126.2195129, 51.9512215, -0.066804
0.0634766, -0.4487305, -0.9707031, -1.3414634, -126.5853653, 51.6463432, -0.0592508
0.0649414, -0.4536133, -0.9711914, -0.2439024, -125.9756165, 51.2195129, -0.0535439
0.0478516, -0.4550781, -0.9702148, 0.3658537, -124.5731735, 51.7073174, -0.047837
0.0317383, -0.4545898, -0.9785156, 0.5487805, -123.8414688, 52.1341476, -0.0370947
0.0112305, -0.4433594, -0.9921875, 1.0365853, -124.146347, 52.3780518, -0.030045
0.0083008, -0.4311523, -1.0170898, 1.2804878, -124.5731735, 51.8902435, -0.0250095
0.0087891, -0.434082, -1.0214844, 0.8536586, -125.7317123, 51.8292694, -0.0129244
0.0161133, -0.4331055, -0.9868164, 0.3658537, -125.5487823, 52.1951218, -0.0048676
0.0170898, -0.4272461, -0.9619141, 0.4878049, -123.5975647, 51.8292694, 0.0035248
-0.0078125, -0.3930664, -0.9238281, 0.3048781, -122.0121994, 51.6463432, 0.012253
-0.0302734, -0.3671875, -0.9155273, -0.4878049, -120.18293, 50.5487823, 0.0199741
-0.0668945, -0.3535156, -0.9052734, -1.402439, -120.6097565, 50.5487823, 0.026688
-0.0717773, -0.3647461, -0.8999023, -3.0487804, -123.4756088, 50.0609779, 0.0340734
-0.0805664, -0.4091797, -0.9291992, -4.0243902, -126.0365906, 51.0365868, 0.0354162
-0.0849609, -0.4282227, -0.9682617, -4.4512196, -126.2804871, 52.3170738, 0.0387732
-0.0898438, -0.4384766, -1.0400391, -4.6951222, -124.8780518, 54.3902435, 0.0293736
-0.0698242, -0.421875, -1.065918, -4.5731707, -124.3292694, 54.3902435, 0.0085603
-0.0537109, -0.409668, -1.0683594, -5.8536587, -122.9878082, 53.0487823, -0.0117494
-0.0263672, -0.4179688, -1.0527344, -7.1951222, -122.7439041, 51.5853653, -0.0234989
-0.0141602, -0.4287109, -1.034668, -10.5487804, -122.9268341, 50.1219521, -0.0525368
0.0009766, -0.4663086, -1.0043945, -11.7073174, -122.86586, 49.8170738, -0.090135
-0.0043945, -0.4868164, -0.9951172, -12.5, -122.9268341, 49.8780518, -0.1117876
-0.0522461, -0.5097656, -1.0239258, -12.1951218, -121.9512253, 50.2439041, -0.1263905
-0.078125, -0.5136719, -1.043457, -10.6097565, -119.5731735, 51.341465, -0.142504
-0.1064453, -0.5219727, -1.0766602, -9.0853662, -118.6585388, 52.0731735, -0.1555962
-0.1040039, -0.5224609, -1.0766602, -7.9268293, -118.7195129, 51.8902435, -0.1616388
-0.0888672, -0.5068359, -1.0361328, -6.1585369, -118.3536606, 49.7560997, -0.1646601
-0.0800781, -0.4692383, -0.9995117, -6.0365853, -118.2317123, 48.5975609, -0.1559319
-0.0795898, -0.4541016, -0.9868164, -6.8292685, -117.9878082, 46.2804871, -0.1367971
-0.0805664, -0.4624023, -0.9501953, -7.0731707, -118.3536606, 45.8536606, -0.1045701
-0.0810547, -0.4726562, -0.9179688, -7.1341467, -118.5365906, 45.3658562, -0.0572366
-0.0932617, -0.4755859, -0.8662109, -6.5853658, -117.8048782, 45.1829262, -0.0132601
-0.1152344, -0.465332, -0.8657227, -5, -115.18293, 44.5731735, 0.0293736
-0.1972656, -0.4208984, -0.8945312, -4.6341462, -114.146347, 44.6341476, 0.0706645
-0.2236328, -0.4013672, -0.8994141, -5.4268293, -113.9634171, 45.3048782, 0.1062486
-0.2260742, -0.3774414, -0.8666992, -6.2195125, -117.2561035, 45.0609779, 0.1319295
-0.203125, -0.3779297, -0.84375, -6.4024391, -118.9634171, 44.3902435, 0.1508965
-0.1708984, -0.4023438, -0.8432617, -7.0121951, -121.4634171, 43.0487823, 0.1606317
-0.1787109, -0.4335938, -0.9199219, -7.8048782, -121.9512253, 43.4146347, 0.1681849
-0.1811523, -0.4482422, -0.9609375, -9.3292685, -122.0121994, 46.5243912, 0.1683528
-0.1679688, -0.4599609, -0.9956055, -8.780488, -122.0731735, 47.8658562, 0.1619745
-0.1479492, -0.4501953, -0.980957, -7.4390244, -121.8292694, 48.5365868, 0.1539178
-0.1245117, -0.4145508, -0.9150391, -6.5853658, -120.6707382, 47.6219521, 0.1441825
-0.1328125, -0.3930664, -0.8842773, -7.5609756, -117.1341476, 45.6097565, 0.1341115
-0.1875, -0.3598633, -0.8964844, -9.3902445, -116.4024429, 44.8780479, 0.1126268
-0.215332, -0.3564453, -0.9335938, -14.4512196, -117.7439041, 45.7926826, 0.093492
-0.2451172, -0.390625, -0.9829102, -18.780489, -121.0365906, 49.0243912, 0.073518
-0.2319336, -0.4213867, -0.9736328, -19.2682934, -122.1341476, 49.9390259, 0.0555581
-0.1889648, -0.4536133, -0.9365234, -17.8658543, -120.9146347, 49.6951218, 0.0414588
-0.1884766, -0.4345703, -0.9350586, -16.8902435, -118.9024429, 48.9024391, 0.0224918
-0.2006836, -0.421875, -0.9414062, -16.6463413, -114.0243912, 48.6585388, 0.0065461
-0.2158203, -0.3920898, -0.9599609, -17.439024, -112.4390259, 49.0853653, -0.0052033
-0.21875, -0.3813477, -0.9672852, -20.4268303, -110.7317123, 48.9634171, -0.0149386
-0.2207031, -0.3852539, -0.9682617, -21.5853672, -110.4878082, 48.5365868, -0.0270237
-0.222168, -0.394043, -0.9560547, -24.0243912, -110.5487823, 47.5609779, -0.0360876
-0.21875, -0.418457, -0.9360352, -24.9390259, -110.4268341, 47.1341476, -0.047837
-0.2246094, -0.4213867, -0.9208984, -25.060976, -109.9390259, 47.0731735, -0.047837
-0.2373047, -0.4121094, -0.8608398, -23.9024391, -109.0853653, 46.0975609, -0.0486763
-0.2416992, -0.4082031, -0.8305664, -23.5975609, -108.9024429, 45.1829262, -0.0495155
-0.2827148, -0.4072266, -0.8022461, -23.0487804, -109.3902435, 43.4756126, -0.0508583
-0.3378906, -0.4086914, -0.800293, -23.4756107, -109.8780518, 43.5365868, -0.0538796
-0.3588867, -0.402832, -0.7973633, -24.2682934, -110.6097565, 44.2073174, -0.0582437
-0.3696289, -0.3916016, -0.7651367, -24.2682934, -111.4634171, 44.0853653, -0.0552224
-0.3681641, -0.3862305, -0.734375, -23.9024391, -112.5609818, 42.3780479, -0.0486763
-0.3637695, -0.3901367, -0.6923828, -23.6585369, -112.86586, 40.5487823, -0.0421302
-0.3706055, -0.3911133, -0.6918945, -23.2317085, -114.5121994, 38.4146347, -0.0345769
-0.3964844, -0.4135742, -0.7436523, -23.5975609, -115.6097565, 37.9878044, -0.0391089
-0.4091797, -0.4199219, -0.7924805, -23.3536587, -119.0243912, 39.6951218, -0.0424659
-0.4018555, -0.4174805, -0.8881836, -21.9512196, -121.2804871, 42.3780479, -0.0424659
-0.3857422, -0.4169922, -0.9155273, -21.0365868, -120.8536606, 43.2926826, -0.0525368
-0.3330078, -0.3935547, -0.9047852, -18.6585369, -119.0243912, 42.8048782, -0.0659648
-0.2973633, -0.3603516, -0.8510742, -17.6219521, -117.2561035, 42.0121956, -0.0770428
-0.2954102, -0.3452148, -0.8320312, -18.2317085, -113.8414688, 39.5731735, -0.0891279
-0.3242188, -0.3291016, -0.8208008, -19.5121956, -113.3536606, 39.0853653, -0.0861067
-0.3413086, -0.3291016, -0.8149414, -23.1707325, -114.0243912, 39.5121956, -0.0834211
-0.3662109, -0.3305664, -0.8266602, -24.3902435, -114.6951218, 40.1219521, -0.0762036
-0.3852539, -0.3320312, -0.8647461, -26.5243912, -115.6707306, 41.7073174, -0.0686503
-0.409668, -0.331543, -0.940918, -27.1951218, -115.1219559, 42.7439041, -0.0686503
-0.4018555, -0.3325195, -0.9575195, -28.2317085, -114.2073212, 44.0853653, -0.0552224
-0.3515625, -0.3505859, -0.9311523, -28.4146347, -113.0487823, 43.1097565, -0.0438087
-0.3276367, -0.3676758, -0.9033203, -28.780489, -112.1341476, 42.5609779, -0.0320592
-0.3115234, -0.3735352, -0.8349609, -29.5731716, -110.18293, 40.4878044, -0.0172885
-0.3457031, -0.3642578, -0.7993164, -30.6707325, -109.146347, 40.1219521, -0.005539
-0.3730469, -0.3579102, -0.8041992, -31.7682934, -108.6585388, 40.7317085, 0.0031891
-0.4091797, -0.359375, -0.8149414, -32.9268303, -109.0853653, 41.1585388, 0.0119173
-0.4194336, -0.3740234, -0.8232422, -33.1707306, -109.7561035, 41.8902435, 0.0146029
-0.418457, -0.4101562, -0.8276367, -32.8658562, -109.9390259, 41.8902435, 0.0135958
-0.4155273, -0.4296875, -0.8227539, -31.0365868, -109.0243912, 41.8292694, 0.0135958
-0.4111328, -0.4306641, -0.7900391, -29.5121956, -108.0487823, 41.9512215, 0.0085603
-0.4140625, -0.4057617, -0.7675781, -27.4390259, -105.5487823, 40.9756088, 0.0058747
-0.4208984, -0.3388672, -0.7202148, -27.3780499, -103.2317123, 39.0853653, 0.0072175
-0.4365234, -0.3100586, -0.7133789, -28.5975609, -102.8658524, 37.8658562, -0.0030213
-0.4804688, -0.2797852, -0.706543, -32.4390259, -104.8170776, 37.2560997, -0.0125887
-0.4980469, -0.3188477, -0.6816406, -34.0243912, -106.4634171, 37.6219521, -0.0204776
-0.4980469, -0.3393555, -0.671875, -35, -110.1219559, 38.6585388, -0.0290379
-0.503418, -0.3706055, -0.7036133, -33.7804871, -111.0975647, 39.3902435, -0.0317235
-0.5048828, -0.3793945, -0.730957, -31.4634151, -111.7682953, 40.7317085, -0.0344091
-0.496582, -0.3730469, -0.7714844, -30.1829281, -111.7073212, 41.1585388, -0.0330663
-0.4814453, -0.3603516, -0.7719727, -28.1707325, -111.1585388, 40.9756088, -0.0330663
-0.4594727, -0.3320312, -0.75, -28.1097565, -110.36586, 40.3048782, -0.0330663
-0.4570312, -0.3129883, -0.7421875, -29.3902454, -108.4756088, 38.2926826, -0.0357519
-0.4711914, -0.2900391, -0.7460938, -32.4390259, -108.6585388, 37.4390259, -0.0332341
-0.4838867, -0.2895508, -0.746582, -34.2682953, -109.5121994, 37.8048782, -0.0250095
-0.4931641, -0.2978516, -0.7275391, -36.7073174, -111.0365906, 38.5975609, -0.0273594
-0.4902344, -0.2983398, -0.7163086, -36.8292694, -110.9146347, 38.5975609, -0.0297093
-0.5024414, -0.2988281, -0.7329102, -37.0731697, -109.5731735, 38.4756088, -0.0320592
-0.5249023, -0.3120117, -0.793457, -38.1097565, -108.6585388, 39.0243912, -0.0330663
-0.5288086, -0.3261719, -0.8066406, -39.6951218, -109.2073212, 40.8536606, -0.0310521
-0.5019531, -0.3496094, -0.7905273, -39.5121956, -109.6341476, 41.8902435, -0.0293736
-0.4848633, -0.3588867, -0.7724609, -38.0487823, -108.9634171, 41.7073174, -0.0310521
-0.4692383, -0.3588867, -0.7514648, -37.2560997, -107.6219559, 40.9146347, -0.0310521
-0.4780273, -0.3554688, -0.7524414, -37.5609779, -105, 39.7560997, -0.0290379
-0.5024414, -0.3554688, -0.7641602, -39.0243912, -104.0243912, 39.8780479, -0.0313878
-0.5131836, -0.3530273, -0.7807617, -39.8780479, -103.7195129, 40.4268303, -0.0352483
-0.5366211, -0.331543, -0.8188477, -40.6707344, -103.4756088, 41.0975609, -0.0357519
-0.5273438, -0.3217773, -0.8198242, -40.5487823, -102.8658524, 41.0975609, -0.0391089
-0.5200195, -0.315918, -0.809082, -39.6951218, -100.7317123, 39.1463432, -0.0360876
-0.5078125, -0.3183594, -0.7802734, -39.5121956, -99.8780518, 38.1097565, -0.0377661
-0.5087891, -0.3183594, -0.7592773, -40.1829262, -97.5609741, 36.6463432, -0.0364233
-0.5078125, -0.3266602, -0.6918945, -41.1585388, -97.3170776, 36.0975609, -0.0359197
-0.5205078, -0.3305664, -0.6469727, -42.0731735, -97.3170776, 35.0609779, -0.0377661
-0.5595703, -0.3320312, -0.5820312, -42.3170738, -97.8048782, 34.4512215, -0.0318914
-0.5932617, -0.3291016, -0.5849609, -41.341465, -98.9024429, 33.7195129, -0.0223239
-0.6542969, -0.3330078, -0.6357422, -39.7560997, -101.4024429, 35.3048782, -0.0226596
-0.6616211, -0.3432617, -0.6635742, -38.4756088, -102.8658524, 36.0365868, -0.0290379
-0.6259766, -0.3657227, -0.6870117, -35.1219521, -104.5731735, 37.0121956, -0.0391089
-0.5654297, -0.3759766, -0.6738281, -32.9878044, -104.146347, 36.8292694, -0.0458228
-0.546875, -0.3642578, -0.6586914, -30.2439022, -101.5243912, 35.4878044, -0.04448
-0.5483398, -0.3071289, -0.6132812, -29.3902454, -99.8170776, 34.5731697, -0.0409552
-0.5629883, -0.2734375, -0.5908203, -29.8780499, -97.4390259, 32.5609779, -0.0397803
-0.5976562, -0.2250977, -0.5693359, -31.1585369, -97.6219559, 31.7073174, -0.0448157
-0.6176758, -0.2133789, -0.5893555, -34.8170738, -99.146347, 31.1585369, -0.0491798
-0.6518555, -0.2177734, -0.6674805, -37.1951218, -100.6707306, 31.5243912, -0.0481727
-0.6469727, -0.2338867, -0.703125, -41.0365868, -103.9634171, 34.3292694, -0.0391089
-0.5957031, -0.2788086, -0.7270508, -41.0975609, -104.146347, 36.4634171, -0.0317235
-0.5581055, -0.296875, -0.7128906, -39.8170738, -102.9878082, 36.341465, -0.0216526
-0.5161133, -0.2958984, -0.65625, -38.0487823, -98.3536606, 34.4512215, -0.0135958
-0.5405273, -0.2519531, -0.6303711, -38.4756088, -96.2195129, 33.4756088, 0.002182
-0.5737305, -0.2182617, -0.6318359, -42.8048782, -94.2682953, 32.5609779, 0.01561
-0.6308594, -0.1967773, -0.6293945, -45.4878044, -94.6341476, 32.5, 0.0193027
-0.6425781, -0.2006836, -0.609375, -49.2073174, -97.1951218, 32.8048782, 0.0213169
-0.6391602, -0.237793, -0.5629883, -49.7560997, -97.9268341, 32.4390259, 0.0209812
-0.6279297, -0.2626953, -0.5512695, -48.9634171, -97.5609741, 32.3780479, 0.0213169
-0.628418, -0.3037109, -0.5649414, -48.0487823, -96.2804871, 32.8658562, 0.0206455
-0.6269531, -0.3076172, -0.5888672, -47.5, -94.3902435, 34.0853653, 0.0152743
-0.6298828, -0.2895508, -0.6567383, -47.8658562, -93.1097565, 33.841465, 0.0078889
-0.6206055, -0.2802734, -0.6796875, -48.1707344, -93.1097565, 33.4756088, 0.0065461
-0.6113281, -0.2890625, -0.6606445, -47.4390259, -92.8048782, 31.341465, -0.002182
-0.5981445, -0.2954102, -0.6020508, -46.4024391, -92.4390259, 30.3658543, -0.0109102
-0.6020508, -0.2954102, -0.5708008, -44.5121956, -89.7560959, 29.6951218, -0.0203098
-0.6259766, -0.2836914, -0.5375977, -43.841465, -88.4146347, 29.5731716, -0.0297093
-0.6450195, -0.2807617, -0.5336914, -43.0487823, -86.4634171, 29.6341476, -0.0350805
-0.6806641, -0.2573242, -0.5292969, -42.8658562, -86.2195129, 29.6341476, -0.0377661
-0.6870117, -0.2539062, -0.5253906, -42.0121956, -86.9512253, 29.2682934, -0.0414588
-0.6811523, -0.246582, -0.5258789, -40.5487823, -87.1341476, 28.4146347, -0.0491798
-0.6791992, -0.2509766, -0.5439453, -40.4878044, -87.3780518, 28.0487804, -0.0552224
-0.6767578, -0.2729492, -0.5966797, -39.7560997, -87.9268341, 28.1707325, -0.056733
-0.6445312, -0.2973633, -0.6591797, -38.841465, -88.0487823, 28.9024391, -0.0562295
-0.6289062, -0.3071289, -0.6791992, -36.7682953, -87.7439041, 29.5731716, -0.0582437
-0.5878906, -0.3051758, -0.6723633, -35.4878044, -86.3414688, 29.5731716, -0.0525368
-0.5800781, -0.2983398, -0.6411133, -32.5609779, -83.2926865, 27.8048782, -0.04448
-0.5917969, -0.2626953, -0.5585938, -31.341465, -81.7682953, 26.4634151, -0.0384375
-0.6152344, -0.2509766, -0.5263672, -29.8170738, -79.6341476, 24.6951218, -0.036759
-0.668457, -0.2392578, -0.5073242, -29.6341476, -79.4512177, 24.5731716, -0.0327306
-0.6938477, -0.2446289, -0.5126953, -30.060976, -80.4878082, 25.3658543, -0.0276951
-0.6992188, -0.2626953, -0.5234375, -28.3536587, -81.7682953, 27.0121956, -0.0271916
-0.6914062, -0.2739258, -0.519043, -26.5243912, -81.5243912, 27.0731716, -0.0297093
-0.6640625, -0.2807617, -0.5009766, -22.439024, -78.9634171, 26.4634151, -0.0290379
-0.6503906, -0.2670898, -0.4892578, -21.0365868, -77.2560959, 25.5487804, -0.0276951
-0.6538086, -0.2578125, -0.4970703, -20.3048782, -75, 24.2682934, -0.0273594
-0.6655273, -0.237793, -0.5385742, -21.1585369, -74.3902435, 24.0243912, -0.0297093
-0.6665039, -0.2265625, -0.5693359, -24.0243912, -74.2073212, 24.2073174, -0.0290379
-0.6601562, -0.2192383, -0.6088867, -25.3658543, -73.9634171, 24.3292694, -0.0246738
-0.6445312, -0.2197266, -0.6098633, -26.6463413, -72.5609741, 23.4756107, -0.0226596
-0.6264648, -0.2329102, -0.5942383, -26.8292694, -72.0121994, 23.3536587, -0.0263523
-0.6166992, -0.2421875, -0.5883789, -27.8048782, -70.3658524, 22.6219521, -0.0370947
-0.6220703, -0.2480469, -0.5688477, -29.2682934, -69.2073212, 23.2317085, -0.0438087
-0.621582, -0.2519531, -0.5498047, -30, -68.2926865, 22.9268303, -0.0555581
-0.6259766, -0.2363281, -0.5078125, -31.280489, -66.8902435, 21.5853672, -0.0639506
-0.6601562, -0.2285156, -0.4804688, -31.6463413, -66.1585388, 20.8536587, -0.0619364
-0.6772461, -0.2314453, -0.4677734, -33.9634171, -66.1585388, 20.4268303, -0.0656291
-0.6962891, -0.237793, -0.4272461, -34.5121956, -66.2804871, 20.5487804, -0.0626078
-0.6933594, -0.2368164, -0.4003906, -34.5731697, -67.0731735, 19.939024, -0.0616007
-0.6889648, -0.2368164, -0.3549805, -34.1463432, -66.7682953, 19.5121956, -0.0652934
-0.6953125, -0.2431641, -0.3476562, -33.7195129, -67.1951218, 18.2926826, -0.0575723
-0.7094727, -0.2485352, -0.3657227, -33.3536606, -67.3780518, 18.6585369, -0.0495155
-0.7060547, -0.2587891, -0.3828125, -32.1951218, -67.5, 19.6951218, -0.0491798
-0.7026367, -0.2568359, -0.4370117, -29.2073174, -66.2804871, 19.6341476, -0.0466621
-0.6938477, -0.2475586, -0.4775391, -28.5975609, -64.5731735, 19.3292694, -0.040116
-0.6860352, -0.2246094, -0.5512695, -28.4756107, -61.1585388, 18.1707325, -0.0270237
-0.6606445, -0.2216797, -0.53125, -29.0243912, -59.5731735, 17.6829281, -0.018967
-0.6469727, -0.2231445, -0.4814453, -29.0243912, -57.5609779, 15.1829271, -0.005539
-0.6420898, -0.230957, -0.3652344, -28.5975609, -56.6463432, 13.4756098, 0.0072175
-0.6586914, -0.2250977, -0.3339844, -27.5, -55.6097565, 10.6097565, 0.0142672
-0.730957, -0.2177734, -0.3461914, -27.2560978, -55.2439041, 10, 0.0253452
-0.7558594, -0.21875, -0.3808594, -28.2317085, -55.6097565, 11.7682934, 0.0347448
-0.7485352, -0.2216797, -0.4433594, -28.5365868, -55.9146347, 12.6829271, 0.040116
-0.7285156, -0.2255859, -0.4584961, -28.1707325, -54.6951218, 13.6585369, 0.0481727
-0.6845703, -0.2280273, -0.4355469, -26.1585369, -51.5243912, 12.4390249, 0.0448157
-0.675293, -0.2299805, -0.4067383, -25.2439022, -49.6951218, 10.9756098, 0.0424659
-0.6821289, -0.2148438, -0.3569336, -24.6341476, -47.2560997, 8.9634151, 0.0377661
-0.7089844, -0.206543, -0.3603516, -24.6951218, -47.3170738, 8.4756098, 0.0370947
-0.7231445, -0.2050781, -0.3754883, -26.4634151, -48.7804871, 9.3292685, 0.0287022
-0.7431641, -0.2163086, -0.3920898, -26.5853672, -48.7195129, 10.1829271, 0.0159457
-0.7314453, -0.2158203, -0.387207, -24.6341476, -47.6829262, 11.4024391, 0.0048676
-0.7143555, -0.2011719, -0.3969727, -23.2926826, -46.8292694, 11.0975609, -0.0119173
-0.715332, -0.190918, -0.4086914, -21.3414631, -43.7195129, 10.6707315, -0.0182956
-0.7260742, -0.1772461, -0.3984375, -21.4634151, -42.2560997, 10.4878054, -0.0236667
-0.7333984, -0.1782227, -0.3798828, -22.9268303, -41.0975609, 10.2439022, -0.0404517
-0.7451172, -0.1801758, -0.3422852, -23.4756107, -40.7926826, 9.2682924, -0.0574044
-0.7558594, -0.1743164, -0.340332, -23.3536587, -41.0365868, 9.0243902, -0.0793927
-0.7734375, -0.1704102, -0.3662109, -23.1097565, -40.4878044, 9.3902445, -0.0961776
-0.7734375, -0.1640625, -0.418457, -23.1097565, -40.2439041, 10.060976, -0.0981918
-0.7602539, -0.1557617, -0.4335938, -23.9634151, -37.8658562, 11.7682934, -0.0978561
-0.7441406, -0.1694336, -0.4121094, -23.7195129, -36.7073174, 12.3780489, -0.0896315
-0.7373047, -0.1708984, -0.3916016, -22.3780499, -34.1463432, 12.1951218, -0.0802319
-0.7529297, -0.1601562, -0.3588867, -21.8292694, -32.8658562, 12.2560978, -0.0696574
-0.7695312, -0.1572266, -0.3579102, -21.4634151, -30.7317085, 12.9268293, -0.0622721
-0.7944336, -0.1557617, -0.362793, -22.1341476, -29.8170738, 13.3536587, -0.0557259
-0.7993164, -0.159668, -0.3710938, -22.9268303, -29.9390259, 14.2073174, -0.0438087
-0.7875977, -0.1625977, -0.3808594, -23.2317085, -29.2073174, 14.5121956, -0.0287022
-0.7573242, -0.1650391, -0.3886719, -23.5365868, -27.9878063, 14.1463413, -0.0115816
-0.7480469, -0.1650391, -0.4755859, -28.5365868, -27.1341476, 15.6097565, 0.0058747
-0.784668, -0.2460938, -0.3422852, -33.1097565, -26.4024391, 17.7439022, 0.0199741
-0.7597656, -0.2661133, -0.2397461, -27.560976, -27.5, 15.3048782, 0.033402
-0.7802734, -0.2504883, -0.2070312, -20.060976, -26.8292694, 12.1951218, 0.0459907
-0.8085938, -0.2329102, -0.2578125, -11.1585369, -23.3536587, 8.4146347, 0.0555581
-0.8349609, -0.2158203, -0.3696289, -11.5853662, -22.6829281, 8.780488, 0.0569009
-0.8203125, -0.2128906, -0.4003906, -17.6829281, -22.6219521, 9.6951218, 0.0542153
-0.7807617, -0.2421875, -0.3955078, -19.2682934, -22.6219521, 9.3902445, 0.0486763
-0.7602539, -0.2475586, -0.362793, -17.1341476, -21.1585369, 7.3780489, 0.0431373
-0.7172852, -0.2104492, -0.3032227, -12.8658543, -15.7317076, 3.1097562, 0.0433051
-0.7255859, -0.1787109, -0.2895508, -12.3780489, -13.6585369, 0.6097561, 0.0360876
-0.7788086, -0.1499023, -0.2900391, -15.1829271, -13.0487804, -1.5243902, 0.0287022
-0.8085938, -0.1625977, -0.269043, -16.3414631, -14.3292685, -1.7682927, 0.0263523
-0.8007812, -0.1782227, -0.2543945, -16.6463413, -15.4268293, -1.2804878, 0.0213169
-0.7944336, -0.2045898, -0.2558594, -15.5487804, -14.7560978, -1.7682927, 0.0142672
-0.793457, -0.2070312, -0.2807617, -13.1097565, -12.3170738, -1.7682927, 0.0045319
-0.7973633, -0.1977539, -0.3481445, -12.4390249, -10.8536587, -1.5243902, -0.0015106
-0.7890625, -0.1850586, -0.3730469, -12.4390249, -8.719512, -1.0365853, -0.0075532
-0.769043, -0.1552734, -0.3999023, -12.1951218, -7.8658538, -1.0365853, -0.0184634
-0.7583008, -0.1328125, -0.4130859, -12.3170738, -4.6341462, -1.3414634, -0.0246738
-0.7617188, -0.0957031, -0.4389648, -14.0853662, -1.402439, -2.2560976, -0.0313878
-0.7651367, -0.09375, -0.4316406, -15.3048782, 0, -2.4390244, -0.0364233
-0.7680664, -0.1196289, -0.3735352, -16.5853653, 0.7926829, -2.6829269, -0.0370947
-0.7578125, -0.1572266, -0.2998047, -16.1585369, 1.0365853, -2.8658538, -0.0360876
-0.7592773, -0.1733398, -0.2900391, -15.1219511, 2.2560976, -3.2926829, -0.040116
-0.7832031, -0.1928711, -0.3105469, -15, 3.0487804, -3.0487804, -0.0404517
-0.796875, -0.1958008, -0.331543, -15, 4.9390244, -1.9512196, -0.0381018
-0.7978516, -0.1933594, -0.3417969, -14.2073174, 5.4268293, -2.1341465, -0.0464942
-0.7900391, -0.1870117, -0.3349609, -12.4390249, 7.7439027, -2.8658538, -0.0565652
-0.7871094, -0.1577148, -0.3154297, -11.4634151, 9.1463413, -3.6585367, -0.0703288
-0.7963867, -0.1381836, -0.3149414, -11.0975609, 11.6463413, -5.2439027, -0.0854353
-0.8085938, -0.1240234, -0.3149414, -13.0487804, 12.0121956, -6.1585369, -0.0928206
-0.8085938, -0.1333008, -0.3188477, -13.841464, 11.5853662, -6.280488, -0.0914778
-0.7905273, -0.168457, -0.3530273, -15, 11.6463413, -5.7926831, -0.0908064
-0.7636719, -0.2167969, -0.3779297, -15.1829271, 12.0121956, -5.1219511, -0.0965133
-0.746582, -0.2275391, -0.3793945, -12.8658543, 13.780488, -4.5731707, -0.0983597
-0.7314453, -0.2192383, -0.3574219, -11.0975609, 15.3048782, -4.7560978, -0.0941634
-0.7353516, -0.2041016, -0.3413086, -8.4146347, 18.9024391, -6.890244, -0.0909743
-0.7724609, -0.1772461, -0.3491211, -8.4756098, 20.1219521, -7.7439027, -0.0871138
-0.7919922, -0.1645508, -0.3691406, -10.6707315, 20.7926826, -8.2317076, -0.0864424
-0.7983398, -0.1567383, -0.40625, -12.1951218, 20.7926826, -7.2560978, -0.0829175
-0.7900391, -0.1503906, -0.4082031, -13.9024391, 22.3780499, -7.3780489, -0.0807355
-0.7543945, -0.1401367, -0.3803711, -13.3536587, 25, -8.3536587, -0.0733501
-0.7441406, -0.1308594, -0.3759766, -12.9268293, 26.4634151, -9.4512196, -0.0659648
-0.7456055, -0.128418, -0.3994141, -14.3292685, 27.8658543, -9.6341467, -0.0575723
-0.7519531, -0.1567383, -0.4194336, -15.3048782, 28.4146347, -9.1463413, -0.0461585
-0.7504883, -0.1796875, -0.4042969, -15.7926836, 28.0487804, -7.6829271, -0.0307164
-0.7319336, -0.2163086, -0.3442383, -13.9634151, 27.8658543, -7.9268293, -0.0119173
-0.7314453, -0.2207031, -0.3261719, -9.7560978, 30.4268303, -9.6341467, 0.0112459
-0.7553711, -0.2070312, -0.3491211, -8.6585369, 32.0121956, -10.3658543, 0.0424659
-0.7680664, -0.1953125, -0.3710938, -9.0853662, 34.4512215, -10.3658543, 0.0710002
-0.7724609, -0.1577148, -0.4228516, -10.3048782, 34.9390259, -10.6707315, 0.0971847
-0.7739258, -0.1455078, -0.4458008, -12.1951218, 35.4878044, -10.7317076, 0.1119554
-0.7314453, -0.1279297, -0.4711914, -13.0487804, 37.1951218, -11.341464, 0.1190051
-0.7158203, -0.1308594, -0.4760742, -13.3536587, 38.4756088, -12.0731707, 0.121355
-0.6948242, -0.1450195, -0.4702148, -14.2682934, 40.6707344, -12.8658543, 0.1173266
-0.6928711, -0.1821289, -0.4624023, -14.9390249, 41.5243912, -13.2317076, 0.1059129
-0.6860352, -0.2006836, -0.4550781, -15.6097565, 42.5609779, -13.5365858, 0.0797284
-0.6962891, -0.2163086, -0.4609375, -15.9146347, 43.3536606, -13.7195129, 0.0542153
-0.7045898, -0.2172852, -0.4580078, -16.4634151, 45.4878044, -14.2682934, 0.0320592
-0.7114258, -0.215332, -0.4448242, -16.4024391, 46.7682953, -14.6341467, 0.0099031
-0.7138672, -0.2060547, -0.4291992, -15.4268293, 48.1707344, -14.9390249, -0.0099031
-0.7143555, -0.1777344, -0.4145508, -15.2439032, 49.4512215, -15.2439032, -0.0265202
-0.7216797, -0.1552734, -0.4248047, -15.4268293, 51.7073174, -16.5853653, -0.0323949
-0.7265625, -0.1333008, -0.4594727, -17.439024, 53.1707344, -17.2560978, -0.0399481
-0.7241211, -0.1308594, -0.4741211, -18.7195129, 53.3536606, -17.1951218, -0.0428016
-0.7080078, -0.1489258, -0.4785156, -20.5487804, 53.4146347, -17.9268303, -0.0528725
-0.6782227, -0.1669922, -0.4458008, -20.3658543, 53.9634171, -18.4146347, -0.0575723
-0.6782227, -0.1762695, -0.4360352, -19.8780499, 55.9146347, -19.4512196, -0.0706645
-0.6796875, -0.2075195, -0.4262695, -19.3292694, 56.5853653, -19.8170738, -0.0814069
-0.684082, -0.2163086, -0.4257812, -19.5121956, 57.5, -20.3048782, -0.0810712
-0.6845703, -0.2294922, -0.4311523, -19.0243912, 57.7439041, -20.3658543, -0.0807355
-0.6831055, -0.2299805, -0.4375, -18.0487804, 58.4146347, -21.4024391, -0.0800641
-0.6757812, -0.2216797, -0.4438477, -17.1951218, 58.841465, -22.0731716, -0.0800641
-0.6704102, -0.2167969, -0.4506836, -15.5487804, 60.6707344, -23.5365868, -0.0730144
-0.6713867, -0.203125, -0.4731445, -14.2073174, 62.1341476, -24.6341476, -0.0746929
-0.6728516, -0.2016602, -0.4868164, -14.1463413, 62.6219521, -25.1829281, -0.0704967
-0.6767578, -0.1977539, -0.4941406, -14.0243902, 63.5365868, -26.3414631, -0.0595865
-0.6704102, -0.2011719, -0.46875, -13.5975609, 64.0243912, -26.8292694, -0.0458228
-0.6635742, -0.2060547, -0.465332, -11.7682934, 64.8780518, -27.9268303, -0.0283665
-0.6655273, -0.2128906, -0.4790039, -10.9146347, 65.3048782, -28.2317085, -0.008896
-0.6689453, -0.2143555, -0.5048828, -9.6341467, 65.4878082, -27.6219521, 0.0078889
-0.6542969, -0.2275391, -0.5708008, -9.2682924, 65.9146347, -26.6463413, 0.0213169
-0.6425781, -0.2241211, -0.6040039, -9.3292685, 67.4390259, -25.3048782, 0.0260166
-0.6269531, -0.2114258, -0.6469727, -8.780488, 68.4756088, -25.4268303, 0.0213169
-0.6245117, -0.1928711, -0.6416016, -7.9878049, 71.4634171, -26.3414631, 0.0172885
-0.6245117, -0.159668, -0.5766602, -7.1951222, 74.9390259, -28.4756107, 0.0025177
-0.6347656, -0.1499023, -0.5336914, -6.8292685, 75.7926865, -28.841465, -0.0099031
-0.6464844, -0.1420898, -0.484375, -7.8658538, 75.9146347, -29.3902454, -0.0149386
-0.668457, -0.1567383, -0.5117188, -9.3902445, 75.7317123, -29.0853672, -0.0169528
-0.6694336, -0.1665039, -0.5292969, -12.9268293, 75.18293, -27.5, -0.0129244
-0.6611328, -0.1899414, -0.5380859, -14.0243902, 75.1219559, -27.1341476, -0.0015106
-0.6484375, -0.1948242, -0.5283203, -14.6951227, 75.6097565, -27.3780499, 0.0078889
-0.6313477, -0.1831055, -0.515625, -14.0853662, 76.4634171, -28.1707325, 0.0231632
-0.6352539, -0.1689453, -0.5200195, -14.5731707, 78.6585388, -28.9024391, 0.0258488
-0.6489258, -0.1455078, -0.5400391, -15.7926836, 79.3902435, -29.2073174, 0.0276951
-0.6459961, -0.1386719, -0.543457, -18.7195129, 79.2073212, -28.841465, 0.0223239
-0.6289062, -0.1474609, -0.519043, -20.6707325, 77.9268341, -29.6341476, 0.0159457
-0.6098633, -0.1645508, -0.4765625, -20.5487804, 77.5609741, -30.4268303, 0.0152743
-0.6020508, -0.1694336, -0.4731445, -20.5487804, 77.4390259, -32.0121956, 0.0132601
-0.6035156, -0.1772461, -0.5351562, -21.0365868, 77.9268341, -32.1951218, 0.0105745
-0.6098633, -0.1826172, -0.5712891, -22.9268303, 78.1097565, -31.341465, 0.0031891
-0.6137695, -0.2050781, -0.5917969, -23.4146347, 77.8658524, -30.9756107, -0.005539
-0.6005859, -0.2172852, -0.5703125, -22.7439022, 76.7073212, -31.0365868, -0.0124208
-0.5693359, -0.2119141, -0.5390625, -21.2195129, 76.7073212, -32.1341476, -0.0172885
-0.5683594, -0.2060547, -0.5380859, -18.4756107, 78.4756088, -34.0853653, -0.0219883
-0.5874023, -0.1884766, -0.5703125, -19.3292694, 80, -34.8170738, -0.0283665
-0.5986328, -0.1870117, -0.5874023, -20.3658543, 79.7560959, -34.5731697, -0.0323949
-0.5942383, -0.2041016, -0.5839844, -21.9512196, 78.1097565, -34.0853653, -0.0381018
-0.5830078, -0.2226562, -0.5639648, -20.9146347, 77.1341476, -33.9024391, -0.0406195
-0.5766602, -0.230957, -0.5678711, -17.1951218, 76.7682953, -33.841465, -0.0399481
-0.565918, -0.2553711, -0.6171875, -14.8780489, 77.3170776, -33.3536606, -0.0431373
-0.5688477, -0.2612305, -0.6606445, -11.5243902, 80.18293, -31.341465, -0.0498512
-0.5625, -0.2719727, -0.7519531, -11.0975609, 81.4024429, -30, -0.0569009
-0.5498047, -0.2729492, -0.7719727, -11.341464, 84.0243912, -29.0853672, -0.0673075
-0.5078125, -0.2827148, -0.7348633, -10.6707315, 85.0609741, -29.5731716, -0.0699931
-0.487793, -0.2797852, -0.6918945, -7.6219516, 87.0121994, -32.5609779, -0.0713359
-0.4819336, -0.2539062, -0.6201172, -4.5731707, 90, -35.9756088, -0.0659648
-0.4956055, -0.234375, -0.6123047, -4.1463413, 91.5243912, -36.4634171, -0.0609293
-0.5488281, -0.2060547, -0.6523438, -6.890244, 93.1097565, -35.3048782, -0.0585794
-0.5776367, -0.1918945, -0.6972656, -9.2073174, 92.9878082, -34.2682953, -0.057908
-0.5615234, -0.1992188, -0.7036133, -13.7195129, 91.4024429, -33.2317085, -0.0518654
-0.527832, -0.2143555, -0.7158203, -14.5121956, 90.2439041, -33.4756088, -0.0471656
-0.5131836, -0.2216797, -0.7319336, -15.3048782, 89.8780518, -35.3048782, -0.0424659
-0.5014648, -0.2197266, -0.7407227, -15.7317076, 90.4268341, -35.8536606, -0.0317235
-0.487793, -0.2207031, -0.7250977, -17.3780499, 92.5, -36.0975609, -0.0219883
-0.4648438, -0.2124023, -0.6855469, -17.9268303, 93.7195129, -36.7073174, -0.0182956
-0.4628906, -0.2094727, -0.6787109, -19.4512196, 94.146347, -38.9024391, -0.0125887
-0.4858398, -0.2045898, -0.7177734, -22.3170738, 93.2926865, -39.0853653, -0.0060426
-0.5048828, -0.2119141, -0.7329102, -23.8414631, 92.8048782, -38.2317085, -0.0058747
-0.5126953, -0.2314453, -0.722168, -25.3048782, 91.7682953, -36.2195129, -0.0015106
-0.4897461, -0.262207, -0.6918945, -24.0853672, 91.2804871, -35.6707344, -0.0041962
-0.4750977, -0.2749023, -0.6816406, -20.4268303, 91.2195129, -36.7073174, -0.0095674
-0.4589844, -0.3012695, -0.6894531, -18.4146347, 91.5853653, -37.3170738, -0.0135958
-0.4580078, -0.3183594, -0.690918, -14.9390249, 93.0487823, -37.7439041, -0.008896
-0.4545898, -0.3530273, -0.6821289, -13.9024391, 93.9024429, -37.9268303, -0.0129244
-0.4516602, -0.3642578, -0.6791992, -11.0365858, 95.3048782, -37.1951218, -0.0293736
-0.4682617, -0.355957, -0.684082, -9.3292685, 96.2195129, -37.2560997, -0.0407874
-0.4750977, -0.3413086, -0.6904297, -4.8170733, 98.1707306, -37.3170738, -0.0448157
-0.4848633, -0.300293, -0.6870117, -1.2804878, 100.6707306, -37.7439041, -0.0552224
-0.4829102, -0.2797852, -0.6889648, 0.3048781, 102.0731735, -38.0487823, -0.061265
-0.4814453, -0.2524414, -0.7163086, 0.6707317, 103.8414688, -38.9634171, -0.0673075
-0.4785156, -0.2333984, -0.7753906, -0.2439024, 104.6341476, -38.9634171, -0.0720073
-0.4697266, -0.2304688, -0.8027344, -5.0609756, 106.2195129, -38.5975609, -0.0803998
-0.4321289, -0.2211914, -0.831543, -7.6219516, 106.4024429, -38.9024391, -0.0908064
-0.4033203, -0.2275391, -0.840332, -11.8292685, 106.646347, -40.0609779, -0.0981918
-0.3574219, -0.2587891, -0.8369141, -13.4756098, 106.4634171, -41.7073174, -0.1038987
-0.3398438, -0.2802734, -0.8237305, -15.5487804, 106.4634171, -43.2317085, -0.1190051
-0.3286133, -0.3237305, -0.7739258, -15.7317076, 107.2561035, -43.5365868, -0.1149767
-0.3339844, -0.3364258, -0.7446289, -14.6341467, 110.9146347, -42.1951218, -0.0921492
-0.375, -0.3149414, -0.7353516, -12.9878054, 115.2439041, -40.3048782, -0.0699931
-0.4082031, -0.2871094, -0.7607422, -12.9878054, 117.0121994, -39.5731735, -0.0451514
-0.4643555, -0.2265625, -0.8530273, -16.7682934, 119.2073212, -37.5609779, -0.0135958
-0.4521484, -0.2070312, -0.9243164, -20.4878044, 119.2682953, -37.0731697, 0.0149386
-0.4155273, -0.2216797, -0.9282227, -27.1341476, 116.4634171, -38.6585388, 0.0354162
-0.3325195, -0.2866211, -0.8652344, -29.2682934, 114.7561035, -40.9146347, 0.0464942
-0.3017578, -0.315918, -0.8149414, -30.2439022, 113.3536606, -45.3048782, 0.0542153
-0.28125, -0.347168, -0.7338867, -29.2682934, 113.7195129, -46.8292694, 0.0595865
-0.2900391, -0.3544922, -0.7124023, -26.7682934, 116.4634171, -47.3170738, 0.0632792
-0.3481445, -0.3515625, -0.7255859, -24.9390259, 118.2317123, -46.6463432, 0.0720073
-0.3735352, -0.3442383, -0.7578125, -21.8292694, 119.9390259, -43.6585388, 0.0770428
-0.4091797, -0.3320312, -0.8735352, -19.3292694, 119.7561035, -41.0365868, 0.072343
-0.4150391, -0.3334961, -0.9433594, -18.6585369, 119.5731735, -40.1829262, 0.0602579
-0.3847656, -0.3408203, -1.0634766, -19.0243912, 119.5731735, -39.3292694, 0.0428016
-0.3144531, -0.3496094, -1.043457, -19.5121956, 120.2439041, -39.8780479, 0.0337377
-0.2719727, -0.3457031, -0.9746094, -19.0853672, 123.5975647, -42.8048782, 0.0250095
-0.2109375, -0.3266602, -0.8041992, -17.6219521, 126.1585388, -45.6097565, 0.0172885
-0.2045898, -0.3071289, -0.7504883, -13.1707315, 130.6097565, -51.5243912, 0.0018463
-0.2543945, -0.300293, -0.7661133, -11.5853662, 131.8902435, -52.8048782, -0.0115816
-0.2895508, -0.3173828, -0.8173828, -11.219512, 130.9756165, -51.7682953, -0.0250095
-0.3178711, -0.3935547, -0.9038086, -11.280488, 129.3292694, -49.5121956, -0.0394446
-0.3115234, -0.4345703, -0.9248047, -8.2926826, 126.1585388, -45.0609779, -0.0485084
-0.2788086, -0.484375, -0.918457, -0.7926829, 126.7682953, -44.5121956, -0.0391089
-0.2646484, -0.480957, -0.9038086, 4.0853658, 129.4512177, -45.3658562, -0.0246738
-0.2744141, -0.4160156, -0.8540039, 10.3048782, 136.5243988, -48.6585388, -0.0077211
-0.2973633, -0.3022461, -0.7895508, 11.4634151, 140.1829376, -50.6707344, 0.0028534
-0.3032227, -0.2397461, -0.7597656, 8.9024391, 143.4756165, -54.8780518, 0.0112459
-0.3330078, -0.1474609, -0.7495117, 6.1585369, 143.2926788, -57.3170738, 0.0140993
-0.3491211, -0.1181641, -0.7807617, -3.4756098, 138.1707306, -59.9390259, 0.0159457
-0.3525391, -0.1176758, -0.9199219, -9.3292685, 134.3292694, -59.6341476, 0.0179599
-0.3344727, -0.1352539, -0.9936523, -21.8902435, 127.0121994, -56.4024391, 0.0102388
-0.2485352, -0.2036133, -1.125, -26.7073174, 124.0853653, -54.0243912, 0.0031891
-0.1855469, -0.2446289, -1.1435547, -32.8658562, 121.3414688, -50.3658562, -0.0011749
-0.0517578, -0.3291016, -1.0742188, -32.1341476, 123.7804871, -51.0365868, -0.0028534
-0.0024414, -0.3632812, -1.0141602, -30.4878063, 127.68293, -52.5609779, 0.002182
0.0058594, -0.3691406, -0.9355469, -26.0365868, 136.5243988, -55.6097565, -0.005539
-0.0839844, -0.3325195, -0.9628906, -25.6707325, 140.6097565, -56.341465, -0.0176242
-0.144043, -0.3183594, -1.0024414, -28.0487804, 144.5121918, -55.7926826, -0.0337377
-0.2260742, -0.3173828, -1.0439453, -30.3048782, 143.5365906, -54.8170738, -0.0448157
-0.2480469, -0.3378906, -1.0366211, -33.4756088, 138.2317047, -53.1707344, -0.0548867
-0.2485352, -0.3808594, -0.9926758, -32.4390259, 134.9390259, -52.9878044, -0.057908
-0.2363281, -0.4047852, -0.9760742, -26.6463413, 132.3170776, -53.3536606, -0.0582437
-0.199707, -0.4399414, -0.9697266, -22.6829281, 132.9878082, -53.6585388, -0.0592508
-0.1728516, -0.4516602, -0.9741211, -14.5121956, 137.1951294, -54.1463432, -0.0592508
-0.1210938, -0.4716797, -0.9814453, -7.5, 140.6097565, -55.5487823, -0.0626078
-0.1035156, -0.4780273, -0.9794922, -5.1829271, 141.4634247, -56.9512215, -0.0676432
-0.1049805, -0.4677734, -0.9951172, -2.5, 141.7682953, -58.5365868, -0.0699931
-0.15625, -0.3920898, -1.0708008, -2.0121951, 142.3780518, -58.0487823, -0.070161
-0.1870117, -0.3359375, -1.1298828, -4.390244, 143.5365906, -54.8780518, -0.0783856
-0.1953125, -0.2285156, -1.1884766, -6.7682929, 144.3292694, -53.5975609, -0.0814069
-0.1586914, -0.199707, -1.1557617, -12.9268293, 143.4756165, -53.5975609, -0.0837568
-0.0605469, -0.1982422, -0.980957, -14.9390249, 142.5, -55.7317085, -0.0827497
-0.0283203, -0.2255859, -0.8754883, -16.1585369, 139.146347, -61.2804909, -0.0787213
-0.0415039, -0.2739258, -0.7294922, -16.5243912, 137.7439117, -62.5609779, -0.0713359
-0.0834961, -0.2832031, -0.7036133, -17.5, 136.646347, -59.2682953, -0.064622
-0.1987305, -0.2661133, -0.7158203, -19.3902435, 137.3170776, -51.5853653, -0.0632792
-0.2373047, -0.246582, -0.7441406, -20.1829281, 137.0121918, -48.2926826, -0.0572366
-0.2729492, -0.2158203, -0.8359375, -21.0975609, 133.0487823, -45.7317085, -0.0417945
-0.2387695, -0.2114258, -0.9501953, -21.280489, 128.9634247, -45.1219521, -0.0270237
-0.1938477, -0.2226562, -1.0043945, -24.0243912, 122.3780518, -44.0243912, -0.0240024
-0.0678711, -0.2587891, -1.1035156, -26.1585369, 119.8780518, -43.4146347, -0.0240024
0.0019531, -0.2783203, -1.1547852, -30.7317085, 117.1341476, -42.0731735, -0.0152743
0.1108398, -0.3139648, -1.2578125, -33.1707306, 116.8292694, -41.5243912, -0.0099031
0.1450195, -0.3266602, -1.2958984, -37.5609779, 117.7439041, -40.6707344, -0.0031891
0.1738281, -0.3481445, -1.2998047, -38.841465, 118.9024429, -39.3902435, -0.0028534
0.1767578, -0.3598633, -1.246582, -38.1707344, 123.4756088, -38.4756088, -0.0015106
0.1645508, -0.387207, -1.0493164, -31.341465, 128.7195129, -39.5121956, -0.0028534
0.1347656, -0.394043, -0.9316406, -26.4634151, 132.0121918, -40.9756088, 0.0008392
0.0292969, -0.40625, -0.7333984, -14.7560978, 135.7926788, -42.9268303, -0.0109102
-0.1035156, -0.3989258, -0.7363281, -10.2439022, 137.0731812, -43.4756126, -0.0263523
-0.1669922, -0.3930664, -0.8364258, -6.0365853, 135.7926788, -42.0121956, -0.0360876
-0.2290039, -0.3950195, -1.1577148, -7.5, 133.0487823, -39.8780479, -0.0384375
-0.2080078, -0.4091797, -1.3154297, -14.0853662, 124.5731735, -34.7560997, -0.0381018
-0.0258789, -0.4609375, -1.4672852, -17.3780499, 120.5487823, -33.5975609, -0.0347448
0.0991211, -0.4921875, -1.4453125, -17.3780499, 115.9756088, -36.2195129, -0.0253452
0.3242188, -0.5249023, -1.2880859, -13.7195129, 116.5853653, -39.3292694, -0.0216526
0.3837891, -0.5083008, -1.2158203, -3.7195122, 124.8170776, -46.2804871, -0.0226596
0.3564453, -0.4086914, -1.1660156, 0.1829268, 138.0487823, -47.7439041, -0.0139315
0.2885742, -0.355957, -1.1762695, -1.5853659, 143.4146423, -46.2804871, -0.0082246
0.1464844, -0.2768555, -1.1542969, -10.7317076, 148.3536682, -41.9512215, -0.0035248
0.0644531, -0.2607422, -0.996582, -14.9390249, 146.8902435, -41.2804871, 0.0010071
0.0375977, -0.2592773, -0.8935547, -19.8780499, 141.4024353, -43.4146347, 0.0043641
-0.0253906, -0.2583008, -0.734375, -20.2439022, 139.0853729, -45.1219521, 0.0092317
-0.0620117, -0.2504883, -0.7001953, -20.4878044, 135.8536682, -45.7317085, 0.0058747
-0.1137695, -0.203125, -0.7119141, -22.3780499, 134.6951294, -44.6951218, 0.0171206
-0.1054688, -0.1777344, -0.7539062, -28.3536587, 131.3414612, -41.4024391, 0.0223239
-0.0322266, -0.1821289, -0.8588867, -31.7073174, 128.0487823, -40.9146347, 0.0354162
0.0205078, -0.2197266, -0.9003906, -38.5975609, 118.4756088, -41.0975609, 0.0438087
0.1484375, -0.3256836, -0.9077148, -41.7073174, 111.0975647, -40.4268303, 0.0397803
0.2119141, -0.3769531, -0.8828125, -40.8536606, 109.7561035, -40, 0.040116
0.2885742, -0.440918, -0.8144531, -35.5487823, 112.9878082, -39.8170738, 0.036759
0.2597656, -0.4067383, -0.8447266, -32.3780479, 117.3780518, -39.6951218, 0.0374304
0.2128906, -0.3735352, -0.9106445, -28.780489, 125.6707382, -38.841465, 0.0394446
0.1469727, -0.300293, -1.1020508, -29.5121956, 128.1707306, -38.1707344, 0.0392767
0.1455078, -0.293457, -1.2026367, -36.341465, 127.68293, -37.1951218, 0.0280308
0.2167969, -0.3339844, -1.3701172, -40.7317085, 124.6341476, -37.6829262, 0.0099031
0.2709961, -0.3852539, -1.4238281, -49.4512215, 117.1951218, -39.8170738, -0.0119173
0.3833008, -0.4902344, -1.4707031, -52.0731735, 114.3902435, -40.8536606, -0.030045
0.4345703, -0.5283203, -1.4555664, -53.0487823, 114.0243912, -42.1951218, -0.0458228
0.5039062, -0.5693359, -1.3588867, -49.1463432, 121.4634171, -44.2682953, -0.064622
0.5092773, -0.5673828, -1.2880859, -46.341465, 126.4024429, -45.8536606, -0.0881209
0.4604492, -0.5302734, -1.1484375, -41.7073174, 135.6707306, -50, -0.1183337
0.3242188, -0.4941406, -1.0751953, -40.6707344, 138.6585388, -51.5243912, -0.1304189
0.2475586, -0.4794922, -1.0610352, -41.4634171, 141.3414612, -51.5853653, -0.1285725
0.1176758, -0.4633789, -1.0458984, -42.7439041, 141.2804871, -50.6707344, -0.139147
0.0859375, -0.4589844, -1.0322266, -43.9024391, 139.8170776, -47.7439041, -0.1549248
0.090332, -0.4345703, -0.9790039, -43.2926826, 138.1707306, -46.7073174, -0.1613031
0.105957, -0.4135742, -0.9658203, -39.3292694, 133.9634247, -47.1951218, -0.1549248
0.140625, -0.3481445, -1.0195312, -37.1341476, 131.646347, -47.3170738, -0.1493858
0.1577148, -0.3081055, -1.0952148, -37.0121956, 127.68293, -46.4634171, -0.1431754
0.2167969, -0.2460938, -1.2666016, -43.841465, 124.2682953, -43.1707344, -0.1270619
0.2739258, -0.237793, -1.3012695, -48.4756126, 122.2561035, -42.1951218, -0.103563
0.4379883, -0.2739258, -1.2338867, -54.6951218, 118.5975647, -42.9878044, -0.0720073
0.5664062, -0.3076172, -1.0639648, -55.0609779, 118.2317123, -44.8170738, -0.0441444
0.581543, -0.3022461, -0.9985352, -52.3780518, 122.9268341, -47.2560997, -0.0137636
0.512207, -0.2270508, -0.9677734, -51.0365868, 127.68293, -47.1341476, 0.0159457
0.4438477, -0.1743164, -1.0014648, -52.1341476, 138.4756165, -43.9024391, 0.0360876
0.3056641, -0.105957, -1.0678711, -54.6951218, 141.8902435, -41.7073174, 0.0468299
0.2670898, -0.1103516, -1.0751953, -61.8292694, 141.5243988, -39.2682953, 0.0495155
0.2373047, -0.2006836, -1.0366211, -63.9024391, 137.9878082, -39.0243912, 0.0654612
0.2426758, -0.2666016, -1.0136719, -62.4390259, 128.7804871, -39.8780479, 0.0938277
0.2768555, -0.3793945, -0.9916992, -55.3048782, 122.86586, -38.841465, 0.1253834
0.3188477, -0.453125, -0.9799805, -50.6097565, 122.4390259, -37.9878044, 0.1555962
0.3510742, -0.4741211, -0.9643555, -41.2804871, 124.8780518, -36.8292694, 0.1782559
0.3994141, -0.4736328, -0.9321289, -36.6463432, 127.2561035, -36.7682953, 0.1928588
0.4140625, -0.4628906, -0.9365234, -28.7195129, 131.8292694, -38.1097565, 0.2002441
0.4282227, -0.421875, -1.0048828, -25.3048782, 133.7195129, -39.0853653, 0.2019226
0.4345703, -0.4121094, -1.0546875, -21.0365868, 135.0609741, -40, 0.199237
0.4765625, -0.4130859, -1.1030273, -20.060976, 134.8780518, -40.1219521, 0.194873
0.5068359, -0.4150391, -1.0849609, -17.2560978, 133.9024353, -40.0609779, 0.1824521
0.5766602, -0.4116211, -0.9570312, -11.0975609, 134.5121918, -42.0731735, 0.1589532
0.6005859, -0.3945312, -0.8720703, -6.7682929, 135.6707306, -43.6585388, 0.1284047
0.5825195, -0.3291016, -0.7392578, 1.4634147, 140.36586, -46.9512215, 0.0911421
0.4594727, -0.2250977, -0.7871094, 3.7195122, 143.3536682, -47.1341476, 0.0428016
0.3828125, -0.1611328, -0.8901367, 2.3780489, 147.2561035, -43.2317085, -0.0065461
0.2841797, -0.0639648, -1.1552734, -1.7682927, 146.4634247, -39.8170738, -0.0508583
0.2978516, -0.0473633, -1.2822266, -13.780488, 140.0609741, -33.7804871, -0.0850996
0.4282227, -0.0717773, -1.4692383, -20.060976, 135.1829224, -32.6829262, -0.1070878
0.5175781, -0.1025391, -1.5288086, -30.2439022, 126.5853653, -34.0243912, -0.1203479
0.6850586, -0.1860352, -1.5258789, -33.6585388, 124.3292694, -35.2439041, -0.1263905
0.7431641, -0.2197266, -1.4633789, -38.6585388, 127.4390259, -36.2804871, -0.1200122
0.7993164, -0.2524414, -1.2314453, -41.1585388, 137.1341553, -37.0121956, -0.1075914
0.7832031, -0.2568359, -1.1142578, -41.7073174, 142.8048859, -37.5, -0.0923171
0.6337891, -0.2524414, -0.9741211, -42.6829262, 151.2195129, -37.6219521, -0.0850996
0.4233398, -0.2543945, -0.9628906, -43.5975609, 153.3536682, -36.4024391, -0.0793927
0.3349609, -0.2602539, -0.9667969, -45.7317085, 151.4634247, -31.5853672, -0.0693217
0.2905273, -0.2866211, -0.9257812, -45.9146347, 148.1097565, -29.6341476, -0.066804
0.3154297, -0.2973633, -0.8798828, -42.6219521, 139.146347, -29.0243912, -0.0599222
0.4130859, -0.2856445, -0.7905273, -39.2682953, 135.1829224, -30.6707325, -0.0505226
0.4663086, -0.2626953, -0.7661133, -31.8902454, 131.1585388, -34.1463432, -0.0384375
0.5327148, -0.1972656, -0.7568359, -29.2682934, 131.4024353, -35.4268303, -0.0204776
0.5546875, -0.1655273, -0.7583008, -28.0487804, 134.5121918, -36.1585388, -0.0097353
0.578125, -0.1162109, -0.7705078, -29.8780499, 136.5243988, -35.1829262, 0.0030213
0.5854492, -0.0996094, -0.7861328, -31.1585369, 136.4024353, -34.9390259, 0.0132601
0.6000977, -0.1201172, -0.8178711, -32.0731697, 133.1707306, -32.9878044, 0.0182956
0.6411133, -0.1777344, -0.8012695, -31.7073174, 131.1585388, -32.3170738, 0.0186313
0.6708984, -0.2128906, -0.7700195, -27.560976, 128.1097565, -31.5243912, 0.0199741
0.7172852, -0.2709961, -0.7104492, -24.1463413, 126.8292694, -32.3170738, 0.0135958
0.7182617, -0.2739258, -0.7192383, -16.7682934, 126.4634171, -33.9634171, -0.0082246
0.6640625, -0.2426758, -0.8339844, -14.2073174, 126.9512253, -34.0853653, -0.0216526
0.6328125, -0.2148438, -0.9150391, -13.7195129, 128.4756165, -31.7073174, -0.0370947
0.6171875, -0.1743164, -1.0219727, -14.4512196, 128.5365906, -30.3048782, -0.0501869
0.6464844, -0.1572266, -1.0273438, -16.5853653, 126.7682953, -30.3658543, -0.0614328
0.7319336, -0.1450195, -0.9941406, -15.7317076, 124.4512253, -34.5731697, -0.068986
0.7592773, -0.1513672, -0.9711914, -14.8170738, 124.0853653, -36.4634171, -0.0793927
0.7563477, -0.1611328, -0.9677734, -14.7560978, 125.4268341, -37.0731697, -0.0862745
0.7084961, -0.1748047, -0.9882812, -15.7926836, 126.8292694, -35.6707344, -0.0874495
0.6943359, -0.184082, -0.9868164, -18.9634151, 128.9634247, -32.6829262, -0.0773785
0.6899414, -0.2211914, -0.934082, -19.7560978, 129.0853729, -31.9512196, -0.0656291
0.7011719, -0.2397461, -0.8999023, -18.5975609, 127.5609818, -33.5365868, -0.0538796
0.6879883, -0.2753906, -0.8881836, -16.7682934, 126.4634171, -34.5121956, -0.0357519
0.6674805, -0.2871094, -0.918457, -13.5365858, 125.7317123, -34.5121956, -0.018967
0.644043, -0.2773438, -1.0488281, -13.1097565, 125.4878082, -32.8658562, -0.0085603
0.6469727, -0.2631836, -1.1279297, -14.9390249, 125.4878082, -28.9024391, -0.002182
0.6987305, -0.234375, -1.21875, -17.9268303, 125.4878082, -26.8902454, 0.0008392
0.7426758, -0.2197266, -1.2216797, -18.6585369, 125.7317123, -27.8048782, -0.0072175
0.8256836, -0.2001953, -1.1635742, -17.9878044, 127.3780518, -31.341465, -0.0260166
0.8388672, -0.1713867, -1.09375, -17.6829281, 128.4756165, -33.1097565, -0.0501869
0.815918, -0.1699219, -1.0751953, -18.7195129, 131.8292694, -34.3902435, -0.0803998
0.7431641, -0.1674805, -1.0566406, -20.7317085, 133.0487823, -33.4756088, -0.111284
0.7080078, -0.1660156, -1.0498047, -26.6463413, 134.4512177, -30.9146347, -0.145861
0.6572266, -0.1811523, -1.0175781, -29.5121956, 134.8170776, -29.7560978, -0.1888304
0.6479492, -0.1777344, -0.984375, -32.3170738, 134.0243988, -28.5365868, -0.2287785
0.6787109, -0.1679688, -0.875, -32.6219521, 134.0243988, -29.1463413, -0.2492561
0.7124023, -0.1669922, -0.8041992, -30.060976, 133.0487823, -32.2560997, -0.2576486
0.7744141, -0.1708984, -0.6474609, -25.7317085, 132.9268341, -36.4024391, -0.2579843
0.7905273, -0.1733398, -0.5712891, -23.780489, 133.1707306, -37.3780479, -0.2502632
0.7900391, -0.1787109, -0.4501953, -20.6097565, 132.86586, -37.5, -0.2378424
0.7529297, -0.1542969, -0.4257812, -19.0853672, 132.6829224, -36.7073174, -0.2255894
0.722168, -0.128418, -0.4545898, -16.4634151, 131.2804871, -33.1097565, -0.2109865
0.684082, -0.0517578, -0.5952148, -15.7317076, 130.1219482, -31.0975609, -0.1794308
0.6845703, -0.0078125, -0.6938477, -15.9756098, 125.7317123, -27.3170738, -0.1361257
0.7724609, 0.0629883, -0.8520508, -16.5853653, 122.0121994, -25.7317085, -0.0770428
0.8515625, 0.0751953, -0.890625, -19.5731716, 113.9024429, -26.0365868, -0.0015106
0.9946289, 0.0332031, -0.8916016, -21.2195129, 110.6707306, -27.2560978, 0.0716716
1.0336914, -0.0058594, -0.8769531, -23.5365868, 107.6219559, -29.5121956, 0.1334401
1.019043, -0.1083984, -0.8486328, -25.3048782, 108.7804871, -27.560976, 0.1782559
0.9746094, -0.15625, -0.84375, -26.3414631, 110.3048782, -25.1219521, 0.2113222
0.8637695, -0.2333984, -0.8251953, -26.8292694, 112.5, -21.9512196, 0.2301213
0.7836914, -0.2763672, -0.7856445, -25.8536587, 112.1951218, -21.4024391, 0.2200504
0.7641602, -0.2861328, -0.7592773, -21.4634151, 110.18293, -22.6829281, 0.1841306
0.7832031, -0.2871094, -0.7177734, -18.2926826, 108.9634171, -23.8414631, 0.1475395
0.8100586, -0.2802734, -0.7045898, -12.1341467, 106.9512253, -27.1951218, 0.111284
0.8813477, -0.2563477, -0.7055664, -9.7560978, 107.2561035, -28.2926826, 0.0803998
0.9111328, -0.2504883, -0.7001953, -6.890244, 107.8048782, -29.9390259, 0.0515297
0.9545898, -0.2324219, -0.6904297, -6.2195125, 108.4146347, -29.8780499, 0.0226596
0.9541016, -0.2275391, -0.6918945, -3.9024391, 108.7195129, -28.6585369, -0.0065461
0.9487305, -0.2158203, -0.746582, -2.0731707, 109.2073212, -26.4024391, -0.030045
0.9394531, -0.21875, -0.7929688, -2.0121951, 109.3902435, -25, -0.0626078
0.9135742, -0.2177734, -0.9472656, -4.6951222, 109.6951218, -21.8292694, -0.1163195
0.8930664, -0.1791992, -1.1601562, -7.4390244, 110.4878082, -19.6951218, -0.1445182
0.8959961, -0.1450195, -1.2592773, -14.3292685, 113.2317123, -14.5121956, -0.142504
0.9545898, -0.0566406, -1.3789062, -18.780489, 114.8170776, -13.841464, -0.1250477
1.0024414, -0.0151367, -1.3891602, -26.5243912, 116.9512253, -17.8658543, -0.1022202
1.0727539, 0.015625, -1.3139648, -30.1829281, 117.86586, -22.0731716, -0.0679789
1.0717773, 0.0043945, -1.2250977, -37.0121956, 120.2439041, -28.841465, -0.0204776
0.996582, -0.0751953, -0.9985352, -40.4268303, 121.8292694, -29.4512196, 0.0219883
0.9291992, -0.1191406, -0.8813477, -45.4878044, 124.2682953, -25.3048782, 0.0555581
0.7700195, -0.1689453, -0.6879883, -47.3780518, 125.7317123, -19.2073174, 0.0666361
0.7163086, -0.1801758, -0.6210938, -46.8292694, 126.0365906, -17.1341476, 0.0710002
0.6591797, -0.1767578, -0.5522461, -44.2682953, 123.9024429, -16.8292694, 0.0814069
0.71875, -0.1796875, -0.5600586, -42.8658562, 121.5243912, -17.9268303, 0.0871138
0.7832031, -0.1972656, -0.5791016, -41.5243912, 114.0243912, -20.6707325, 0.0817426
0.9399414, -0.2431641, -0.6088867, -41.2195129, 110, -21.5853672, 0.0780499
1.0136719, -0.2661133, -0.6074219, -40.2439041, 102.7439041, -22.439024, 0.0582437
1.0942383, -0.2856445, -0.5712891, -38.7804871, 100.4878082, -22.3170738, 0.0381018
1.0991211, -0.2797852, -0.5488281, -33.1707306, 99.5121994, -21.0975609, 0.0226596
1.0390625, -0.2436523, -0.5239258, -29.8780499, 99.6341476, -20.5487804, 0.0078889
0.9887695, -0.2172852, -0.5229492, -24.3902435, 99.5121994, -19.8170738, -0.0109102
0.9121094, -0.1845703, -0.5205078, -20.7926826, 96.9512253, -19.8780499, -0.0199741
0.8969727, -0.1733398, -0.515625, -20.1219521, 94.9390259, -20, -0.0223239
0.9018555, -0.1728516, -0.4833984, -17.6219521, 90.2439041, -21.6463413, -0.0290379
0.9248047, -0.1782227, -0.4936523, -16.2195129, 88.0487823, -22.1951218, -0.0323949
0.9291992, -0.175293, -0.5205078, -13.4756098, 85.7317123, -22.3170738, -0.0417945
0.9418945, -0.175293, -0.5981445, -12.5, 85.18293, -21.6463413, -0.0676432
0.9458008, -0.1757812, -0.6269531, -11.1585369, 84.8780518, -20.5487804, -0.0908064
0.9663086, -0.168457, -0.6640625, -10.2439022, 84.5731735, -20.4878044, -0.1049058
0.980957, -0.1591797, -0.6738281, -8.1707315, 85.4878082, -20.3048782, -0.1042344
0.9858398, -0.1298828, -0.7138672, -7.6219516, 87.4390259, -20, -0.0904707
0.987793, -0.1123047, -0.7368164, -9.5731707, 92.6219559, -18.5975609, -0.0741894
0.9794922, -0.0854492, -0.7788086, -13.5975609, 98.1097565, -17.1951218, -0.0639506
0.9663086, -0.0825195, -0.7900391, -16.2195129, 99.8780518, -16.8902435, -0.0713359
0.9443359, -0.0820312, -0.7905273, -19.939024, 101.5853653, -15.9756098, -0.0877852
0.9316406, -0.0708008, -0.7587891, -21.0365868, 102.8658524, -15.2439032, -0.068986
0.9345703, -0.0654297, -0.7407227, -23.6585369, 107.4390259, -15.060976, -0.033402
0.9267578, -0.0600586, -0.7373047, -25.1829281, 110.6097565, -15, 0.0041962
0.909668, -0.0644531, -0.7578125, -29.9390259, 114.4512253, -13.9634151, 0.0397803
0.8935547, -0.0844727, -0.8310547, -32.6829262, 114.8170776, -13.2317076, 0.0827497
0.8930664, -0.0991211, -0.8745117, -38.4756088, 113.2926865, -12.0121956, 0.117998
0.9257812, -0.1308594, -0.9311523, -41.0365868, 111.646347, -11.4024391, 0.1381399
0.956543, -0.1455078, -0.9272461, -43.5365868, 108.1097565, -11.9512196, 0.1529107
1.003418, -0.1943359, -0.8256836, -42.4390259, 105.9756088, -14.2073174, 0.1673457
1.0131836, -0.2192383, -0.730957, -40.9146347, 105.7926865, -15.4878054, 0.178088
0.965332, -0.2563477, -0.5439453, -36.5853653, 107.0121994, -16.4634151, 0.170367
0.8583984, -0.2509766, -0.40625, -34.6951218, 107.5, -16.0365849, 0.156939
0.8056641, -0.2392578, -0.3725586, -32.8048782, 106.7682953, -14.6951227, 0.1421683
0.7460938, -0.1982422, -0.3657227, -32.8658562, 105.1219559, -14.0243902, 0.1233692
0.7626953, -0.1767578, -0.3681641, -32.8658562, 99.3292694, -13.1707315, 0.0914778
0.8671875, -0.1367188, -0.3862305, -32.1951218, 95.5487823, -13.9634151, 0.0562295
0.9248047, -0.1293945, -0.3964844, -30.4878063, 88.4756088, -16.8292694, 0.0151064
1.0073242, -0.1347656, -0.4135742, -29.2682934, 85.9756088, -17.5, -0.0223239
1.0244141, -0.1435547, -0.4150391, -27.0731716, 81.8292694, -16.4024391, -0.0639506
1.0024414, -0.1572266, -0.3979492, -24.6951218, 78.6585388, -14.3292685, -0.1022202
0.9726562, -0.1713867, -0.3808594, -23.1707325, 76.8902435, -12.9268293, -0.1394827
0.9311523, -0.1762695, -0.3452148, -18.3536587, 73.3536606, -12.1341467, -0.156939
0.9013672, -0.1733398, -0.3364258, -15.7926836, 71.8902435, -12.3170738, -0.1545892
0.9052734, -0.1699219, -0.3427734, -10.7926836, 68.9634171, -12.9878054, -0.1317617
0.9169922, -0.1694336, -0.3666992, -8.719512, 67.68293, -13.5975609, -0.1052415
0.9316406, -0.168457, -0.3857422, -5.8536587, 65.7317123, -14.0853662, -0.0975204
0.9536133, -0.1552734, -0.4379883, -5.3658538, 65.3048782, -13.3536587, -0.1022202
0.9672852, -0.1445312, -0.4663086, -5.0609756, 65.9146347, -11.7073174, -0.1008774
0.9829102, -0.1176758, -0.5200195, -4.9390244, 65.9756088, -10.8536587, -0.0921492
0.9887695, -0.1010742, -0.5522461, -5.670732, 65.7926865, -10.3658543, -0.0861067
1.0039062, -0.0668945, -0.6557617, -10.7317076, 69.5731735, -8.6585369, -0.0834211
1.0058594, -0.0517578, -0.7246094, -15.1219511, 72.3170776, -7.7439027, -0.0862745
0.996582, -0.0424805, -0.7924805, -23.8414631, 73.4146347, -6.0975609, -0.0877852
0.9956055, -0.0649414, -0.7324219, -26.0365868, 72.5609741, -6.1585369, -0.079057
0.9951172, -0.0810547, -0.6835938, -25.3658543, 71.7073212, -7.7439027, -0.0740215
0.9760742, -0.1074219, -0.6074219, -23.6585369, 72.2560959, -8.4756098, -0.0562295
0.9555664, -0.1176758, -0.5869141, -22.2560978, 74.9390259, -8.2926826, -0.0149386
0.9233398, -0.1274414, -0.5776367, -22.9878063, 76.0365906, -7.2560978, 0.033402
0.9179688, -0.1308594, -0.5649414, -26.0975609, 75.3048782, -5.670732, 0.0683146
0.9438477, -0.1225586, -0.5449219, -27.4390259, 74.3902435, -4.8170733, 0.0850996
0.965332, -0.1113281, -0.5488281, -28.2317085, 72.5, -4.6951222, 0.0884565
1, -0.0966797, -0.5786133, -28.5365868, 71.0975647, -5.1829271, 0.0733501
1.0234375, -0.0981445, -0.5869141, -29.3292694, 69.8170776, -5.0609756, 0.0374304
1.0522461, -0.1108398, -0.5649414, -30.3658543, 68.0487823, -5.1829271, 0.0078889
1.0488281, -0.1230469, -0.4912109, -30.8536587, 66.8902435, -5.2439027, -0.0142672
1.0341797, -0.1352539, -0.449707, -30.3048782, 64.9390259, -4.6341462, -0.0344091
0.9975586, -0.1586914, -0.3779297, -29.2682934, 64.2682953, -4.2682929, -0.0616007
0.9755859, -0.1611328, -0.3588867, -27.7439022, 63.4756126, -3.4146342, -0.0864424
0.9633789, -0.1523438, -0.3359375, -26.6463413, 62.8658562, -3.2926829, -0.1015488
0.9628906, -0.1474609, -0.3359375, -25.7926826, 60.9756126, -3.5975611, -0.1109483
0.9907227, -0.1337891, -0.3413086, -25.1829281, 59.2073174, -3.5365853, -0.1119554
1.0014648, -0.1254883, -0.3608398, -23.5975609, 55.5487823, -3.6585367, -0.110277
1.0136719, -0.1303711, -0.4248047, -22.8658543, 51.4024391, -2.3780489, -0.1049058
1.0253906, -0.1376953, -0.4692383, -23.4146347, 49.2682953, -1.7073171, -0.1042344
1.0219727, -0.1391602, -0.4750977, -23.8414631, 46.0365868, -1.402439, -0.0981918
1.027832, -0.1445312, -0.4487305, -23.0487804, 44.5731735, -1.8292683, -0.0852674
1.027832, -0.1469727, -0.4296875, -20.4878044, 42.6219521, -3.2926829, -0.0626078
1.0185547, -0.1489258, -0.4067383, -19.3902435, 41.7073174, -3.6585367, -0.0370947
1.0219727, -0.1459961, -0.4008789, -17.7439022, 40.3048782, -3.4756098, -0.0087282
1.0239258, -0.1411133, -0.4277344, -18.1097565, 40.0609779, -2.9268293, 0.0172885
1.0146484, -0.1269531, -0.4467773, -20.7317085, 39.1463432, -1.3414634, 0.0475013
1.0234375, -0.1079102, -0.4643555, -22.0731716, 36.2804871, -0.3048781, 0.0609293
1.0302734, -0.1069336, -0.4594727, -21.7073174, 34.3292694, -0.3658537, 0.0605936
1.0498047, -0.0966797, -0.4375, -19.6951218, 32.5, -0.9146342, 0.0569009
1.0478516, -0.1049805, -0.4306641, -18.9024391, 31.8902454, -1.0365853, 0.0518654
1.0395508, -0.1113281, -0.4262695, -19.3902435, 30.9756107, -0.2439024, 0.0451514
1.0141602, -0.1235352, -0.4179688, -19.939024, 30.5487804, -0.0609756, 0.0253452
1.012207, -0.1274414, -0.4052734, -21.0975609, 28.4756107, 0.9146342, -0.012253
1.0039062, -0.137207, -0.4077148, -21.0975609, 27.6829281, 0.9146342, -0.0491798
1.0068359, -0.1401367, -0.4179688, -19.939024, 26.1585369, 1.0365853, -0.0928206
1.0161133, -0.1367188, -0.4492188, -19.8170738, 25.1829281, 1.2195122, -0.1562676
1.0268555, -0.1254883, -0.4628906, -19.0853672, 24.5121956, 2.0121951, -0.2150149
1.027832, -0.0957031, -0.4848633, -19.5731716, 23.0487804, 2.3780489, -0.2445563
1.0371094, -0.0825195, -0.480957, -20, 21.9512196, 2.4390244, -0.2458991
1.0424805, -0.0927734, -0.4775391, -20.4878044, 20.1829281, 2.5609756, -0.2364996
1.0336914, -0.1240234, -0.4707031, -20.6097565, 19.2682934, 2.804878, -0.2143435
1.0292969, -0.1357422, -0.4648438, -21.2195129, 18.2317085, 3.5975611, -0.1868162
1.0151367, -0.1445312, -0.456543, -21.3414631, 18.3536587, 3.9024391, -0.163653
1.003418, -0.1342773, -0.4599609, -22.1341476, 19.0853672, 4.6341462, -0.1374685
0.984375, -0.1088867, -0.4550781, -22.9878063, 19.0853672, 4.6951222, -0.1109483
0.984375, -0.1025391, -0.4477539, -23.4146347, 17.6219521, 4.5731707, -0.0896315
0.9838867, -0.1005859, -0.4399414, -23.2317085, 16.6463413, 4.390244, -0.0676432
0.9858398, -0.1103516, -0.4414062, -23.1097565, 14.6341467, 4.5121951, -0.0480049
0.9838867, -0.1328125, -0.4501953, -23.9024391, 12.6829271, 5.7317076, -0.017792
0.9897461, -0.1425781, -0.4472656, -24.3292694, 11.8292685, 5.7926831, 0.0240024
0.9941406, -0.1640625, -0.4291992, -23.5975609, 9.3292685, 5.3658538, 0.0763714
0.9882812, -0.1835938, -0.4057617, -22.5, 8.780488, 5.1219511, 0.1173266
0.9868164, -0.1875, -0.3979492, -20.8536587, 7.3170733, 4.8780489, 0.1320974
0.9765625, -0.175293, -0.3955078, -20.1829281, 7.3170733, 5.1829271, 0.1327687
0.9672852, -0.1582031, -0.4008789, -20.3658543, 6.5853658, 5.8536587, 0.1451896
0.9750977, -0.1259766, -0.3945312, -20.3048782, 5.7317076, 5.8536587, 0.158114
0.9838867, -0.1137695, -0.3984375, -20.1219521, 2.8658538, 5.9146342, 0.1554284
1.0053711, -0.1044922, -0.4042969, -20.1829281, 1.0365853, 5.9756098, 0.1378042
1.0117188, -0.1108398, -0.4121094, -21.1585369, -2.2560976, 6.5243902, 0.1132982
1.0117188, -0.128418, -0.4057617, -22.1341476, -3.8414636, 7.9878049, 0.0938277
1.0053711, -0.1318359, -0.4077148, -22.3780499, -4.2073174, 8.5365858, 0.0622721
0.9829102, -0.1298828, -0.4135742, -22.439024, -5.8536587, 9.5121956, 0.0253452
0.9682617, -0.1259766, -0.4042969, -22.560976, -6.7682929, 9.5731707, 0.0031891
0.9672852, -0.1176758, -0.4042969, -22.1341476, -8.9024391, 9.8170738, 0.0166171
0.9667969, -0.121582, -0.3950195, -22.439024, -10.2439022, 9.7560978, 0.0515297
0.9760742, -0.1269531, -0.3955078, -22.560976, -12.6219511, 10.3658543, 0.079057
0.9814453, -0.1352539, -0.4077148, -22.439024, -13.841464, 10.4878054, 0.0951705
0.9829102, -0.1381836, -0.421875, -22.9268303, -16.1585369, 11.4024391, 0.079057
0.9863281, -0.1489258, -0.4575195, -23.1707325, -17.1951218, 11.9512196, 0.0562295
0.9858398, -0.1538086, -0.4741211, -23.5365868, -19.7560978, 12.4390249, 0.0307164
0.9833984, -0.1489258, -0.4716797, -22.2560978, -22.0731716, 12.9878054, 0.0018463
0.9804688, -0.1469727, -0.4477539, -21.5853672, -22.560976, 13.0487804, -0.0219883
0.9726562, -0.1264648, -0.4072266, -19.4512196, -23.2926826, 12.8048782, -0.0273594
0.9350586, -0.1166992, -0.4033203, -19.3902435, -24.4512196, 13.1097565, -0.0216526
0.9248047, -0.1103516, -0.4130859, -20.7926826, -28.0487804, 14.2682934, -0.0206455
0.9370117, -0.1074219, -0.4316406, -21.9512196, -29.8170738, 14.9390249, -0.0115816
0.9550781, -0.1157227, -0.4375, -23.4146347, -33.9024391, 15.7317076, 0.0146029
0.9833984, -0.1298828, -0.4614258, -23.6585369, -35.4878044, 15.9146347, 0.043473
0.9990234, -0.1425781, -0.4794922, -23.6585369, -37.9268303, 16.0975609, 0.0624399
1.0249023, -0.1713867, -0.5004883, -23.9024391, -38.9634171, 16.3414631, 0.0642863
1.027832, -0.1884766, -0.4951172, -24.3902435, -40.8536606, 16.7073174, 0.0582437
1.0449219, -0.2250977, -0.4438477, -23.0487804, -42.6219521, 16.1585369, 0.0364233
1.0375977, -0.2324219, -0.4023438, -21.5853672, -43.2317085, 16.0975609, 0.0025177
0.996582, -0.2089844, -0.3198242, -18.2317085, -43.841465, 16.7682934, -0.0287022
0.9453125, -0.1748047, -0.3125, -16.9512196, -44.0853653, 17.3170738, -0.0605936
0.9228516, -0.1489258, -0.3476562, -17.0121956, -47.2560997, 18.780489, -0.0944991
0.9243164, -0.109375, -0.440918, -18.1707325, -49.4512215, 19.6341476, -0.1156481
0.956543, -0.1005859, -0.4780273, -21.6463413, -54.0243912, 21.280489, -0.1413291
1.0336914, -0.0996094, -0.515625, -22.2560978, -56.1585388, 21.5243912, -0.1654994
1.0620117, -0.1049805, -0.5229492, -22.0121956, -58.9634171, 20.9146347, -0.1868162
1.0761719, -0.140625, -0.527832, -22.1951218, -59.6341476, 20.9756107, -0.2042725
1.0605469, -0.1552734, -0.5175781, -22.0121956, -59.9390259, 22.0121956, -0.2130007
1.0029297, -0.1767578, -0.5024414, -22.560976, -61.0365868, 24.2682934, -0.2306249
0.9765625, -0.1821289, -0.4995117, -22.1951218, -62.0731735, 25.3048782, -0.2425422
0.940918, -0.1572266, -0.5058594, -21.8902435, -63.0487823, 26.5243912, -0.2244144
0.9404297, -0.125, -0.5307617, -22.0121956, -63.0487823, 26.4024391, -0.1958801
0.9482422, -0.1113281, -0.5532227, -22.7439022, -63.841465, 26.1585369, -0.1686885
0.9746094, -0.1181641, -0.5898438, -23.8414631, -64.8170776, 25.7926826, -0.1540856
0.9902344, -0.1386719, -0.6030273, -26.1585369, -67.2560959, 26.0365868, -0.1339437
1.0058594, -0.175293, -0.5952148, -27.1341476, -67.9878082, 26.1585369, -0.1065843
0.9995117, -0.1845703, -0.574707, -27.0121956, -69.2073212, 27.3780499, -0.0881209
0.9794922, -0.1826172, -0.53125, -25.9756107, -69.0853653, 27.9878063, -0.0817426
0.9692383, -0.1743164, -0.5268555, -23.5365868, -69.0853653, 28.2317085, -0.0944991
0.9594727, -0.1577148, -0.5219727, -23.780489, -69.6951218, 28.5975609, -0.1022202
0.9609375, -0.1557617, -0.5170898, -24.2073174, -70.6707306, 28.5975609, -0.0921492
0.9726562, -0.1606445, -0.4956055, -24.8780499, -73.5975647, 27.8048782, -0.0746929
0.9731445, -0.1679688, -0.5009766, -24.7560978, -74.5121994, 28.0487804, -0.0451514
0.965332, -0.1699219, -0.5214844, -24.3902435, -77.2560959, 28.7195129, 0.0018463
0.9711914, -0.1630859, -0.5678711, -24.2073174, -78.2926865, 29.3902454, 0.0548867
0.9824219, -0.1640625, -0.5839844, -24.3902435, -80.1219559, 30.5487804, 0.0918135
1.0141602, -0.1591797, -0.5947266, -24.2073174, -81.0975647, 30.6707325, 0.1138018
1.0234375, -0.1674805, -0.5952148, -24.0853672, -82.68293, 29.9390259, 0.1435111
1.0219727, -0.1826172, -0.5942383, -23.5365868, -83.7804871, 29.8170738, 0.1740597
1.012207, -0.1894531, -0.6015625, -24.4512196, -85.8536606, 30.8536587, 0.2109865
0.9960938, -0.2075195, -0.6030273, -25.6707325, -87.9268341, 31.6463413, 0.237171
0.9902344, -0.2114258, -0.5981445, -25.8536587, -88.4756088, 31.7682934, 0.2331426
0.9897461, -0.2226562, -0.5869141, -25.2439022, -89.8170776, 31.5243912, 0.2240787
0.9985352, -0.2397461, -0.5708008, -24.2682934, -90.3658524, 31.1585369, 0.1965515
0.9980469, -0.2387695, -0.5698242, -22.9268303, -91.4634171, 30.7926846, 0.1428397
0.9956055, -0.2246094, -0.5742188, -22.3170738, -92.4390259, 30.7926846, 0.0817426
0.9956055, -0.2109375, -0.5644531, -21.8902435, -93.6585388, 31.280489, 0.0246738
0.9980469, -0.1772461, -0.5292969, -21.8902435, -94.3292694, 31.1585369, -0.018967
0.9921875, -0.1713867, -0.5097656, -21.6463413, -96.4024429, 30.9146347, -0.0622721
0.9755859, -0.1645508, -0.5063477, -21.1585369, -97.8048782, 30.7926846, -0.1018845
0.9580078, -0.1674805, -0.5356445, -22.1341476, -101.1585388, 31.5853672, -0.1344472
0.9321289, -0.1816406, -0.6088867, -24.3902435, -104.6951218, 32.6829262, -0.1455253
0.9331055, -0.1875, -0.6386719, -25.4268303, -106.3414688, 33.1707306, -0.1324331
0.9746094, -0.206543, -0.6494141, -25.3658543, -109.2073212, 32.9268303, -0.0995346
1.0175781, -0.2231445, -0.6181641, -24.7560978, -109.5121994, 32.3780479, -0.0703288
1.0273438, -0.2260742, -0.5917969, -22.5, -109.6341476, 31.0975609, -0.043473
1.0112305, -0.2236328, -0.5644531, -21.7073174, -109.3902435, 30.8536587, -0.0256809
0.987793, -0.2197266, -0.5668945, -21.280489, -108.9024429, 30.8536587, -0.005539
0.9604492, -0.2021484, -0.5864258, -21.4634151, -109.6951218, 31.280489, 0.0005035
0.9575195, -0.1987305, -0.6040039, -22.9268303, -112.0731735, 30.5487804, -0.0162814
0.9648438, -0.2099609, -0.6386719, -23.780489, -113.5975647, 30.2439022, -0.0276951
0.9736328, -0.2192383, -0.6552734, -25, -116.7073212, 29.3292694, -0.0206455
0.9853516, -0.2348633, -0.6811523, -24.2682934, -117.8048782, 29.8780499, -0.0062104
0.9936523, -0.2363281, -0.6894531, -23.9634151, -117.6219559, 30.3658543, 0.0129244
1.0039062, -0.2246094, -0.6904297, -22.1341476, -116.3414688, 30.6707325, 0.0293736
1.0097656, -0.2177734, -0.668457, -21.7073174, -116.0975647, 30.7317085, 0.0468299
1.0092773, -0.2143555, -0.6445312, -20.8536587, -116.0975647, 29.7560978, 0.0555581
0.9858398, -0.2280273, -0.6181641, -20.8536587, -116.646347, 29.3292694, 0.0589151
0.9667969, -0.2348633, -0.628418, -21.0365868, -118.6585388, 29.2073174, 0.0589151
0.9223633, -0.2358398, -0.6801758, -21.0365868, -120, 30.060976, 0.0513619
0.9116211, -0.2294922, -0.7133789, -21.1585369, -121.4634171, 32.0121956, 0.0360876
0.9379883, -0.1982422, -0.762207, -20.8536587, -121.5243912, 32.6829262, 0.0287022
0.9624023, -0.1757812, -0.7783203, -20.3048782, -120.9146347, 32.8048782, 0.0065461
1.0107422, -0.1450195, -0.7788086, -20.6097565, -120.6707382, 32.2560997, -0.0062104
1.0219727, -0.1386719, -0.7709961, -21.3414631, -120.6097565, 32.0731697, -0.0068818
1.0102539, -0.1489258, -0.7333984, -22.6219521, -121.5243912, 33.2317085, -0.0065461
0.9672852, -0.1645508, -0.7006836, -23.1707325, -121.8902435, 34.1463432, -0.01561
0.9335938, -0.1694336, -0.7045898, -22.6219521, -122.4390259, 36.0975609, -0.0203098
0.8901367, -0.1586914, -0.7470703, -22.1341476, -122.68293, 36.8292694, -0.0283665
0.8803711, -0.1508789, -0.7666016, -21.8292694, -123.3536606, 38.4146347, -0.0273594
0.9072266, -0.1508789, -0.7832031, -22.1341476, -123.8414688, 38.7804871, -0.0263523
0.9321289, -0.1533203, -0.7841797, -22.3170738, -124.6341476, 38.5975609, -0.023331
0.9750977, -0.175293, -0.7885742, -22.5, -125.0609818, 38.5975609, -0.0243381
0.9887695, -0.1894531, -0.7944336, -23.2317085, -125.18293, 38.5365868, -0.002182
0.9956055, -0.2148438, -0.8012695, -23.9634151, -125.1219559, 39.5121956, 0.0199741
0.9946289, -0.2250977, -0.7919922, -24.0243912, -124.8780518, 39.8170738, 0.0374304
0.9902344, -0.2299805, -0.7543945, -23.3536587, -125.3048782, 40.4268303, 0.0394446
0.9770508, -0.2270508, -0.7167969, -22.7439022, -125.8536606, 40.1829262, 0.0219883
0.965332, -0.2236328, -0.7070312, -21.280489, -126.5853653, 39.8780479, -0.0216526
0.9267578, -0.2167969, -0.7026367, -20.7317085, -126.9512253, 39.5731735, -0.0585794
0.9204102, -0.2158203, -0.7055664, -19.3902435, -127.6219559, 39.8170738, -0.0881209
0.9160156, -0.2133789, -0.7197266, -18.9024391, -128.3536682, 40.0609779, -0.110277
0.9233398, -0.2128906, -0.7348633, -17.439024, -130.1829224, 40.3658562, -0.1310903
0.9306641, -0.2104492, -0.7861328, -17.0121956, -131.0365906, 40.4878044, -0.1505608
0.9350586, -0.2138672, -0.8076172, -17.560976, -132.5, 41.1585388, -0.1646601
0.9360352, -0.2133789, -0.8222656, -18.1707325, -132.6829224, 41.8292694, -0.1794308
0.9301758, -0.2124023, -0.8134766, -18.2317085, -132.7439117, 42.4390259, -0.1978943
0.9116211, -0.1928711, -0.784668, -17.2560978, -132.1951294, 42.0731735, -0.194873
0.8862305, -0.1899414, -0.8178711, -16.8292694, -132.3780518, 41.7682953, -0.1700313
0.8828125, -0.1992188, -0.8339844, -17.439024, -133.1707306, 42.1951218, -0.1263905
0.8803711, -0.2416992, -0.8491211, -18.3536587, -133.8414612, 42.1951218, -0.0679789
0.8901367, -0.2641602, -0.8310547, -19.5121956, -136.4024353, 42.5609779, -0.0164492
0.9052734, -0.2915039, -0.7768555, -18.8414631, -137.0731812, 42.3780479, 0.01561
0.9033203, -0.2832031, -0.7602539, -15.6707325, -137.4390259, 41.9512215, 0.0307164
0.8769531, -0.2485352, -0.7524414, -13.6585369, -136.2195129, 42.0731735, 0.0323949
0.8637695, -0.2250977, -0.7607422, -11.341464, -133.8414612, 42.6829262, -0.0001678
0.8388672, -0.1923828, -0.7802734, -11.5853662, -133.7804871, 42.7439041, -0.0290379
0.831543, -0.1850586, -0.7851562, -12.6829271, -135.0609741, 42.9878044, -0.0310521
0.828125, -0.1845703, -0.8139648, -14.3902445, -138.9024353, 43.0487823, -0.0263523
0.8374023, -0.2099609, -0.8681641, -15.6097565, -140.6707306, 43.2317085, -0.0139315
0.8491211, -0.2285156, -0.8837891, -16.280489, -142.6219482, 44.3292694, -0.0152743
0.8676758, -0.269043, -0.8833008, -16.8292694, -142.9878082, 44.9390259, -0.0260166
0.8774414, -0.2822266, -0.8710938, -15.4268293, -142.7439117, 45.2439041, -0.0370947
0.8637695, -0.2900391, -0.8251953, -14.0853662, -142.3170776, 45.3658562, -0.0414588
0.847168, -0.2797852, -0.8071289, -11.4634151, -140.6707306, 45.1219521, -0.0354162
0.7929688, -0.2431641, -0.7670898, -10.4268293, -139.9390259, 45.1219521, -0.0417945
0.7651367, -0.2163086, -0.7612305, -9.3902445, -138.5975647, 45.9756126, -0.033402
0.7133789, -0.1801758, -0.78125, -10.3048782, -140.4878082, 46.2195129, -0.0095674
0.6967773, -0.1796875, -0.8339844, -12.0731707, -142.9878082, 46.2195129, 0.0287022
0.7070312, -0.1992188, -0.8496094, -15.6097565, -148.2317047, 46.9512215, 0.0736858
0.7519531, -0.2475586, -0.8266602, -16.8292694, -150.1219482, 47.5, 0.0951705
0.7739258, -0.2700195, -0.8041992, -15.6097565, -151.5853729, 47.0121956, 0.0746929
0.7924805, -0.3081055, -0.7827148, -13.7195129, -151.1585388, 46.2804871, 0.0357519
0.784668, -0.3183594, -0.7827148, -9.8170738, -150.1219482, 45.3658562, 0.0008392
0.7475586, -0.3261719, -0.7963867, -8.841464, -149.6951294, 45.7317085, 0.0048676
0.7285156, -0.3208008, -0.7939453, -7.5, -149.0853729, 46.5243912, 0.0256809
0.699707, -0.3051758, -0.7836914, -7.0121951, -149.7561035, 45.9756126, 0.0458228
0.6865234, -0.2890625, -0.7822266, -6.9512196, -150.2439117, 45.4878044, 0.0642863
0.65625, -0.262207, -0.8173828, -7.1341467, -151.646347, 44.1463432, 0.0663005
0.6376953, -0.2451172, -0.8686523, -8.0487804, -152.7439117, 43.7804871, 0.0323949
0.6396484, -0.2456055, -0.8896484, -10.1829271, -154.3292694, 44.3902435, -0.0377661
0.6743164, -0.2651367, -0.90625, -11.5243902, -155.4268341, 44.5121956, -0.1025559
0.6967773, -0.2822266, -0.8964844, -11.9512196, -156.646347, 44.4512215, -0.1750668
0.7246094, -0.3061523, -0.8798828, -11.4634151, -156.646347, 44.2073174, -0.2458991
0.7275391, -0.3071289, -0.8720703, -9.6341467, -155.4268341, 44.1463432, -0.2744335
0.7011719, -0.3071289, -0.8881836, -9.2682924, -154.2682953, 43.5365868, -0.2838331
0.6757812, -0.3041992, -0.909668, -8.6585369, -153.5365906, 43.2926826, -0.2653696
0.6455078, -0.3051758, -0.9541016, -9.5121956, -155.36586, 44.1463432, -0.248249
0.6416016, -0.3120117, -0.9692383, -9.5731707, -156.4634247, 44.6951218, -0.2512703
0.6538086, -0.3320312, -0.9868164, -8.5365858, -158.7195129, 45.4878044, -0.2588235
0.6826172, -0.3530273, -0.9916992, -7.9878049, -159.5121918, 45.4878044, -0.2472419
0.6889648, -0.3603516, -0.9892578, -5.609756, -159.146347, 45, -0.2328069
0.6865234, -0.359375, -1.0004883, -4.3292685, -158.2317047, 45.1829262, -0.2190433
0.6816406, -0.3554688, -1.0078125, -2.9268293, -155.9146423, 45.0609779, -0.1942016
0.6674805, -0.3310547, -1.0341797, -2.9268293, -153.9634247, 44.9390259, -0.1374685
0.6586914, -0.3183594, -1.0449219, -3.8414636, -151.5243988, 44.6951218, -0.0706645
0.6577148, -0.3071289, -1.0654297, -4.7560978, -150.9146423, 44.2682953, 0.0031891
0.6538086, -0.3129883, -1.0639648, -6.6463418, -151.4024353, 43.1707344, 0.0574044
0.6616211, -0.3369141, -1.0380859, -7.0731707, -152.0121918, 42.8658562, 0.1065843
0.659668, -0.3535156, -1.0205078, -7.0121951, -151.9512177, 42.9268303, 0.1455253
0.6494141, -0.3764648, -1.0058594, -5.7926831, -150.6097565, 42.8658562, 0.1401541
0.6259766, -0.3706055, -1.0087891, -5.1219511, -149.3902435, 42.3170738, 0.1055772
0.6230469, -0.3803711, -1.0136719, -4.1463413, -147.7439117, 40.5487823, 0.0965133
0.6108398, -0.4072266, -1.0087891, -3.9634147, -147.5609741, 39.1463432, 0.0884565
0.6142578, -0.4257812, -0.987793, -3.1097562, -148.0487823, 37.7439041, 0.0981918
0.6171875, -0.4399414, -0.909668, -1.9512196, -147.86586, 37.1951218, 0.117998
0.6132812, -0.4316406, -0.8730469, 1.8902439, -145.7317047, 36.0975609, 0.1401541
0.5625, -0.3803711, -0.8354492, 3.7804878, -144.146347, 34.8170738, 0.1589532
0.5224609, -0.3530273, -0.8369141, 6.6463418, -141.8292694, 32.7439041, 0.170367
0.4536133, -0.3232422, -0.8530273, 7.9268293, -143.1707306, 32.7439041, 0.1599603
0.4472656, -0.3300781, -0.8520508, 7.9878049, -144.8780518, 32.9878044, 0.1287404
0.4726562, -0.3647461, -0.8173828, 9.6341467, -148.9024353, 33.5975609, 0.0918135
0.5136719, -0.3955078, -0.8071289, 10.6097565, -149.9390259, 33.6585388, 0.0508583
0.515625, -0.3994141, -0.8339844, 12.5, -149.6951294, 34.0853653, 0.0451514
0.5048828, -0.3828125, -0.9223633, 12.4390249, -149.146347, 34.9390259, 0.0569009
0.4995117, -0.3642578, -0.9643555, 10.6707315, -146.5243988, 37.1951218, 0.0488441
0.5185547, -0.3168945, -1.015625, 9.7560978, -146.0365906, 37.6829262, 0.0354162
0.5327148, -0.2998047, -1.0263672, 8.3536587, -145.5487823, 36.7682953, 0.0209812
0.5556641, -0.2817383, -1.0273438, 7.7439027, -146.1585388, 35.4878044, 0.0139315
0.5561523, -0.2895508, -1.0297852, 6.5853658, -146.9512177, 34.5731697, 0.0169528
0.559082, -0.3261719, -1.0512695, 5.4268293, -147.6219482, 36.0975609, 0.030045
0.5576172, -0.3432617, -1.0629883, 4.8780489, -147.3780518, 37.5, 0.0562295
0.5698242, -0.3798828, -1.0830078, 4.390244, -147.1341553, 39.4512215, 0.1153124
0.5673828, -0.4023438, -1.0703125, 4.7560978, -146.5243988, 39.4512215, 0.2064546
0.5541992, -0.4023438, -1.0541992, 5.9146342, -144.5731812, 38.3536606, 0.2784619
0.527832, -0.3862305, -1.0395508, 6.5243902, -143.1097565, 38.1097565, 0.3482872
0.5092773, -0.3730469, -1.0375977, 6.4634147, -141.3414612, 37.7439041, 0.4117342
0.4921875, -0.3637695, -1.0288086, 6.3414636, -141.0365906, 37.6219521, 0.4523537
0.4946289, -0.3583984, -1.0161133, 5.7926831, -141.3414612, 37.6219521, 0.4543679
0.5053711, -0.3461914, -0.9887695, 6.2195125, -141.2195129, 37.9268303, 0.4295262
0.512207, -0.3344727, -0.9833984, 6.3414636, -140.3048859, 37.6219521, 0.3932708
0.5004883, -0.2963867, -1.0112305, 5.9146342, -139.0243988, 37.2560997, 0.3308309
0.4858398, -0.2773438, -1.034668, 4.5731707, -138.3536682, 37.3170738, 0.2710765
0.4663086, -0.2651367, -1.0698242, 1.5853659, -138.0487823, 38.2926826, 0.2234073
0.4643555, -0.2763672, -1.0673828, -0.4878049, -138.5365906, 38.7195129, 0.1837949
0.4648438, -0.2871094, -1.0454102, -3.4146342, -140.1829376, 39.6951218, 0.1468681
0.472168, -0.3217773, -0.9609375, -3.7804878, -140.5487823, 39.9390259, 0.114641
0.4697266, -0.340332, -0.9023438, -2.7439024, -140.4268341, 38.9024391, 0.085771
0.4321289, -0.3730469, -0.8300781, -1.0365853, -140.36586, 38.1707344, 0.0703288
0.4003906, -0.3759766, -0.831543, 2.5, -140.3048859, 37.0121956, 0.0538796
0.3378906, -0.3754883, -0.8925781, 3.4146342, -140.36586, 37.0731697, 0.0246738
0.3222656, -0.3754883, -0.9262695, 3.8414636, -141.0975647, 38.7804871, -0.0176242
0.3530273, -0.3818359, -0.9570312, 4.2073174, -142.0121918, 39.2682953, -0.0726787
0.3818359, -0.3847656, -0.9550781, 4.9390244, -142.86586, 38.5975609, -0.1284047
0.4404297, -0.3833008, -0.9467773, 6.7073174, -144.0243988, 36.5243912, -0.1599603
0.4477539, -0.3598633, -0.9433594, 7.5, -144.2682953, 35.6707344, -0.1891661
0.4370117, -0.3496094, -0.9487305, 8.0487804, -142.7439117, 34.8170738, -0.2072938
0.4091797, -0.3334961, -0.9702148, 7.9878049, -142.0731812, 34.5121956, -0.2123293
0.3969727, -0.3344727, -0.9907227, 7.3780489, -142.5, 34.2682953, -0.2143435
0.371582, -0.3427734, -1.0288086, 6.4024391, -143.5365906, 34.2682953, -0.2170291
0.3696289, -0.3583984, -1.0327148, 5.2439027, -145.7317047, 35.3048782, -0.2150149
