Application:, Trigno Discover (1.6.5)
Date/Time:, 12/02/2025 17:09:37
Collection Length (seconds):, 39.123
wrist (81457), , , , , , bicep (81139)
sensor mode: 609, , , , , , sensor mode: 40
ACC X (G), ACC Y (G), ACC Z (G), GYRO X (deg/s), GYRO Y (deg/s), GYRO Z (deg/s), EMG 1 (mV)
370.3704 Hz, 370.3704 Hz, 370.3704 Hz, 370.3704 Hz, 370.3704 Hz, 370.3704 Hz, 2148.1481 Hz
0.9228516, -0.2192383, -0.3300781, -0.6707317, -10.1829271, 3.2317073, -0.0421302
0.9350586, -0.2177734, -0.3320312, -1.0365853, -10.5487804, 3.2926829, -0.0431373
0.9521484, -0.2358398, -0.3310547, -1.4634147, -9.6951218, 2.6219513, -0.0397803
0.9575195, -0.2509766, -0.3154297, -1.0365853, -8.1097565, 2.0121951, -0.0374304
0.9492188, -0.2568359, -0.3095703, -0.7926829, -7.6829271, 1.7682927, -0.0386053
0.9311523, -0.262207, -0.2993164, 0.1829268, -6.7073174, 1.0365853, -0.0399481
0.9208984, -0.2602539, -0.2939453, 1.3414634, -6.280488, 0.9756098, -0.0364233
0.8994141, -0.2568359, -0.2792969, 3.5365853, -6.890244, 1.3414634, -0.0357519
0.8930664, -0.2539062, -0.2753906, 4.2682929, -7.0731707, 1.402439, -0.0359197
0.887207, -0.230957, -0.2739258, 6.1585369, -7.8048782, 1.7073171, -0.0350805
0.8862305, -0.2163086, -0.2763672, 6.5243902, -8.0487804, 1.7073171, -0.0360876
0.8916016, -0.199707, -0.2905273, 6.7682929, -8.780488, 1.7682927, -0.0340734
0.8950195, -0.1933594, -0.293457, 6.2195125, -9.0853662, 1.7682927, -0.0344091
0.8994141, -0.1865234, -0.3095703, 4.390244, -10.6097565, 2.0731707, -0.0317235
0.9130859, -0.1933594, -0.3076172, 2.2560976, -11.219512, 1.8902439, -0.0292058
0.918457, -0.2055664, -0.3100586, 1.8292683, -11.280488, 2.4390244, -0.0337377
0.925293, -0.2231445, -0.3173828, 0.7926829, -11.9512196, 3.2317073, -0.0394446
0.9306641, -0.2324219, -0.3173828, 1.1585366, -11.8292685, 3.2317073, -0.043473
0.9267578, -0.2470703, -0.3295898, 2.1341465, -11.9512196, 3.1097562, -0.0480049
0.9262695, -0.2509766, -0.3256836, 2.804878, -11.8292685, 2.9878049, -0.0461585
0.9257812, -0.2607422, -0.3251953, 4.0853658, -11.219512, 2.8658538, -0.0464942
0.9243164, -0.2651367, -0.3242188, 4.8780489, -11.219512, 3.0487804, -0.0424659
0.921875, -0.2612305, -0.3251953, 6.4634147, -10.7926836, 2.5, -0.0381018
0.9174805, -0.2612305, -0.3251953, 7.0731707, -10.4268293, 2.5, -0.0364233
0.9033203, -0.25, -0.3300781, 8.1097565, -10.6097565, 2.9878049, -0.0364233
0.8920898, -0.234375, -0.3452148, 7.8658538, -11.280488, 3.4756098, -0.0327306
0.8950195, -0.2299805, -0.3530273, 7.6829271, -11.7682934, 3.9024391, -0.0258488
0.9023438, -0.21875, -0.3613281, 5.609756, -12.9268293, 4.2682929, -0.0243381
0.9116211, -0.2192383, -0.362793, 4.6341462, -13.841464, 4.5121951, -0.0203098
0.9160156, -0.2265625, -0.3496094, 2.6829269, -14.5731707, 4.8780489, -0.0176242
0.9208984, -0.2270508, -0.3432617, 1.6463414, -14.4512196, 5.3658538, -0.0182956
0.9169922, -0.2231445, -0.3325195, 0.2439024, -13.5975609, 6.0365853, -0.0193027
0.9125977, -0.2202148, -0.3271484, -0.4878049, -13.3536587, 6.1585369, -0.0169528
0.8999023, -0.2084961, -0.3164062, -1.8902439, -13.6585369, 6.890244, -0.0172885
0.8969727, -0.199707, -0.3173828, -2.195122, -14.0853662, 7.3170733, -0.0206455
0.894043, -0.1855469, -0.331543, -3.9024391, -16.4024391, 8.2926826, -0.0229953
0.9082031, -0.1855469, -0.3515625, -6.280488, -18.7195129, 9.2073174, -0.0209812
0.9213867, -0.1870117, -0.3613281, -7.4390244, -19.6341476, 9.6341467, -0.0253452
0.9511719, -0.2060547, -0.3793945, -10.1829271, -21.7682934, 9.8170738, -0.0350805
0.9589844, -0.2202148, -0.3842773, -11.7073174, -22.2560978, 9.9390249, -0.0424659
0.9628906, -0.2583008, -0.371582, -13.3536587, -22.9268303, 9.9390249, -0.051194
0.9624023, -0.2739258, -0.3588867, -13.9634151, -22.6829281, 10.1829271, -0.0572366
0.9453125, -0.2983398, -0.3286133, -14.1463413, -22.5, 10.060976, -0.0532082
0.9287109, -0.3007812, -0.3149414, -13.7195129, -22.439024, 9.9390249, -0.0520333
0.9008789, -0.3022461, -0.2802734, -11.6463413, -22.1951218, 10, -0.0515297
0.8955078, -0.3027344, -0.2666016, -10.5487804, -22.5, 9.7560978, -0.0439765
0.8920898, -0.2944336, -0.25, -7.9878049, -23.8414631, 9.5731707, -0.0350805
0.8867188, -0.2822266, -0.2451172, -6.5243902, -24.5731716, 8.841464, -0.0270237
0.8901367, -0.2758789, -0.253418, -6.280488, -24.6951218, 9.0243902, -0.0179599
0.8959961, -0.2788086, -0.2753906, -7.0121951, -25.9146347, 9.3902445, -0.0125887
0.9018555, -0.2719727, -0.2895508, -7.6829271, -26.4024391, 9.8780489, -0.0085603
0.9199219, -0.2788086, -0.309082, -8.780488, -27.0731716, 9.8780489, -0.005539
0.9267578, -0.2827148, -0.3222656, -9.1463413, -27.1341476, 10.060976, -0.0016785
0.9277344, -0.284668, -0.3544922, -9.7560978, -26.7682934, 9.3292685, -0.0008392
0.9267578, -0.2797852, -0.3686523, -10.4268293, -26.5243912, 9.2682924, 0.002182
0.9169922, -0.2739258, -0.3901367, -11.9512196, -25.7926826, 9.0243902, 0.0082246
0.9155273, -0.2744141, -0.3935547, -14.1463413, -25.9756107, 8.9024391, 0.0068818
0.9277344, -0.2807617, -0.387207, -15.4268293, -25.6707325, 8.6585369, 0.0065461
0.9321289, -0.2963867, -0.375, -16.8902435, -24.8780499, 7.9268293, 0.0072175
0.9291992, -0.3071289, -0.3701172, -17.6219521, -24.0243912, 7.1341467, 0.0119173
0.925293, -0.3173828, -0.3657227, -17.9878044, -23.4146347, 6.5853658, 0.0146029
0.9189453, -0.3168945, -0.3662109, -17.7439022, -23.0487804, 6.2195125, 0.0159457
0.9101562, -0.3188477, -0.3686523, -17.5, -22.0731716, 6.0975609, 0.008896
0.9038086, -0.3149414, -0.3764648, -17.439024, -21.2195129, 5.7317076, 0.0062104
0.8979492, -0.2988281, -0.3862305, -17.6219521, -20.2439022, 5.2439027, 0.0025177
0.894043, -0.2875977, -0.3911133, -17.8048782, -19.3902435, 5.0609756, -0.0008392
0.8901367, -0.2700195, -0.4003906, -19.3902435, -18.3536587, 4.5731707, -0.005539
0.8935547, -0.2685547, -0.4003906, -20.6707325, -17.1951218, 3.7195122, -0.0095674
0.9057617, -0.2719727, -0.3989258, -21.280489, -17.1341476, 3.3536587, -0.01561
0.9082031, -0.2871094, -0.3950195, -22.6219521, -15.6097565, 2.0121951, -0.0196384
0.9067383, -0.2958984, -0.3911133, -22.9878063, -15.1829271, 1.3414634, -0.0229953
0.8881836, -0.3095703, -0.3886719, -23.9024391, -13.1707315, 0.4878049, -0.0270237
0.8828125, -0.3144531, -0.3886719, -23.5975609, -12.3780489, 0.5487805, -0.0283665
0.8691406, -0.3305664, -0.3789062, -23.2926826, -11.0365858, -0.0609756, -0.0370947
0.8657227, -0.3330078, -0.3735352, -23.0487804, -10, -0.4878049, -0.0438087
0.8613281, -0.3388672, -0.3759766, -22.3780499, -8.719512, -1.7682927, -0.0515297
0.855957, -0.3432617, -0.3779297, -22.0731716, -8.3536587, -2.3170731, -0.0562295
0.8574219, -0.3520508, -0.3935547, -22.1951218, -7.0731707, -3.4146342, -0.0659648
0.8574219, -0.3574219, -0.4008789, -22.439024, -6.2195125, -3.2926829, -0.0726787
0.8569336, -0.3662109, -0.4077148, -22.6219521, -5.7926831, -3.3536587, -0.082414
0.8632812, -0.3701172, -0.4042969, -22.0731716, -4.6341462, -3.7804878, -0.0889601
0.8671875, -0.3725586, -0.4018555, -21.5243912, -3.7804878, -4.5121951, -0.0921492
0.8666992, -0.3701172, -0.394043, -20.3658543, -2.1341465, -5.9146342, -0.090135
0.8613281, -0.3671875, -0.3876953, -20, -0.9146342, -6.280488, -0.0837568
0.8500977, -0.3535156, -0.3911133, -19.939024, 1.0365853, -6.7073174, -0.0741894
0.8447266, -0.3461914, -0.3896484, -20.3048782, 1.3414634, -6.9512196, -0.0715038
0.8320312, -0.3261719, -0.3999023, -21.9512196, 1.7073171, -6.890244, -0.0599222
0.8286133, -0.3125, -0.4057617, -22.8048782, 1.6463414, -6.8292685, -0.0498512
0.8276367, -0.2949219, -0.4194336, -25.1219521, 1.2804878, -6.1585369, -0.0438087
0.828125, -0.2944336, -0.425293, -26.8902454, 0.9146342, -6.0365853, -0.0290379
0.8535156, -0.2944336, -0.4267578, -27.4390259, 0.9756098, -5.9756098, -0.0129244
0.8603516, -0.3032227, -0.4272461, -28.5365868, 1.8902439, -6.1585369, 0.0015106
0.8588867, -0.309082, -0.4238281, -29.6341476, 2.195122, -6.1585369, 0.021149
0.8588867, -0.3261719, -0.4135742, -30.8536587, 2.9268293, -6.2195125, 0.0381018
0.8574219, -0.3344727, -0.4067383, -30.9146347, 2.804878, -5.7926831, 0.0451514
0.8520508, -0.3359375, -0.3950195, -31.4024391, 2.9878049, -5.1829271, 0.0475013
0.8466797, -0.3339844, -0.390625, -31.341465, 3.0487804, -5.3048782, 0.0424659
0.8369141, -0.3256836, -0.3847656, -31.4024391, 2.3780489, -5.2439027, 0.0360876
0.8378906, -0.3227539, -0.3837891, -31.1585369, 2.2560976, -5.3658538, 0.0340734
0.8442383, -0.3266602, -0.3823242, -31.0975609, 1.0365853, -5.5487804, 0.024506
0.8500977, -0.3295898, -0.3803711, -31.2195129, 0.7926829, -5.3658538, 0.0139315
0.8588867, -0.3330078, -0.3666992, -30.9146347, 0.9146342, -5.1829271, 0.0028534
0.8608398, -0.3242188, -0.3598633, -30.4268303, 1.1585366, -4.8780489, -0.0038605
0.8598633, -0.3208008, -0.3603516, -30.1219521, 1.2195122, -4.6341462, -0.0050355
0.8505859, -0.3081055, -0.375, -30.3658543, 0.3658537, -4.7560978, -0.0097353
0.8486328, -0.3017578, -0.3818359, -30.9756107, -0.2439024, -4.3292685, -0.0115816
0.8540039, -0.2973633, -0.3789062, -32.5609779, -2.1341465, -4.0853658, -0.0182956
0.8618164, -0.2993164, -0.3754883, -33.1097565, -2.9878049, -3.7195122, -0.0270237
0.878418, -0.3144531, -0.3588867, -33.2926826, -3.6585367, -3.7804878, -0.0305486
0.8828125, -0.3227539, -0.3500977, -33.3536606, -3.6585367, -3.3536587, -0.0290379
0.8803711, -0.3208008, -0.3232422, -32.5609779, -3.0487804, -2.9878049, -0.0236667
0.8774414, -0.3134766, -0.3110352, -30.6097565, -2.5609756, -2.6829269, -0.0218204
0.8735352, -0.2924805, -0.3017578, -29.9390259, -2.6219513, -2.804878, -0.0226596
0.8637695, -0.265625, -0.309082, -29.1463413, -3.7804878, -2.6219513, -0.0216526
0.8618164, -0.2607422, -0.315918, -29.0243912, -4.6341462, -2.7439024, -0.0223239
0.8725586, -0.2583008, -0.3330078, -30.3048782, -6.5853658, -2.3780489, -0.0263523
0.8798828, -0.2675781, -0.3349609, -31.0975609, -7.5609756, -2.0731707, -0.0307164
0.8945312, -0.2788086, -0.3325195, -32.0731697, -8.1707315, -1.1585366, -0.0292058
0.9008789, -0.2880859, -0.3300781, -32.3170738, -8.5975609, -0.9146342, -0.0290379
0.9067383, -0.2988281, -0.3325195, -31.4024391, -8.5975609, -0.7317073, -0.0297093
0.8984375, -0.2963867, -0.3349609, -31.0365868, -8.719512, -0.7317073, -0.0347448
0.8916016, -0.2866211, -0.3486328, -29.7560978, -9.3902445, -0.1829268, -0.0360876
0.8901367, -0.2802734, -0.3554688, -29.9390259, -10.060976, -0.2439024, -0.0347448
0.9013672, -0.2773438, -0.3623047, -30, -10.5487804, -0.1829268, -0.0377661
0.9111328, -0.2705078, -0.3701172, -30.4878063, -10.6097565, 0, -0.0391089
0.9125977, -0.2700195, -0.3735352, -30.5487804, -10.4268293, 0.1829268, -0.0406195
0.9111328, -0.2661133, -0.3745117, -31.341465, -10.4268293, 0.8536586, -0.043473
0.9145508, -0.2661133, -0.3701172, -31.2195129, -10.4268293, 1.2195122, -0.0448157
0.9135742, -0.2573242, -0.3642578, -31.280489, -10.4268293, 1.5853659, -0.0461585
0.9101562, -0.2504883, -0.3637695, -31.0975609, -10.3048782, 1.7682927, -0.0471656
0.9121094, -0.2470703, -0.3598633, -31.5243912, -10.7317076, 1.7682927, -0.0438087
0.9135742, -0.2480469, -0.3574219, -31.4634151, -11.219512, 1.7682927, -0.0417945
0.902832, -0.2485352, -0.3647461, -32.6219521, -11.6463413, 2.3780489, -0.036759
0.9013672, -0.2412109, -0.3720703, -34.4512215, -12.1951218, 3.0487804, -0.0280308
0.9018555, -0.2431641, -0.3740234, -35.4268303, -12.2560978, 3.5975611, -0.0162814
0.8999023, -0.2446289, -0.375, -36.9512215, -13.1707315, 4.2073174, 0.0005035
0.9033203, -0.2431641, -0.3754883, -37.2560997, -13.2926836, 4.4512196, 0.0169528
0.909668, -0.2441406, -0.3725586, -37.8658562, -13.5975609, 4.390244, 0.0253452
0.9150391, -0.253418, -0.3754883, -37.8658562, -13.6585369, 4.5731707, 0.0340734
0.9204102, -0.2719727, -0.3803711, -37.9878044, -13.780488, 4.390244, 0.0347448
0.9228516, -0.2832031, -0.3803711, -38.1097565, -13.9634151, 4.7560978, 0.0213169
0.9189453, -0.2973633, -0.3828125, -37.7439041, -13.7195129, 5.2439027, 0.0130922
0.9165039, -0.3066406, -0.3803711, -37.1951218, -13.9024391, 5.3658538, 0.0072175
0.9077148, -0.3144531, -0.3847656, -35.9146347, -13.5365858, 5.3048782, 0.0041962
0.8955078, -0.3125, -0.3876953, -34.3292694, -13.5975609, 4.7560978, 0.0016785
0.8950195, -0.3100586, -0.3891602, -33.7804871, -13.9634151, 4.6341462, -0.0041962
0.8886719, -0.3012695, -0.3959961, -32.9268303, -14.4512196, 4.9390244, -0.0129244
0.8881836, -0.2944336, -0.3979492, -32.7439041, -14.5731707, 4.6951222, -0.0209812
0.9013672, -0.2871094, -0.3950195, -32.5609779, -14.5731707, 4.5731707, -0.0176242
0.9013672, -0.2841797, -0.3920898, -32.5, -14.6951227, 4.4512196, -0.0176242
0.9082031, -0.2866211, -0.3896484, -32.7439041, -14.2682934, 4.3292685, -0.0229953
0.9067383, -0.2817383, -0.3930664, -32.6219521, -14.5731707, 4.2073174, -0.0240024
0.9101562, -0.2836914, -0.3999023, -33.0487823, -14.7560978, 4.5731707, -0.0204776
0.9091797, -0.2875977, -0.4047852, -33.2317085, -15.2439032, 4.8170733, -0.0196384
0.9111328, -0.300293, -0.418457, -33.2926826, -16.3414631, 5.5487804, -0.0196384
0.9101562, -0.3046875, -0.4194336, -33.4146347, -16.9512196, 5.7317076, -0.018967
0.9072266, -0.3076172, -0.4204102, -33.1097565, -17.3170738, 5.8536587, -0.0209812
0.8999023, -0.3007812, -0.4194336, -32.7439041, -16.7682934, 6.2195125, -0.0256809
0.9003906, -0.2993164, -0.4189453, -32.5, -16.4634151, 6.0975609, -0.0216526
0.8920898, -0.2978516, -0.4165039, -32.3170738, -16.7682934, 6.4024391, -0.0216526
0.8950195, -0.2949219, -0.4169922, -32.1951218, -16.8292694, 6.4024391, -0.0219883
0.8955078, -0.2958984, -0.4111328, -31.341465, -16.9512196, 6.5853658, -0.0229953
0.8984375, -0.296875, -0.40625, -30.8536587, -16.8902435, 6.7682929, -0.0250095
0.909668, -0.2900391, -0.3994141, -29.9390259, -16.6463413, 7.0731707, -0.0270237
0.9111328, -0.2900391, -0.4003906, -29.4512196, -16.5243912, 7.1341467, -0.0290379
0.9155273, -0.2954102, -0.4013672, -28.7195129, -16.4024391, 6.8292685, -0.033402
0.902832, -0.2944336, -0.4052734, -27.9268303, -16.4024391, 6.9512196, -0.0421302
0.8925781, -0.2895508, -0.4033203, -27.560976, -16.4024391, 7.1951222, -0.0485084
0.8842773, -0.2924805, -0.4057617, -27.3170738, -16.9512196, 7.6219516, -0.0501869
0.8876953, -0.2910156, -0.4082031, -27.0121956, -17.439024, 7.4390244, -0.0495155
0.890625, -0.2900391, -0.4111328, -26.4634151, -17.439024, 7.5, -0.0585794
0.8847656, -0.2871094, -0.4155273, -26.5853672, -17.439024, 7.3170733, -0.0817426
0.8779297, -0.2822266, -0.4257812, -26.4024391, -17.3780499, 7.6829271, -0.1022202
0.8779297, -0.2783203, -0.4365234, -27.1341476, -17.9268303, 7.6219516, -0.1153124
0.8852539, -0.2773438, -0.4609375, -27.4390259, -19.2073174, 7.9268293, -0.1250477
0.8930664, -0.2758789, -0.472168, -27.8048782, -19.8780499, 8.3536587, -0.1339437
0.9121094, -0.2880859, -0.4775391, -28.1097565, -20.3048782, 8.4756098, -0.13579
0.9160156, -0.3017578, -0.4702148, -27.6219521, -21.1585369, 8.2317076, -0.1347829
0.9121094, -0.3041992, -0.4638672, -27.2560978, -21.1585369, 8.2926826, -0.1237049
0.8945312, -0.3012695, -0.4511719, -25.9756107, -21.280489, 8.9024391, -0.1138018
0.8876953, -0.2978516, -0.4418945, -25.6097565, -21.280489, 9.3902445, -0.1156481
0.8769531, -0.2792969, -0.425293, -24.5731716, -21.9512196, 9.3292685, -0.1143053
0.8740234, -0.2666016, -0.4189453, -24.3902435, -22.5, 9.3902445, -0.1075914
0.8735352, -0.2563477, -0.4140625, -25.060976, -23.7195129, 9.3902445, -0.1017166
0.8764648, -0.2558594, -0.409668, -25.4268303, -24.7560978, 9.5731707, -0.100206
0.8837891, -0.2548828, -0.4140625, -25.9756107, -26.2195129, 10.2439022, -0.103563
0.8828125, -0.2573242, -0.4199219, -26.8902454, -27.5, 10.8536587, -0.1116197
0.8901367, -0.2685547, -0.4335938, -27.3780499, -29.0243912, 11.7682934, -0.1190051
0.8916016, -0.2753906, -0.4501953, -27.8658543, -30.4268303, 13.1097565, -0.1183337
0.8886719, -0.2773438, -0.453125, -28.0487804, -31.0975609, 13.5975609, -0.1089342
0.8808594, -0.2695312, -0.4750977, -28.5975609, -32.1951218, 14.2073174, -0.0971847
0.8769531, -0.2563477, -0.4819336, -29.2682934, -32.8048782, 14.7560978, -0.0746929
0.875, -0.2353516, -0.4897461, -30.5487804, -34.5731697, 15.6707325, -0.0327306
0.8764648, -0.2285156, -0.487793, -31.4024391, -35.6707344, 15.9756098, 0.0293736
0.8876953, -0.2211914, -0.4829102, -33.5365868, -37.6829262, 16.2195129, 0.0983597
0.8969727, -0.2290039, -0.4794922, -34.4512215, -38.2926826, 16.4634151, 0.1616388
0.9106445, -0.2485352, -0.4731445, -36.4634171, -39.4512215, 16.7073174, 0.2083009
0.9135742, -0.2597656, -0.4667969, -37.5, -40.1219521, 17.2560978, 0.2388495
0.9082031, -0.2797852, -0.449707, -39.0853653, -41.0975609, 18.2317085, 0.2462348
0.9082031, -0.2954102, -0.434082, -39.0243912, -42.0731735, 19.4512196, 0.2378424
0.9013672, -0.2978516, -0.4238281, -38.6585388, -42.2560997, 19.939024, 0.2133364
0.890625, -0.300293, -0.4140625, -37.9268303, -42.8658562, 20.060976, 0.1908446
0.894043, -0.2993164, -0.4145508, -37.5, -43.5365868, 20.1219521, 0.173724
0.8896484, -0.3081055, -0.4208984, -36.8902435, -44.5121956, 19.8170738, 0.1549248
0.8911133, -0.3120117, -0.4257812, -36.5243912, -45, 20.3658543, 0.1367971
0.8979492, -0.3139648, -0.4365234, -35.8536606, -45.7926826, 21.0365868, 0.1223621
0.8979492, -0.3154297, -0.4453125, -35.1219521, -46.4024391, 21.2195129, 0.1122911
0.8999023, -0.3183594, -0.4677734, -34.3902435, -47.1951218, 21.9512196, 0.0998703
0.8994141, -0.315918, -0.4794922, -34.0853653, -47.9268303, 22.3780499, 0.0936599
0.8935547, -0.324707, -0.4926758, -33.6585388, -49.2073174, 22.3170738, 0.0830854
0.8925781, -0.331543, -0.4892578, -33.1707306, -50.7926826, 23.1097565, 0.072343
0.8916016, -0.3286133, -0.4912109, -32.1341476, -51.2195129, 23.2926826, 0.0572366
0.8867188, -0.3227539, -0.4873047, -30.6097565, -51.8292694, 23.1707325, 0.0407874
0.8842773, -0.3188477, -0.4912109, -29.8780499, -52.0731735, 23.4146347, 0.0303807
0.8793945, -0.3100586, -0.5073242, -29.0853672, -53.1707344, 23.780489, 0.0146029
0.8710938, -0.3095703, -0.5195312, -29.0853672, -53.6585388, 24.2073174, 0.0038605
0.8662109, -0.3076172, -0.5185547, -29.4512196, -55.18293, 25.3658543, 0.0052033
0.8588867, -0.3085938, -0.5097656, -29.3292694, -55.9756126, 25.9756107, 0.0072175
0.8486328, -0.3134766, -0.4868164, -28.1707325, -57.6219521, 26.5243912, 0.0146029
0.8447266, -0.3100586, -0.4804688, -26.8902454, -58.4756126, 27.0731716, 0.0219883
0.8408203, -0.3071289, -0.480957, -24.9390259, -59.6951218, 28.1707325, 0.0325628
0.8476562, -0.3115234, -0.4956055, -24.0243912, -60.3658562, 28.9634151, 0.0347448
0.8500977, -0.3178711, -0.5019531, -23.9024391, -60.9146347, 29.6341476, 0.0372625
0.8378906, -0.315918, -0.5195312, -23.7195129, -62.68293, 30.9146347, 0.0347448
0.8349609, -0.3139648, -0.5219727, -23.7195129, -64.1463394, 31.9512196, 0.0251774
0.8349609, -0.3183594, -0.5039062, -23.6585369, -66.0975647, 32.8658562, 0.0129244
0.8383789, -0.3310547, -0.4892578, -22.6219521, -67.1341476, 33.1707306, -0.005539
0.8339844, -0.3417969, -0.4648438, -20.1829281, -68.5365906, 33.6585388, -0.023331
0.8320312, -0.3466797, -0.4521484, -19.1463413, -68.6585388, 33.9024391, -0.0370947
0.8398438, -0.3710938, -0.4335938, -16.0365849, -68.7195129, 34.5121956, -0.0464942
0.8461914, -0.3833008, -0.4291992, -13.9634151, -68.9024429, 34.9390259, -0.0485084
0.8447266, -0.4038086, -0.4663086, -12.7439032, -69.0853653, 35.1219521, -0.0498512
0.824707, -0.3950195, -0.543457, -10.6707315, -69.4512177, 35.7926826, -0.0501869
0.8232422, -0.3837891, -0.5908203, -10.1219511, -69.6951218, 36.8292694, -0.0525368
0.8276367, -0.3774414, -0.6699219, -10.6097565, -71.9512177, 38.1707344, -0.0542153
0.8408203, -0.375, -0.6967773, -10.8536587, -73.1097565, 38.4146347, -0.0575723
0.8735352, -0.3759766, -0.715332, -11.8902445, -73.7195129, 38.3536606, -0.0558938
0.8808594, -0.3789062, -0.7138672, -12.6219511, -73.8414688, 38.1707344, -0.0552224
0.8837891, -0.3759766, -0.6899414, -13.5365858, -72.8048782, 37.9878044, -0.0553902
0.8818359, -0.3828125, -0.6733398, -14.2073174, -72.2560959, 38.2317085, -0.0572366
0.8652344, -0.390625, -0.6499023, -15, -71.7682953, 39.0853653, -0.06009
0.855957, -0.3964844, -0.6416016, -15.7926836, -72.6219559, 40.5487823, -0.0636149
0.8388672, -0.418457, -0.6367188, -15.5487804, -73.4756088, 41.341465, -0.0663005
0.824707, -0.4296875, -0.6533203, -14.5731707, -74.6951218, 42.8658562, -0.0699931
0.815918, -0.4272461, -0.6669922, -14.2073174, -75.7317123, 43.7195129, -0.0656291
0.8120117, -0.4233398, -0.6894531, -14.3902445, -77.1341476, 45.2439041, -0.0639506
0.8110352, -0.4199219, -0.6977539, -14.6341467, -77.68293, 45.4878044, -0.0642863
0.8100586, -0.4116211, -0.7226562, -16.1585369, -78.5365906, 46.2804871, -0.0616007
0.8061523, -0.4169922, -0.7265625, -16.9512196, -79.2073212, 46.6463432, -0.0626078
0.8100586, -0.4233398, -0.7172852, -18.1097565, -81.0975647, 47.7439041, -0.0619364
0.8164062, -0.4306641, -0.7055664, -18.5365849, -82.0731735, 47.9268303, -0.0582437
0.8193359, -0.4443359, -0.6899414, -18.7195129, -83.5365906, 47.7439041, -0.0558938
0.8168945, -0.4482422, -0.6928711, -19.3292694, -84.6341476, 48.7804871, -0.0532082
0.8061523, -0.4541016, -0.730957, -19.8780499, -85.4878082, 49.3902435, -0.0505226
0.7993164, -0.4609375, -0.7558594, -21.0365868, -87.68293, 51.2804909, -0.0528725
0.796875, -0.4614258, -0.7641602, -21.7073174, -88.6585388, 52.0121956, -0.047837
0.8066406, -0.4570312, -0.7685547, -21.280489, -90.3048782, 52.7439041, -0.0424659
0.8095703, -0.4458008, -0.7685547, -21.280489, -90.5487823, 52.9268303, -0.0412909
0.8022461, -0.434082, -0.7714844, -21.9512196, -91.5243912, 52.9878044, -0.0374304
0.7963867, -0.4287109, -0.7788086, -22.8048782, -92.0121994, 53.4146347, -0.0347448
0.7919922, -0.4199219, -0.793457, -25.1829281, -93.1707306, 54.5731735, -0.0313878
0.7924805, -0.4204102, -0.8012695, -26.0365868, -94.146347, 54.9390259, -0.0307164
0.7919922, -0.4301758, -0.8149414, -27.8048782, -95.9146347, 56.2804909, -0.0310521
0.7905273, -0.4331055, -0.8208008, -28.7195129, -97.3780518, 57.0121956, -0.0317235
0.7924805, -0.4477539, -0.8286133, -29.1463413, -97.9878082, 57.5609779, -0.0350805
0.7949219, -0.4667969, -0.8325195, -29.4512196, -98.7804871, 58.2317085, -0.0310521
0.7949219, -0.4726562, -0.8271484, -29.1463413, -99.146347, 58.9024391, -0.0340734
0.7919922, -0.4794922, -0.8178711, -28.6585369, -99.146347, 58.9634171, -0.0384375
0.7895508, -0.4829102, -0.8134766, -28.1707325, -99.2682953, 58.9024391, -0.0381018
0.7817383, -0.4853516, -0.8007812, -28.0487804, -99.3902435, 58.9634171, -0.0411231
0.777832, -0.4882812, -0.800293, -27.9268303, -99.6951218, 59.1463432, -0.0485084
0.765625, -0.4824219, -0.8022461, -28.1097565, -100.3658524, 59.4512215, -0.0485084
0.7661133, -0.4804688, -0.8134766, -27.9268303, -100.9146347, 60, -0.0495155
0.765625, -0.4741211, -0.8461914, -27.8048782, -102.2561035, 60.2439041, -0.0522011
0.7583008, -0.4682617, -0.8666992, -28.1097565, -103.7195129, 60.5487823, -0.0574044
0.7592773, -0.4511719, -0.8852539, -28.3536587, -104.5121994, 60.8536606, -0.0552224
0.7758789, -0.4545898, -0.8696289, -29.0243912, -106.0365906, 60.7926826, -0.0582437
0.7817383, -0.4589844, -0.8413086, -29.7560978, -106.3414688, 60.6097565, -0.0558938
0.7749023, -0.4633789, -0.7895508, -29.8780499, -105.9146347, 60.18293, -0.0538796
0.7636719, -0.4633789, -0.7734375, -29.8780499, -105.6707306, 60.6097565, -0.0558938
0.71875, -0.4672852, -0.7739258, -29.4512196, -105.9756088, 61.8292694, -0.0542153
0.7011719, -0.4692383, -0.7797852, -29.2682934, -107.3170776, 62.8658562, -0.0515297
0.6845703, -0.4746094, -0.8149414, -27.8048782, -110.36586, 65.3048782, -0.0528725
0.6884766, -0.4731445, -0.8325195, -27.2560978, -111.8292694, 66.2804871, -0.0500191
0.7089844, -0.4736328, -0.8520508, -26.0365868, -114.3292694, 67.1951218, -0.0533761
0.7246094, -0.4746094, -0.8618164, -25.7926826, -115.2439041, 67.8658524, -0.0584115
0.7460938, -0.4726562, -0.8720703, -25.6097565, -115.1219559, 68.2926865, -0.0659648
0.753418, -0.4716797, -0.8823242, -26.280489, -115.4268341, 69.3902435, -0.0795605
0.7529297, -0.4697266, -0.8911133, -26.5243912, -115.7317123, 70, -0.085771
0.7490234, -0.4829102, -0.9091797, -26.5853672, -116.9512253, 71.4024429, -0.0881209
0.7451172, -0.4975586, -0.9155273, -27.3170738, -117.3170776, 71.9512177, -0.0861067
0.7475586, -0.5097656, -0.9155273, -26.8292694, -117.5, 73.8414688, -0.0834211
0.7446289, -0.5083008, -0.9086914, -26.4634151, -117.3780518, 74.3292694, -0.0822461
0.7363281, -0.4936523, -0.8964844, -25.1219521, -117.4390259, 75.0609741, -0.0783856
0.7260742, -0.4897461, -0.890625, -24.6951218, -117.5609818, 75.3658524, -0.0720073
0.7207031, -0.4667969, -0.8955078, -24.5121956, -118.5365906, 76.646347, -0.0683146
0.7128906, -0.4580078, -0.909668, -25.3658543, -120.6097565, 78.1707306, -0.064622
0.7143555, -0.4506836, -0.9438477, -26.4024391, -121.5243912, 79.0243912, -0.064622
0.7255859, -0.4658203, -0.9731445, -27.5, -123.5365906, 80.3048782, -0.0572366
0.7338867, -0.4780273, -0.9868164, -28.4756107, -124.5121994, 81.2195129, -0.0485084
0.7446289, -0.496582, -0.9926758, -30.4268303, -124.9390259, 82.7439041, -0.0464942
0.75, -0.5102539, -0.9873047, -30.9756107, -124.6341476, 83.3536606, -0.0404517
0.7446289, -0.5200195, -0.9750977, -31.4024391, -124.6341476, 84.9390259, -0.0290379
0.7402344, -0.5209961, -0.9667969, -31.6463413, -124.8780518, 85.4878082, -0.0223239
0.722168, -0.5112305, -0.96875, -32.1341476, -125.7317123, 86.8902435, -0.0109102
0.7094727, -0.5102539, -0.9785156, -32.5, -125.6707382, 86.9512253, -0.0011749
0.6943359, -0.5151367, -0.9873047, -34.0243912, -127.0121994, 87.5609741, 0.0052033
0.6958008, -0.5244141, -0.9931641, -35, -128.5975647, 88.2926865, 0.0092317
0.690918, -0.5366211, -0.9960938, -35.1219521, -129.2073212, 88.1707306, 0.0062104
0.6948242, -0.543457, -1.0097656, -34.8780479, -130.2439117, 89.3292694, 0.0030213
0.6928711, -0.5410156, -1.0185547, -34.6951218, -130.3048859, 90, -0.0001678
0.6884766, -0.5395508, -1.0361328, -35.1829262, -131.2195129, 91.0975647, -0.0008392
0.6953125, -0.5429688, -1.0332031, -35.5487823, -131.8902435, 91.5243912, -0.012253
0.7124023, -0.5522461, -1.0195312, -35.7926826, -133.5975647, 91.646347, -0.0218204
0.7143555, -0.5654297, -1.0107422, -35.4878044, -134.146347, 91.2195129, -0.030045
0.7016602, -0.5927734, -1.0087891, -33.3536606, -134.5731812, 91.1585388, -0.0337377
0.6914062, -0.6069336, -1.0014648, -31.9512196, -135, 91.8292694, -0.0357519
0.6845703, -0.6337891, -0.9829102, -28.780489, -135.6097565, 92.7439041, -0.0350805
0.6645508, -0.6357422, -0.9462891, -24.1463413, -135.4878082, 92.8658524, -0.0381018
0.6533203, -0.6245117, -0.940918, -22.560976, -135.4268341, 92.3170776, -0.0419623
0.6274414, -0.5834961, -0.9667969, -20, -136.4634247, 91.2195129, -0.0419623
0.6123047, -0.5698242, -0.9907227, -19.8170738, -137.3780518, 90.4878082, -0.0424659
0.5991211, -0.5625, -1.0332031, -20, -141.2804871, 90.1219559, -0.0354162
0.609375, -0.5634766, -1.043457, -20.1829281, -143.7195129, 90.2439041, -0.0310521
0.6396484, -0.5581055, -1.0634766, -20.7317085, -145.9146423, 90.4268341, -0.0256809
0.6513672, -0.5585938, -1.0649414, -20.9756107, -146.0365906, 90.18293, -0.0166171
0.6621094, -0.550293, -1.0532227, -21.4024391, -145.8536682, 89.9390259, -0.0162814
0.6616211, -0.5375977, -1.0478516, -21.8902435, -145.8536682, 90, -0.012253
0.6455078, -0.5209961, -1.0380859, -22.3780499, -146.2195129, 90, -0.0109102
0.6152344, -0.5161133, -1.0791016, -23.3536587, -147.3170776, 89.9390259, -0.0105745
0.5976562, -0.5361328, -1.1083984, -23.4756107, -148.8414612, 90.5487823, -0.0065461
0.5932617, -0.5854492, -1.1591797, -22.560976, -152.4390259, 92.8048782, -0.0068818
0.5961914, -0.6020508, -1.1689453, -21.1585369, -154.146347, 94.0853653, -0.0030213
0.6196289, -0.609375, -1.1464844, -16.8292694, -154.7561035, 95.1219559, -0.0031891
0.6328125, -0.590332, -1.1254883, -15.6097565, -154.3292694, 94.8780518, -0.0070497
0.6435547, -0.5473633, -1.0800781, -15.060976, -152.6829376, 93.2317123, -0.0050355
0.6342773, -0.5288086, -1.0742188, -16.5243912, -152.3170776, 92.3170776, -0.0082246
0.6000977, -0.5307617, -1.0810547, -20.060976, -154.0243988, 91.9512253, -0.0125887
0.59375, -0.5537109, -1.1005859, -21.4024391, -156.3414612, 92.3170776, -0.0124208
0.5878906, -0.6201172, -1.1210938, -22.1951218, -161.0975647, 93.5365906, -0.0124208
0.5888672, -0.6474609, -1.1269531, -18.9024391, -163.1097565, 94.6951218, -0.0149386
0.5869141, -0.6425781, -1.121582, -16.5243912, -163.0487823, 95.0609741, -0.018967
0.5869141, -0.612793, -1.0991211, -13.1707315, -162.0731812, 94.3292694, -0.0256809
0.5839844, -0.59375, -1.0805664, -12.3780489, -161.646347, 93.5365906, -0.0357519
0.5625, -0.5610352, -1.0546875, -12.9268293, -161.4634247, 92.0731735, -0.0433051
0.5449219, -0.5639648, -1.0556641, -13.1097565, -162.1951294, 91.5853653, -0.0491798
0.5048828, -0.5976562, -1.1015625, -13.2317076, -165.36586, 92.3170776, -0.0636149
0.4946289, -0.6259766, -1.1298828, -12.0121956, -167.3170776, 93.2317123, -0.0780499
0.496582, -0.6723633, -1.1645508, -8.2926826, -171.1585388, 96.646347, -0.090135
0.5161133, -0.6699219, -1.1689453, -5.8536587, -172.0121918, 97.4390259, -0.0887922
0.5444336, -0.6303711, -1.1655273, -3.0487804, -171.0975647, 96.8902435, -0.0847639
0.5498047, -0.5722656, -1.1738281, -4.2073174, -169.6951294, 95.0609741, -0.0807355
0.534668, -0.5532227, -1.1811523, -6.0975609, -169.4512177, 94.3292694, -0.0726787
0.5131836, -0.5620117, -1.1894531, -10.9146347, -171.7073212, 94.2073212, -0.0642863
0.5112305, -0.5737305, -1.1821289, -12.3170738, -173.2317047, 94.6951218, -0.0505226
0.5175781, -0.5981445, -1.1533203, -13.2926836, -174.8170776, 95.4878082, -0.0392767
0.5087891, -0.5952148, -1.1381836, -13.1707315, -174.4512177, 94.9390259, -0.0285344
0.4887695, -0.5820312, -1.1137695, -13.9634151, -173.2926941, 93.9024429, -0.0102388
0.4658203, -0.5834961, -1.0981445, -14.5731707, -172.6829376, 93.2926865, 0.0011749
0.4350586, -0.5869141, -1.0639648, -15.9146347, -173.7804871, 92.68293, 0.0182956
0.4140625, -0.5908203, -1.046875, -16.5243912, -174.6951294, 92.7439041, 0.0310521
0.3696289, -0.5766602, -1.0234375, -16.9512196, -175, 92.4390259, 0.0344091
0.3139648, -0.5708008, -1.0297852, -17.1341476, -174.7561035, 92.8658524, 0.0374304
0.2954102, -0.5664062, -1.0385742, -17.1951218, -175.0609741, 93.4146347, 0.0381018
0.2709961, -0.5625, -1.074707, -18.0487804, -176.5853729, 94.9390259, 0.0417945
0.2675781, -0.5664062, -1.09375, -18.1707325, -177.5, 95.3658524, 0.0431373
0.2851562, -0.5629883, -1.1254883, -19.3292694, -179.146347, 96.0975647, 0.0431373
0.2978516, -0.5654297, -1.1455078, -20.1219521, -179.5121918, 96.4634171, 0.0508583
0.3095703, -0.5986328, -1.1914062, -21.5853672, -179.8170776, 96.7682953, 0.0562295
0.3242188, -0.6254883, -1.2114258, -21.8292694, -180.4268341, 97.2561035, 0.0575723
0.3457031, -0.6831055, -1.1982422, -19.6341476, -181.2195129, 99.6341476, 0.0555581
0.3696289, -0.6948242, -1.1630859, -17.2560978, -180.6097565, 100.2439041, 0.0491798
0.3862305, -0.6669922, -1.0800781, -13.1707315, -176.5243988, 98.7804871, 0.0431373
0.3193359, -0.6103516, -1.019043, -12.5, -171.1585388, 95.0609741, 0.0310521
0.269043, -0.6005859, -1.0043945, -13.4146347, -170.1219482, 94.146347, 0.0219883
0.1889648, -0.6054688, -0.9931641, -16.4634151, -172.86586, 93.8414688, 0.0119173
0.1591797, -0.609375, -0.9970703, -16.8902435, -175.4878082, 94.2682953, 0.0058747
0.1401367, -0.6206055, -1.0478516, -16.2195129, -179.6341553, 94.5731735, -0.0001678
0.1484375, -0.6152344, -1.0834961, -15.6707325, -180.9756165, 94.3902435, -0.0085603
0.1635742, -0.6254883, -1.1503906, -14.2073174, -181.5243988, 93.9634171, -0.0135958
0.1923828, -0.6240234, -1.1645508, -14.0243902, -182.1951294, 94.2682953, -0.018967
0.2636719, -0.6040039, -1.1503906, -15.4878054, -182.5609741, 93.4756088, -0.0206455
0.2900391, -0.5917969, -1.1289062, -16.7682934, -181.5243988, 92.8658524, -0.0246738
0.3061523, -0.5791016, -1.090332, -21.0975609, -178.4146423, 90.7317123, -0.0290379
0.2617188, -0.5932617, -1.0766602, -25, -175.7926941, 89.3292694, -0.0240024
0.2290039, -0.5996094, -1.078125, -26.0365868, -176.0365906, 89.8780518, -0.0270237
0.1723633, -0.6113281, -1.0825195, -25.9146347, -177.0731812, 90.7317123, -0.0310521
0.15625, -0.6088867, -1.0805664, -25.3048782, -177.7439117, 90.9756088, -0.0317235
0.1425781, -0.5854492, -1.0727539, -23.8414631, -179.0853729, 90.1219559, -0.0320592
0.1489258, -0.5825195, -1.0615234, -23.8414631, -179.2682953, 89.5731735, -0.0323949
0.1723633, -0.5888672, -1.0283203, -24.3292694, -179.9390259, 88.4146347, -0.0307164
0.1855469, -0.6010742, -1.0126953, -24.8780499, -179.7561035, 87.5609741, -0.0325628
0.1821289, -0.6391602, -0.9916992, -23.9634151, -179.0243988, 86.8902435, -0.0337377
0.1679688, -0.65625, -0.9804688, -22.8658543, -178.8414612, 86.5853653, -0.0350805
0.1445312, -0.6645508, -0.9487305, -17.7439022, -177.9268341, 86.8902435, -0.0339055
0.1289062, -0.6416016, -0.9008789, -12.9268293, -176.9512177, 85.9146347, -0.0342412
0.1137695, -0.6196289, -0.8823242, -11.0365858, -176.4024506, 84.8780518, -0.0320592
0.074707, -0.5708008, -0.8701172, -9.0243902, -175.9756165, 83.1097565, -0.0310521
0.0498047, -0.5385742, -0.8823242, -8.6585369, -175.6707306, 82.5609741, -0.0323949
0.0126953, -0.4790039, -0.9233398, -9.3292685, -176.3414612, 82.5, -0.0283665
0.003418, -0.4560547, -0.956543, -10.4878054, -177.3780518, 82.5, -0.0263523
0.003418, -0.4365234, -1.0361328, -13.4756098, -180.0609741, 82.68293, -0.0246738
0.0249023, -0.4443359, -1.0581055, -15.6707325, -181.7682953, 82.9268341, -0.0209812
0.0898438, -0.4765625, -1.046875, -19.1463413, -184.0853729, 83.5975647, -0.0226596
0.1235352, -0.4848633, -1.0092773, -20.4878044, -183.1097565, 83.7804871, -0.0243381
0.1508789, -0.4545898, -0.9360352, -23.4756107, -178.8414612, 82.3780518, -0.0271916
0.0742188, -0.3945312, -0.9003906, -26.8292694, -173.5365906, 80.3048782, -0.0303807
0.0205078, -0.3730469, -0.8979492, -29.3902454, -172.6219482, 80.3048782, -0.0285344
-0.050293, -0.3637695, -0.9213867, -33.7195129, -174.3902435, 81.8902435, -0.0229953
-0.0703125, -0.3764648, -0.9375, -35.6097565, -175.36586, 82.68293, -0.0238346
-0.0771484, -0.4189453, -0.9672852, -37.7439041, -176.5243988, 84.3902435, -0.0223239
-0.0673828, -0.4462891, -0.9790039, -38.2317085, -177.4390259, 85, -0.0186313
-0.0175781, -0.5058594, -0.96875, -38.2926826, -178.1097565, 85.4878082, -0.0182956
0.0151367, -0.5351562, -0.9594727, -38.1097565, -178.1707306, 85.0609741, -0.0196384
0.0566406, -0.5698242, -0.9311523, -37.8048782, -177.5, 83.6585388, -0.0236667
0.0605469, -0.5849609, -0.9160156, -36.5243912, -174.9390259, 81.8292694, -0.0236667
0.0405273, -0.5952148, -0.9023438, -35.3658562, -173.9024506, 80.6707306, -0.0243381
-0.0068359, -0.5698242, -0.9140625, -32.6219521, -172.5609741, 79.146347, -0.0270237
-0.0322266, -0.5537109, -0.9223633, -31.0365868, -172.5609741, 78.2926865, -0.0287022
-0.0644531, -0.5117188, -0.9121094, -29.0853672, -173.3536682, 76.646347, -0.0256809
-0.0654297, -0.4926758, -0.887207, -27.9878063, -173.9634247, 75.7926865, -0.0273594
-0.0517578, -0.4580078, -0.8417969, -27.1341476, -173.9634247, 73.4146347, -0.0260166
-0.0532227, -0.4472656, -0.8452148, -27.560976, -173.2317047, 72.4390259, -0.0226596
-0.0834961, -0.4350586, -0.902832, -29.6951218, -172.5, 72.1341476, -0.0203098
-0.0878906, -0.4414062, -0.9428711, -31.2195129, -173.1097565, 72.9268341, -0.0203098
-0.0751953, -0.4570312, -1.0009766, -32.9878044, -174.6951294, 74.5121994, -0.0146029
-0.0585938, -0.4589844, -1.0009766, -33.6585388, -174.5731812, 74.5121994, -0.0149386
-0.0170898, -0.4477539, -0.9414062, -33.2926826, -173.0487823, 73.9634171, -0.012253
-0.0058594, -0.4140625, -0.8671875, -32.9878044, -168.1707306, 70.7926865, -0.0085603
-0.0185547, -0.4057617, -0.84375, -33.2926826, -165.9146423, 69.5121994, -0.0102388
-0.0654297, -0.3862305, -0.8393555, -35.4878044, -163.1707306, 68.2926865, -0.0119173
-0.0932617, -0.3857422, -0.8486328, -37.0121956, -163.5365906, 68.5975647, -0.0176242
-0.1450195, -0.3823242, -0.8564453, -40.5487823, -164.6341553, 69.2682953, -0.0182956
-0.1508789, -0.3754883, -0.8388672, -42.3170738, -165.1219482, 69.6341476, -0.0203098
-0.1601562, -0.355957, -0.7954102, -44.4512215, -164.5121918, 68.4756088, -0.0169528
-0.168457, -0.3398438, -0.7827148, -45.3658562, -163.9634247, 67.6219559, -0.0135958
-0.1992188, -0.3388672, -0.8173828, -47.0121956, -163.8414612, 67.0731735, -0.0176242
-0.2094727, -0.3525391, -0.8520508, -47.9878044, -165.5487823, 69.3902435, -0.0198062
-0.1923828, -0.3720703, -0.8671875, -48.5365868, -166.5243988, 71.0975647, -0.0216526
-0.1503906, -0.3754883, -0.7788086, -47.9878044, -165.9146423, 70.7926865, -0.0182956
-0.128418, -0.3637695, -0.7216797, -47.1341476, -164.146347, 68.9024429, -0.0213169
-0.1323242, -0.3510742, -0.652832, -46.341465, -160.3048859, 64.0243912, -0.0193027
-0.1674805, -0.3510742, -0.6591797, -46.9512215, -159.0853729, 62.9268303, -0.021149
-0.2504883, -0.3745117, -0.7304688, -49.3902435, -160.2439117, 65.0609741, -0.026688
-0.2763672, -0.3945312, -0.7685547, -50.1829262, -161.4024353, 67.4390259, -0.0243381
-0.2768555, -0.4223633, -0.7749023, -47.3780518, -163.5975647, 71.0975647, -0.023331
-0.2529297, -0.421875, -0.7524414, -44.1463432, -163.4146423, 70.9756088, -0.023331
-0.2158203, -0.3969727, -0.6826172, -35.9146347, -160.6097565, 67.5, -0.0246738
-0.2094727, -0.3828125, -0.6572266, -31.1585369, -155.6707306, 62.8048782, -0.0224918
-0.2285156, -0.3623047, -0.659668, -30.6707325, -153.9634247, 61.6463432, -0.0251774
-0.2734375, -0.3666992, -0.7172852, -32.5, -152.3780518, 62.3780518, -0.0243381
-0.2915039, -0.375, -0.7509766, -33.7804871, -152.4390259, 63.5365868, -0.0219883
-0.3037109, -0.3823242, -0.8295898, -33.9024391, -152.7439117, 64.8780518, -0.0243381
-0.3066406, -0.3725586, -0.8706055, -33.7195129, -152.5, 64.5731735, -0.0226596
-0.2963867, -0.3413086, -0.9228516, -33.2926826, -151.0975647, 63.3536606, -0.0213169
-0.2807617, -0.3261719, -0.9082031, -33.2317085, -150.36586, 62.5609779, -0.0213169
-0.2197266, -0.3134766, -0.8208008, -34.5121956, -148.6585388, 61.0365868, -0.0229953
-0.1958008, -0.3007812, -0.7695312, -35.6097565, -146.5853729, 59.6951218, -0.0246738
-0.2001953, -0.2763672, -0.7119141, -39.0243912, -141.9512177, 57.68293, -0.0256809
-0.2216797, -0.2700195, -0.6972656, -43.7804871, -137.6829376, 58.1097565, -0.0283665
-0.2680664, -0.2851562, -0.6547852, -46.0975609, -136.0365906, 58.4146347, -0.0344091
-0.3056641, -0.3095703, -0.5800781, -48.1707344, -134.0243988, 58.2317085, -0.0391089
-0.328125, -0.3222656, -0.5576172, -47.6219521, -133.2926788, 57.4390259, -0.0458228
-0.3930664, -0.3232422, -0.5820312, -46.7073174, -132.0121918, 57.0731735, -0.0439765
-0.4282227, -0.3251953, -0.6123047, -46.5243912, -132.0121918, 57.5609779, -0.0391089
-0.4536133, -0.3383789, -0.6474609, -47.0121956, -132.3780518, 59.7560997, -0.0391089
-0.4379883, -0.3520508, -0.6411133, -45.7926826, -132.7439117, 60.3658562, -0.0431373
-0.387207, -0.3808594, -0.5996094, -41.7682953, -132.3780518, 58.9024391, -0.04448
-0.3647461, -0.3823242, -0.5854492, -39.4512215, -130.9146423, 57.3170738, -0.0397803
-0.3496094, -0.3637695, -0.5869141, -35.6707344, -126.646347, 54.5121956, -0.0411231
-0.3608398, -0.3500977, -0.5893555, -34.9390259, -123.5975647, 52.8048782, -0.0357519
-0.378418, -0.3334961, -0.5629883, -34.6951218, -122.2561035, 51.8292694, -0.0354162
-0.3833008, -0.3217773, -0.5234375, -33.841465, -120.36586, 49.5121956, -0.0297093
-0.3974609, -0.3173828, -0.5083008, -33.1097565, -119.5731735, 48.0487823, -0.0250095
-0.4448242, -0.2929688, -0.4824219, -31.6463413, -117.86586, 46.5853653, -0.0216526
-0.465332, -0.2758789, -0.4804688, -31.280489, -117.0121994, 46.341465, -0.0162814
-0.4985352, -0.2470703, -0.4750977, -30.5487804, -115.4878082, 45.2439041, -0.0099031
-0.5058594, -0.230957, -0.4682617, -30.5487804, -115.3048782, 44.5121956, -0.0078889
-0.5053711, -0.2324219, -0.4428711, -30.7317085, -115.9146347, 43.1707344, -0.0048676
-0.5014648, -0.2392578, -0.4262695, -30.3048782, -115.7926865, 42.4390259, -0.002182
-0.4794922, -0.2587891, -0.387207, -29.8170738, -115.0609818, 41.1585388, 0.0018463
-0.4741211, -0.2724609, -0.3632812, -28.2317085, -112.2561035, 39.5731735, 0.0099031
-0.4785156, -0.2822266, -0.3427734, -27.3780499, -110.7317123, 38.7195129, 0.0058747
-0.4995117, -0.2666016, -0.3676758, -26.5243912, -106.9512253, 36.5243912, 0.0048676
-0.5170898, -0.2548828, -0.3901367, -26.7073174, -105.7926865, 35.4268303, 0.0062104
-0.5375977, -0.2490234, -0.4111328, -27.0731716, -105.18293, 33.9634171, 0.0048676
-0.5336914, -0.2509766, -0.3950195, -26.9512196, -105.6097565, 33.2926826, 0.0065461
-0.5073242, -0.2636719, -0.3442383, -25.4268303, -105, 31.0365868, 0.008896
-0.5053711, -0.2626953, -0.3120117, -24.0243912, -103.9024429, 29.6341476, 0.0102388
-0.5073242, -0.2661133, -0.2524414, -20.6707325, -100.9146347, 27.560976, 0.0058747
-0.5185547, -0.2568359, -0.2353516, -19.5731716, -99.3292694, 27.3780499, -0.0015106
-0.5483398, -0.2338867, -0.2416992, -18.0487804, -95.6097565, 27.6219521, -0.0082246
-0.5776367, -0.2094727, -0.2783203, -17.9268303, -92.8048782, 28.1707325, -0.0146029
-0.5883789, -0.1972656, -0.2929688, -18.1707325, -92.1341476, 28.2317085, -0.0219883
-0.5854492, -0.1796875, -0.3110352, -18.4146347, -91.7682953, 27.9878063, -0.0256809
-0.5800781, -0.1757812, -0.3139648, -18.6585369, -91.2804871, 26.8902454, -0.0310521
-0.5566406, -0.1767578, -0.3076172, -18.7195129, -90.18293, 25.3048782, -0.0323949
-0.5439453, -0.1904297, -0.2983398, -18.5365849, -89.5731735, 24.6951218, -0.033402
-0.5224609, -0.2148438, -0.2753906, -18.5365849, -87.68293, 24.0853672, -0.0344091
-0.5141602, -0.2231445, -0.2646484, -17.9268303, -85.9146347, 23.6585369, -0.0354162
-0.5185547, -0.2290039, -0.2553711, -16.8292694, -81.7682953, 22.3170738, -0.0317235
-0.5336914, -0.2280273, -0.2583008, -16.7073174, -79.6341476, 21.8902435, -0.0263523
-0.5634766, -0.2148438, -0.2597656, -16.5853653, -76.2195129, 20.3658543, -0.0290379
-0.5991211, -0.1972656, -0.2636719, -17.1341476, -73.4756088, 19.2682934, -0.0330663
-0.5981445, -0.1918945, -0.2661133, -17.3170738, -73.0487823, 18.780489, -0.0323949
-0.5874023, -0.206543, -0.2841797, -16.9512196, -71.8292694, 17.2560978, -0.0344091
-0.5766602, -0.2216797, -0.2988281, -16.9512196, -71.2195129, 16.7682934, -0.0310521
-0.5644531, -0.2392578, -0.3095703, -15.4878054, -68.7195129, 16.0365849, -0.0261845
-0.5566406, -0.2441406, -0.3056641, -14.6341467, -66.4024429, 15.6097565, -0.0193027
-0.5615234, -0.2099609, -0.2866211, -13.3536587, -60.9146347, 13.9024391, -0.0182956
-0.565918, -0.1899414, -0.2753906, -12.6219511, -58.1707344, 12.8658543, -0.0176242
-0.5976562, -0.1455078, -0.2607422, -12.3780489, -54.2073174, 10.5487804, -0.0166171
-0.609375, -0.1264648, -0.2583008, -13.1097565, -53.2926826, 9.7560978, -0.0137636
-0.6235352, -0.1225586, -0.2543945, -15, -52.5, 9.2073174, -0.0115816
-0.6245117, -0.1298828, -0.2568359, -16.8292694, -51.7073174, 9.0853662, -0.0092317
-0.6123047, -0.1396484, -0.2558594, -17.560976, -50.3658562, 9.0853662, -0.0068818
-0.6005859, -0.1586914, -0.2407227, -18.1707325, -47.2560997, 8.2317076, -0.0062104
-0.5981445, -0.1621094, -0.2338867, -18.4146347, -45.2439041, 7.5, -0.0095674
-0.5957031, -0.1591797, -0.2192383, -18.7195129, -41.0975609, 5.4268293, -0.0149386
-0.5991211, -0.1552734, -0.2045898, -19.0853672, -38.841465, 4.3292685, -0.0115816
-0.612793, -0.1523438, -0.1694336, -20.3658543, -35.6097565, 1.9512196, -0.0109102
-0.6210938, -0.1547852, -0.1538086, -20.5487804, -34.1463432, 1.0365853, -0.0129244
-0.6328125, -0.1601562, -0.1318359, -21.5243912, -31.9512196, -0.4268293, -0.0112459
-0.640625, -0.1679688, -0.1264648, -21.4634151, -30.9756107, -0.6097561, -0.0065461
-0.6401367, -0.1899414, -0.1132812, -20.7317085, -28.5975609, -1.0365853, -0.0043641
-0.6450195, -0.2006836, -0.1035156, -18.4756107, -24.8780499, -2.1341465, -0.0028534
-0.6430664, -0.1967773, -0.1040039, -17.3780499, -23.1707325, -2.8658538, -0.0045319
-0.6542969, -0.1787109, -0.109375, -15, -20.3658543, -4.9390244, -0.0095674
-0.6513672, -0.1699219, -0.1162109, -14.3902445, -18.3536587, -5.9756098, -0.0137636
-0.6567383, -0.1577148, -0.1210938, -13.4756098, -15.6707325, -8.1097565, -0.0206455
-0.6567383, -0.1508789, -0.1206055, -13.2926836, -14.5121956, -8.6585369, -0.0209812
-0.6508789, -0.1333008, -0.1416016, -12.9878054, -11.4024391, -10.4268293, -0.0246738
-0.6499023, -0.1254883, -0.1645508, -13.3536587, -9.8170738, -11.4634151, -0.0253452
-0.644043, -0.1254883, -0.2104492, -15.2439032, -6.5853658, -12.8048782, -0.0297093
-0.637207, -0.1259766, -0.2255859, -16.0975609, -5.4268293, -13.4146347, -0.0330663
-0.6220703, -0.1450195, -0.2294922, -16.7682934, -2.5, -14.4512196, -0.0337377
-0.5986328, -0.1547852, -0.1972656, -15.6707325, 2.0731707, -15.7926836, -0.033402
-0.5947266, -0.1503906, -0.1767578, -14.1463413, 5, -16.7073174, -0.0323949
-0.5986328, -0.1347656, -0.1357422, -11.7682934, 11.5243902, -19.1463413, -0.0337377
-0.6035156, -0.1269531, -0.1230469, -11.280488, 14.5121956, -20.7317085, -0.0307164
-0.628418, -0.1225586, -0.1064453, -12.1951218, 19.0243912, -22.9878063, -0.0310521
-0.6396484, -0.1279297, -0.1118164, -13.2317076, 20.4878044, -23.9634151, -0.0273594
-0.652832, -0.1401367, -0.1259766, -16.3414631, 21.4024391, -24.9390259, -0.0240024
-0.6489258, -0.1484375, -0.1264648, -17.5, 22.1951218, -25.3658543, -0.0250095
-0.6333008, -0.168457, -0.1040039, -17.560976, 24.5121956, -27.1341476, -0.0283665
-0.6235352, -0.1704102, -0.0913086, -16.5853653, 25.8536587, -28.6585369, -0.0293736
-0.6191406, -0.1625977, -0.0888672, -14.7560978, 29.8780499, -31.280489, -0.0292058
-0.6147461, -0.1538086, -0.1074219, -14.2073174, 33.4756088, -33.2317085, -0.0290379
-0.6079102, -0.1533203, -0.121582, -14.5121956, 35.3048782, -33.9024391, -0.0263523
-0.5996094, -0.1484375, -0.1689453, -16.1585369, 38.3536606, -35.2439041, -0.026688
-0.5927734, -0.1499023, -0.2060547, -17.2560978, 39.8170738, -35.6097565, -0.0229953
-0.578125, -0.1542969, -0.2553711, -19.4512196, 42.7439041, -35.9756088, -0.0182956
-0.5712891, -0.1591797, -0.2719727, -19.8170738, 44.9390259, -36.1585388, -0.0203098
-0.5473633, -0.1640625, -0.2753906, -19.1463413, 50.1219521, -37.3170738, -0.0216526
-0.5424805, -0.1586914, -0.2680664, -17.9268303, 52.9268303, -38.3536606, -0.0223239
-0.5410156, -0.1523438, -0.2563477, -16.4024391, 59.2073174, -41.5853653, -0.024506
-0.550293, -0.1499023, -0.2636719, -16.5853653, 62.1341476, -42.7439041, -0.0236667
-0.5698242, -0.1357422, -0.296875, -18.5365849, 66.7682953, -42.9878044, -0.0243381
-0.574707, -0.1337891, -0.3374023, -22.1341476, 68.6585388, -42.6829262, -0.0263523
-0.5649414, -0.1416016, -0.3525391, -23.3536587, 69.2682953, -43.0487823, -0.0270237
-0.534668, -0.1738281, -0.3647461, -24.9390259, 71.9512177, -44.0243912, -0.0229953
-0.515625, -0.1923828, -0.3564453, -24.9390259, 73.2926865, -44.8780479, -0.021149
-0.4951172, -0.2143555, -0.3349609, -23.8414631, 77.6219559, -47.4390259, -0.0203098
-0.4897461, -0.2216797, -0.3222656, -22.9878063, 79.8780518, -48.6585388, -0.0229953
-0.4916992, -0.21875, -0.3041992, -22.560976, 85.0609741, -50.6707344, -0.0246738
-0.5019531, -0.2128906, -0.2998047, -22.8048782, 87.3170776, -52.0121956, -0.023331
-0.5136719, -0.2070312, -0.2915039, -23.780489, 90.2439041, -53.3536606, -0.0240024
-0.5180664, -0.2075195, -0.2871094, -24.3292694, 91.1585388, -54.0853653, -0.0287022
-0.5249023, -0.206543, -0.3115234, -25.4878063, 92.5609741, -55.7926826, -0.0421302
-0.5253906, -0.1870117, -0.3793945, -27.560976, 94.2073212, -56.4024391, -0.0533761
-0.5253906, -0.1708984, -0.4208984, -29.1463413, 94.9390259, -56.6463432, -0.0572366
-0.5053711, -0.1611328, -0.4741211, -33.2926826, 96.0975647, -57.3780518, -0.0621042
-0.4912109, -0.1660156, -0.4853516, -35.4268303, 96.9512253, -57.9268303, -0.0669718
-0.4614258, -0.1679688, -0.4677734, -38.0487823, 98.5975647, -60.1219521, -0.0659648
-0.4550781, -0.1699219, -0.4477539, -38.7804871, 99.8780518, -61.1585388, -0.0587472
-0.4511719, -0.1621094, -0.3911133, -39.5731735, 103.7195129, -63.0487823, -0.057908
-0.4545898, -0.1572266, -0.3583984, -39.7560997, 105.9756088, -63.9634171, -0.0508583
-0.4765625, -0.1630859, -0.300293, -40.0609779, 108.7804871, -65.3658524, -0.0451514
-0.484375, -0.171875, -0.28125, -40.6707344, 109.3902435, -66.0365906, -0.0377661
-0.5053711, -0.2075195, -0.2783203, -41.0975609, 108.9024429, -66.2804871, -0.0303807
-0.503418, -0.2451172, -0.3100586, -41.6463432, 107.1341476, -66.2195129, -0.0243381
-0.4936523, -0.2583008, -0.3320312, -41.6463432, 106.4634171, -65.9146347, -0.0115816
-0.4682617, -0.2861328, -0.3706055, -40.8536606, 106.0365906, -65.9756088, -0.0018463
-0.4487305, -0.2954102, -0.3867188, -39.9390259, 106.5243912, -66.5853653, 0.0078889
-0.421875, -0.3007812, -0.4228516, -36.7073174, 108.7195129, -67.9878082, 0.0146029
-0.4130859, -0.2885742, -0.4389648, -34.6341476, 110.0609818, -69.0853653, 0.0193027
-0.409668, -0.2529297, -0.4643555, -31.2195129, 113.8414688, -70.6707306, 0.0186313
-0.4116211, -0.2397461, -0.4755859, -30.1829281, 115.7317123, -71.5243912, 0.014435
-0.4086914, -0.2202148, -0.4897461, -29.2073174, 118.5975647, -72.3170776, 0.0159457
-0.4111328, -0.2236328, -0.496582, -29.0853672, 119.146347, -72.8658524, 0.0169528
-0.4111328, -0.237793, -0.4970703, -28.9634151, 118.9634171, -72.6219559, 0.0152743
-0.3911133, -0.2636719, -0.4902344, -27.1951218, 118.5365906, -70.6097565, 0.0078889
-0.3754883, -0.2822266, -0.4897461, -25.1829281, 118.9634171, -70.1219559, 0.0045319
-0.3486328, -0.3037109, -0.5170898, -20.6097565, 121.0975647, -69.5731735, -0.0011749
-0.3457031, -0.3037109, -0.5498047, -18.5365849, 123.1097565, -69.5121994, -0.0008392
-0.3491211, -0.2895508, -0.6503906, -17.1951218, 127.5609818, -69.2073212, -0.0005035
-0.3574219, -0.2705078, -0.6982422, -17.9878044, 129.6341553, -68.9024429, -0.0028534
-0.3603516, -0.2163086, -0.7587891, -21.7073174, 132.0731812, -69.3292694, -0.0015106
-0.3530273, -0.1948242, -0.7651367, -24.2073174, 132.9268341, -70.3658524, -0.0058747
-0.3276367, -0.1806641, -0.7172852, -28.7195129, 133.1707306, -73.4756088, -0.0109102
-0.3076172, -0.1845703, -0.6791992, -31.0975609, 133.1707306, -76.7073212, -0.0095674
-0.284668, -0.2163086, -0.6318359, -31.5243912, 133.4756165, -77.6219559, -0.0142672
-0.2856445, -0.2504883, -0.6552734, -33.7195129, 134.146347, -76.5243912, -0.0186313
-0.2944336, -0.2709961, -0.6806641, -34.9390259, 134.8170776, -74.6341476, -0.0223239
-0.2978516, -0.3085938, -0.7260742, -38.1707344, 134.5731812, -70.9756088, -0.0224918
-0.2890625, -0.3168945, -0.7353516, -39.0243912, 135, -69.9390259, -0.0260166
-0.2680664, -0.3398438, -0.7246094, -39.2682953, 135.4268341, -69.8780518, -0.0270237
-0.2626953, -0.3535156, -0.703125, -38.3536606, 135.4878082, -70.5487823, -0.0283665
-0.2543945, -0.3647461, -0.6542969, -35, 137.2561035, -73.0487823, -0.0283665
-0.2597656, -0.3642578, -0.6396484, -33.3536606, 138.6585388, -74.2073212, -0.0263523
-0.2802734, -0.3452148, -0.644043, -31.4024391, 141.4024353, -75.7317123, -0.0290379
-0.2885742, -0.3393555, -0.6723633, -32.5609779, 141.5243988, -76.1585388, -0.0330663
-0.2954102, -0.3325195, -0.7446289, -34.3292694, 140.5487823, -76.0975647, -0.0310521
-0.2734375, -0.3496094, -0.8276367, -38.3536606, 135.8536682, -75.8536606, -0.0287022
-0.2602539, -0.3696289, -0.8642578, -40.1219521, 132.9878082, -75.6707306, -0.0240024
-0.203125, -0.4213867, -0.8789062, -40.3658562, 128.2926788, -75.5487823, -0.0199741
-0.1635742, -0.4506836, -0.8647461, -39.1463432, 127.1951218, -75.9146347, -0.0169528
-0.1040039, -0.4897461, -0.84375, -33.4756088, 128.4146423, -77.68293, -0.0182956
-0.1010742, -0.4892578, -0.8583984, -30.3658543, 131.0975647, -78.2926865, -0.0256809
-0.1240234, -0.4643555, -0.9350586, -26.5243912, 137.3780518, -77.9268341, -0.030045
-0.1411133, -0.4462891, -0.9775391, -26.0365868, 140.2439117, -76.8902435, -0.0354162
-0.1538086, -0.4125977, -1.0307617, -27.8048782, 142.4390259, -75.18293, -0.0350805
-0.1557617, -0.4008789, -1.0297852, -28.841465, 141.4024353, -76.0975647, -0.0374304
-0.1381836, -0.3842773, -0.984375, -28.6585369, 140.8536682, -77.2560959, -0.0350805
-0.125, -0.378418, -0.9555664, -27.8658543, 141.4634247, -80, -0.0337377
-0.1181641, -0.3837891, -0.9599609, -27.7439022, 142.8048859, -80.9756088, -0.0287022
-0.1196289, -0.3969727, -1.0004883, -28.9634151, 145.4268341, -80.3658524, -0.0250095
-0.1230469, -0.4003906, -1.0317383, -30.060976, 146.5853729, -79.0853653, -0.0276951
-0.1103516, -0.402832, -1.0703125, -33.4756088, 147.5609741, -77.3780518, -0.0256809
-0.097168, -0.4023438, -1.0629883, -35.4878044, 147.9268341, -77.4390259, -0.026688
-0.0761719, -0.3950195, -0.9995117, -38.3536606, 148.6585388, -78.8414688, -0.026688
-0.0708008, -0.3925781, -0.9384766, -39.3292694, 149.3292694, -80.18293, -0.0327306
-0.0776367, -0.3862305, -0.8237305, -40.4268303, 151.5243988, -83.1707306, -0.0357519
-0.0898438, -0.3813477, -0.777832, -42.7439041, 153.8414612, -84.0243912, -0.0377661
-0.1259766, -0.3808594, -0.7485352, -44.6951218, 153.7804871, -83.4146347, -0.0454871
-0.159668, -0.3833008, -0.7900391, -50.8536606, 151.8902435, -81.2804871, -0.0491798
-0.1674805, -0.3847656, -0.8217773, -54.0853653, 149.6341553, -79.6341476, -0.051194
-0.1411133, -0.4140625, -0.8813477, -59.8170738, 142.9878082, -78.2317123, -0.0505226
-0.1196289, -0.4296875, -0.8979492, -61.2804909, 140, -77.9268341, -0.047837
-0.0620117, -0.4755859, -0.9018555, -61.0975609, 135.6707306, -79.6341476, -0.0438087
-0.0327148, -0.4985352, -0.8818359, -59.6951218, 134.8780518, -80.7317123, -0.0464942
0.0107422, -0.534668, -0.7958984, -53.1097565, 135.36586, -84.0243912, -0.0424659
0.027832, -0.5537109, -0.7412109, -48.5365868, 136.2804871, -85.18293, -0.0352483
0.0170898, -0.5722656, -0.7050781, -37.4390259, 138.1097565, -87.2560959, -0.0323949
-0.0039062, -0.5668945, -0.75, -27.8658543, 138.0487823, -85.9146347, -0.0303807
-0.0703125, -0.5268555, -0.9921875, -25.7317085, 137.9268341, -82.9878082, -0.0236667
-0.1210938, -0.4790039, -1.2875977, -26.0975609, 137.6219482, -73.5365906, -0.018967
-0.1123047, -0.4726562, -1.3735352, -27.1951218, 136.9512177, -68.4756088, -0.0169528
-0.03125, -0.4765625, -1.3710938, -25.7926826, 136.3414612, -62.68293, -0.0152743
0.0234375, -0.4741211, -1.2885742, -22.1951218, 137.4390259, -63.1707344, -0.0149386
0.0952148, -0.4272461, -1.081543, -9.4512196, 145.9146423, -69.6341476, -0.0104067
0.0913086, -0.3969727, -1.0078125, -3.3536587, 152.2561035, -73.8414688, -0.012253
0.0253906, -0.3305664, -0.9467773, 2.0731707, 163.5365906, -78.5365906, -0.0095674
-0.0224609, -0.3125, -0.9541016, -0.2439024, 166.0365906, -78.1707306, -0.005539
-0.0771484, -0.3081055, -0.9765625, -11.1585369, 162.0731812, -73.1707306, -0.0015106
-0.0771484, -0.3222656, -0.9868164, -24.5731716, 151.0975647, -68.1707306, 0.0010071
-0.0488281, -0.355957, -1.0136719, -29.8780499, 146.2804871, -66.7682953, 0.0048676
-0.012207, -0.3789062, -1.0424805, -37.2560997, 142.0731812, -66.0365906, 0.0052033
0.0058594, -0.3886719, -1.0522461, -39.4512215, 142.4390259, -65.9756088, -0.0025177
0.0537109, -0.4213867, -1.0400391, -40.7317085, 145.6097565, -65.9756088, -0.0073854
0.0722656, -0.4355469, -1.0253906, -41.0975609, 147.5, -66.6463394, -0.0157778
0.1035156, -0.4633789, -0.9765625, -40.3048782, 148.9024353, -67.3170776, -0.0196384
0.105957, -0.4731445, -0.9511719, -40.1829262, 148.7195129, -67.8048782, -0.0258488
0.1040039, -0.4804688, -0.8950195, -40.6707344, 147.9268341, -67.2560959, -0.026688
0.0957031, -0.4799805, -0.8696289, -41.341465, 147.7439117, -66.9512177, -0.0288701
0.0776367, -0.4848633, -0.8422852, -41.8292694, 146.9512177, -66.7073212, -0.0350805
0.0620117, -0.4863281, -0.8515625, -41.8292694, 144.9390259, -66.8292694, -0.0320592
0.0351562, -0.5058594, -0.9150391, -41.6463432, 142.5609741, -67.1951218, -0.026688
0.0385742, -0.5517578, -1.0029297, -40.7317085, 136.8292694, -67.1341476, -0.0238346
0.0473633, -0.5805664, -1.0356445, -39.3292694, 133.4756165, -66.9512177, -0.0203098
0.0986328, -0.640625, -1.0664062, -33.5975609, 128.5365906, -67.1341476, -0.0184634
0.1279297, -0.6674805, -1.0634766, -29.3292694, 126.8292694, -67.1951218, -0.0184634
0.1699219, -0.6958008, -1.0629883, -17.7439022, 125.3048782, -68.1097565, -0.018967
0.1806641, -0.6933594, -1.0668945, -11.5853662, 126.1585388, -68.2317123, -0.0209812
0.1801758, -0.6679688, -1.0786133, 0.0609756, 129.4512177, -66.8292694, -0.0240024
0.1743164, -0.6445312, -1.0805664, 4.8170733, 131.646347, -65.9756088, -0.0196384
0.1557617, -0.578125, -1.0766602, 12.0731707, 135.7317047, -62.9268303, -0.0203098
0.140625, -0.4931641, -1.0551758, 15.6097565, 139.6341553, -61.0365868, -0.0166171
0.1352539, -0.4516602, -1.0439453, 16.4024391, 141.0365906, -60.9146347, -0.0135958
0.1328125, -0.3876953, -1.0205078, 14.5121956, 143.3536682, -62.0731735, -0.01561
0.1313477, -0.3681641, -1.0151367, 12.3780489, 143.9634247, -62.5, -0.005539
0.1430664, -0.3432617, -1.0258789, 5.8536587, 144.8170776, -63.0487823, -0.0028534
0.1538086, -0.3417969, -1.0366211, 1.8292683, 144.8780518, -62.9878082, 0.0041962
0.1791992, -0.3491211, -1.0620117, -5.7926831, 144.5731812, -62.3170738, 0.0058747
0.2011719, -0.3583984, -1.0693359, -9.4512196, 144.4512177, -61.6463432, 0.0052033
0.2426758, -0.3876953, -1.0883789, -16.9512196, 143.9634247, -60.6707344, 0.0025177
0.2631836, -0.4072266, -1.0854492, -20.060976, 143.1707306, -60.2439041, -0.0085603
0.3115234, -0.4458008, -1.0517578, -24.3902435, 142.9878082, -59.3292694, -0.0226596
0.3442383, -0.4750977, -1.0019531, -26.280489, 143.5365906, -58.2317085, -0.0313878
0.3535156, -0.4794922, -0.9975586, -26.1585369, 144.5731812, -58.4146347, -0.0391089
0.328125, -0.472168, -1.0566406, -26.3414631, 146.3414612, -58.1097565, -0.0417945
0.3056641, -0.4599609, -1.1098633, -27.3780499, 146.4024353, -56.7073174, -0.0488441
0.2783203, -0.440918, -1.1992188, -31.1585369, 144.6341553, -52.2560997, -0.051194
0.2763672, -0.4321289, -1.2084961, -33.4756088, 142.9878082, -50.3658562, -0.0515297
0.3203125, -0.4404297, -1.1367188, -37.0121956, 139.6951294, -49.3902435, -0.0520333
0.3535156, -0.4472656, -1.0678711, -37.3780479, 138.4756165, -50.5487823, -0.0540475
0.3974609, -0.4682617, -0.9511719, -34.1463432, 137.6829376, -55.18293, -0.0542153
0.3999023, -0.4755859, -0.9262695, -31.8292694, 137.86586, -57.0121956, -0.0488441
0.3725586, -0.503418, -0.9682617, -27.6219521, 138.0487823, -57.9268303, -0.0417945
0.3432617, -0.5395508, -1.0839844, -26.5853672, 136.0975647, -55.2439041, -0.0293736
0.3413086, -0.5615234, -1.1391602, -26.5243912, 134.146347, -53.1707344, -0.0176242
0.3735352, -0.6025391, -1.171875, -25.060976, 129.5121918, -50.3658562, -0.012253
0.4057617, -0.6196289, -1.1484375, -22.3170738, 127.86586, -50.4878044, -0.0008392
0.4760742, -0.6386719, -1.0332031, -13.2926836, 126.7682953, -52.9268303, 0.0058747
0.5053711, -0.6362305, -0.9677734, -6.9512196, 127.8048782, -55.4878044, 0.0068818
0.5249023, -0.6113281, -0.8764648, 5.3048782, 131.9512177, -60.3048782, 0.0085603
0.5166016, -0.5917969, -0.8603516, 10.3658543, 134.0853729, -61.8902435, 0.0095674
0.4711914, -0.546875, -0.8813477, 16.7073174, 137.0121918, -62.0731735, 0.0105745
0.4477539, -0.5234375, -0.909668, 17.9268303, 137.0121918, -61.0975609, 0.0102388
0.4204102, -0.4863281, -0.9492188, 18.5365849, 134.8170776, -58.3536606, 0.0062104
0.421875, -0.4614258, -0.965332, 18.9634151, 130.9756165, -56.4024391, 0.0050355
0.4296875, -0.4443359, -0.9580078, 19.939024, 129.6951294, -56.0365868, 0.0016785
0.4570312, -0.4169922, -0.9506836, 22.7439022, 129.146347, -55.9146347, -0.0015106
0.46875, -0.4047852, -0.9521484, 23.9634151, 130.0609741, -56.2804909, -0.008896
0.4760742, -0.375, -0.984375, 24.3292694, 133.1707306, -56.6463432, -0.0109102
0.4785156, -0.3623047, -1.0078125, 23.4146347, 134.3902435, -55.9146347, -0.0129244
0.4829102, -0.3442383, -1.0244141, 19.2073174, 135.8536682, -54.7560997, -0.0129244
0.4892578, -0.3417969, -1.0302734, 16.6463413, 135.4878082, -54.3902435, -0.01561
0.5141602, -0.3359375, -1.0688477, 10.4878054, 135.0609741, -53.5365868, -0.0263523
0.5151367, -0.3369141, -1.1103516, 7.1341467, 134.8780518, -53.1707344, -0.0431373
0.5009766, -0.3364258, -1.2294922, -0.5487805, 134.3292694, -51.341465, -0.0605936
0.4960938, -0.3383789, -1.3515625, -9.3902445, 133.7195129, -47.9268303, -0.0673075
0.5048828, -0.3393555, -1.3818359, -14.0243902, 133.0487823, -45.9146347, -0.0713359
0.5493164, -0.3388672, -1.3710938, -22.1951218, 131.5853729, -44.3292694, -0.0773785
0.5795898, -0.3408203, -1.3310547, -25.3048782, 131.0975647, -44.6951218, -0.0767071
0.640625, -0.3520508, -1.2060547, -29.5731716, 130.4878082, -47.9878044, -0.0726787
0.6552734, -0.362793, -1.1318359, -31.1585369, 131.2195129, -49.5731735, -0.0797284
0.6669922, -0.387207, -1.003418, -33.4146347, 132.6219482, -51.8292694, -0.0820783
0.659668, -0.4013672, -0.9570312, -35.0609779, 133.1707306, -52.1341476, -0.0864424
0.6352539, -0.4487305, -0.8999023, -36.5243912, 134.146347, -51.341465, -0.0908064
0.6220703, -0.4726562, -0.8867188, -36.8292694, 133.5975647, -50.9146347, -0.0830854
0.597168, -0.5175781, -0.8862305, -36.2195129, 131.8902435, -49.8170738, -0.0767071
0.5727539, -0.5473633, -0.9091797, -33.5365868, 129.3902435, -48.7804871, -0.0716716
0.5708008, -0.5566406, -0.9160156, -31.341465, 128.1097565, -48.3536606, -0.0599222
0.5932617, -0.559082, -0.9121094, -25.9756107, 125.8536606, -48.2317085, -0.0459907
0.6098633, -0.5522461, -0.8950195, -22.9268303, 124.6341476, -48.841465, -0.0297093
0.6494141, -0.5356445, -0.8530273, -15.4878054, 123.4756088, -50.9756126, -0.0135958
0.6611328, -0.5268555, -0.8305664, -12.0121956, 122.9268341, -52.4390259, -0.0015106
0.6777344, -0.5009766, -0.8012695, -5.5487804, 122.9268341, -54.8170738, 0.0115816
0.6772461, -0.4921875, -0.7958984, -3.2926829, 123.4756088, -55.7317085, 0.0219883
0.6650391, -0.4663086, -0.7983398, 0.3048781, 123.9634171, -56.0365868, 0.0290379
0.6582031, -0.4536133, -0.8154297, 1.3414634, 123.7804871, -55.7926826, 0.0354162
0.644043, -0.4394531, -0.8540039, 2.9268293, 122.9268341, -55.1219521, 0.040116
0.6357422, -0.4262695, -0.9072266, 3.9024391, 120.6707382, -54.6951218, 0.0387732
0.6347656, -0.4238281, -0.9360352, 4.5731707, 119.4512253, -54.2073174, 0.0414588
0.6489258, -0.4287109, -0.9736328, 5.609756, 117.0731735, -54.0853653, 0.0421302
0.6660156, -0.4326172, -0.9799805, 6.7073174, 115.9146347, -54.7560997, 0.0411231
0.7050781, -0.4418945, -0.9682617, 8.780488, 114.6341476, -55.7926826, 0.0317235
0.7211914, -0.4472656, -0.9462891, 10.6707315, 114.4512253, -57.0121956, 0.0290379
0.7490234, -0.4501953, -0.8984375, 13.841464, 115.1219559, -59.1463432, 0.0243381
0.7514648, -0.4453125, -0.8920898, 15.5487804, 116.3414688, -59.8170738, 0.0166171
0.7333984, -0.4301758, -0.9282227, 17.6829281, 117.8048782, -60.4878044, 0.0112459
0.7143555, -0.4111328, -0.9741211, 17.560976, 117.9268341, -60.1219521, 0.0038605
0.684082, -0.3930664, -1.0791016, 14.7560978, 117.1341476, -57.8658562, 0.0003357
0.6748047, -0.3740234, -1.1689453, 9.8170738, 114.2073212, -54.8170738, -0.0041962
0.6811523, -0.3696289, -1.184082, 6.890244, 112.3170776, -53.7804909, -0.0099031
0.7211914, -0.3608398, -1.1640625, 3.1707318, 108.7195129, -53.1707344, -0.0157778
0.7407227, -0.3540039, -1.1411133, 1.5853659, 108.1097565, -53.5975609, -0.0198062
0.7788086, -0.3354492, -1.0874023, -0.1829268, 109.3902435, -56.4634171, -0.0223239
0.7827148, -0.3271484, -1.065918, -1.5243902, 110.5487823, -57.7439041, -0.0297093
0.7734375, -0.3208008, -1.0332031, -5.7926831, 114.2073212, -58.841465, -0.0350805
0.7626953, -0.3183594, -1.012207, -8.719512, 115.2439041, -58.5365868, -0.0391089
0.7373047, -0.3125, -0.9638672, -14.8170738, 116.1585388, -56.4024391, -0.0404517
0.7294922, -0.309082, -0.9321289, -17.5, 115.5487823, -55.3658562, -0.0404517
0.7260742, -0.3012695, -0.8588867, -20.2439022, 113.9634171, -54.0243912, -0.0364233
0.7314453, -0.3120117, -0.8007812, -19.6951218, 111.4634171, -54.2682953, -0.0357519
0.7319336, -0.3164062, -0.7783203, -18.6585369, 110.3048782, -54.5121956, -0.0448157
0.7329102, -0.3369141, -0.7348633, -16.7682934, 109.0853653, -54.2073174, -0.0493477
0.7324219, -0.3432617, -0.7124023, -15.3048782, 108.3536606, -53.2926826, -0.0542153
0.7392578, -0.3544922, -0.6816406, -12.5, 107.4390259, -51.4634171, -0.0572366
0.753418, -0.3583984, -0.6733398, -10.6097565, 106.5853653, -50.7317085, -0.0585794
0.7666016, -0.3574219, -0.6943359, -6.890244, 104.3902435, -49.5121956, -0.0582437
0.7695312, -0.3554688, -0.7255859, -5.4878049, 102.8658524, -48.7804871, -0.0693217
0.7763672, -0.3510742, -0.8139648, -4.5731707, 100.18293, -47.1951218, -0.0740215
0.7788086, -0.3466797, -0.8569336, -4.5121951, 96.7682953, -45.7926826, -0.073518
0.800293, -0.3452148, -0.9248047, -5.4878049, 94.8780518, -44.8170738, -0.0726787
0.8369141, -0.3486328, -0.9462891, -5.8536587, 91.8292694, -44.5731735, -0.0741894
0.8583984, -0.3549805, -0.9458008, -6.0975609, 91.2195129, -44.9390259, -0.0693217
0.8930664, -0.371582, -0.9125977, -5.1219511, 91.7073212, -46.8292694, -0.061265
0.8964844, -0.378418, -0.8969727, -4.7560978, 92.7439041, -47.8048782, -0.0595865
0.8911133, -0.3911133, -0.8686523, -3.4756098, 95.4268341, -49.1463432, -0.0592508
0.8774414, -0.3955078, -0.8613281, -3.2317073, 96.646347, -49.3902435, -0.0505226
0.8461914, -0.4072266, -0.8544922, -3.6585367, 98.1707306, -48.7804871, -0.0406195
0.8266602, -0.4082031, -0.8608398, -3.8414636, 97.8048782, -48.2317085, -0.0283665
0.7993164, -0.4033203, -0.8710938, -4.8780489, 96.4634171, -46.341465, -0.0216526
0.7905273, -0.3994141, -0.8754883, -4.9390244, 94.2682953, -44.5731735, -0.0176242
0.7895508, -0.3823242, -0.8764648, -4.9390244, 93.2317123, -43.841465, -0.0176242
0.8056641, -0.3569336, -0.8671875, -3.5975611, 91.4024429, -44.0243912, -0.0119173
0.8164062, -0.3476562, -0.8598633, -2.4390244, 90.6707306, -44.2682953, -0.0072175
0.8344727, -0.3310547, -0.8339844, -0.7926829, 89.8780518, -45.5487823, -0.0010071
0.8417969, -0.328125, -0.8266602, -0.3658537, 90, -46.2804871, 0.0058747
0.8442383, -0.3154297, -0.8271484, -0.5487805, 90.6097565, -46.6463432, 0.0154421
0.840332, -0.3120117, -0.8212891, -1.3414634, 91.1585388, -46.4634171, 0.0273594
0.831543, -0.2998047, -0.8183594, -3.4146342, 91.2195129, -45.1829262, 0.0374304
0.828125, -0.296875, -0.8129883, -4.8170733, 91.0365906, -44.5731735, 0.0441444
0.8173828, -0.2910156, -0.7929688, -7.0121951, 90.0609741, -44.0243912, 0.0379339
0.8139648, -0.2949219, -0.7822266, -7.5, 88.9024429, -44.3902435, 0.0283665
0.8100586, -0.3041992, -0.7724609, -7.6219516, 88.3536606, -44.5731735, 0.0213169
0.8017578, -0.3100586, -0.7817383, -7.5, 87.1341476, -44.0853653, 0.0191348
0.800293, -0.3144531, -0.7890625, -7.5, 86.8902435, -43.841465, 0.0132601
0.8032227, -0.3251953, -0.8085938, -8.3536587, 85.2439041, -42.7439041, 0.0075532
0.8007812, -0.3354492, -0.8134766, -8.719512, 84.3292694, -42.3170738, -0.0008392
0.809082, -0.3457031, -0.8056641, -9.5121956, 82.8658524, -41.6463432, -0.0008392
0.8178711, -0.347168, -0.793457, -9.5731707, 82.6219559, -41.5853653, 0.0028534
0.8261719, -0.3486328, -0.7563477, -8.4756098, 83.2317123, -41.8902435, -0.0001678
0.828125, -0.3461914, -0.7368164, -7.9878049, 83.5365906, -42.0731735, -0.0035248
0.8183594, -0.3354492, -0.7060547, -6.0975609, 84.8780518, -42.2560997, -0.0015106
0.8164062, -0.3295898, -0.6943359, -4.3292685, 85.4268341, -42.7439041, -0.0005035
0.8076172, -0.3183594, -0.6870117, -3.9024391, 85.3658524, -42.5609779, -0.0038605
0.7973633, -0.3183594, -0.6884766, -3.8414636, 84.4512253, -41.8292694, -0.0018463
0.7958984, -0.315918, -0.6962891, -4.2682929, 83.7804871, -41.4634171, -0.0041962
0.8027344, -0.3183594, -0.7109375, -4.3292685, 82.0731735, -40.0609779, -0.005539
0.8066406, -0.3271484, -0.7143555, -4.0853658, 81.0975647, -39.5731735, -0.005539
0.8242188, -0.3325195, -0.7241211, -3.2317073, 79.5121994, -39.2073174, -0.0065461
0.8369141, -0.3364258, -0.7265625, -2.6219513, 79.0243912, -39.0243912, -0.0082246
0.8564453, -0.3481445, -0.7260742, -0.7926829, 78.4756088, -39.3902435, -0.0139315
0.8623047, -0.3461914, -0.7290039, -0.4268293, 78.4146347, -39.5121956, -0.0203098
0.8588867, -0.3466797, -0.7348633, -0.3048781, 79.146347, -39.3292694, -0.0236667
0.8535156, -0.3457031, -0.7416992, -0.8536586, 79.6341476, -38.5975609, -0.0219883
0.8393555, -0.3334961, -0.7470703, -1.2804878, 79.7560959, -38.0487823, -0.0206455
0.8383789, -0.3144531, -0.7421875, -2.1341465, 79.9390259, -37.5609779, -0.0223239
0.84375, -0.309082, -0.7387695, -2.3170731, 80, -37.4390259, -0.0229953
0.8461914, -0.3022461, -0.7338867, -2.6219513, 79.8780518, -37.9268303, -0.0283665
0.8447266, -0.2963867, -0.7290039, -2.1341465, 80.3658524, -38.4146347, -0.0297093
0.8364258, -0.2841797, -0.7333984, -2.7439024, 80.8536606, -38.2926826, -0.036759
0.8330078, -0.2749023, -0.7358398, -2.9268293, 81.1585388, -37.7439041, -0.0417945
0.8344727, -0.2646484, -0.7431641, -4.1463413, 80.6707306, -36.5853653, -0.0370947
0.8374023, -0.2578125, -0.7416992, -4.9390244, 80.6097565, -36.1585388, -0.0310521
0.8510742, -0.2568359, -0.7402344, -6.5853658, 79.6951218, -36.341465, -0.0243381
0.8544922, -0.2661133, -0.7353516, -7.3170733, 79.2073212, -36.9512215, -0.0221561
0.8623047, -0.277832, -0.7255859, -7.6219516, 79.3902435, -37.1341476, -0.0199741
0.8657227, -0.2954102, -0.7138672, -8.3536587, 79.2682953, -37.3170738, -0.0152743
0.862793, -0.2993164, -0.7075195, -8.2317076, 79.5731735, -37.4390259, -0.0062104
0.8691406, -0.3071289, -0.6982422, -8.4756098, 79.8170776, -37.1341476, -0.0062104
0.8662109, -0.3066406, -0.6933594, -8.5365858, 80.0609741, -36.7682953, -0.0028534
0.862793, -0.3105469, -0.6772461, -8.4146347, 80.3658524, -37.2560997, 0.0005035
0.8608398, -0.3154297, -0.6708984, -8.2317076, 80.1219559, -37.0121956, 0.0018463
0.875, -0.3203125, -0.6586914, -7.6219516, 79.6341476, -37.0121956, -0.0075532
0.8764648, -0.3227539, -0.6513672, -7.1341467, 79.0853653, -37.0731697, -0.0169528
0.8769531, -0.3168945, -0.6420898, -6.7682929, 78.5365906, -36.8292694, -0.0280308
0.8759766, -0.3115234, -0.6357422, -6.7682929, 77.68293, -35.9146347, -0.0451514
0.8828125, -0.3076172, -0.6240234, -6.890244, 77.1951218, -35.9756088, -0.0679789
0.8994141, -0.3007812, -0.6132812, -6.7682929, 76.4024429, -36.0975609, -0.079057
0.9082031, -0.3046875, -0.6108398, -6.6463418, 75.4878082, -36.0975609, -0.0871138
0.9204102, -0.3032227, -0.6113281, -6.4024391, 74.2682953, -36.5243912, -0.1005417
0.9199219, -0.3076172, -0.6083984, -6.0975609, 74.0243912, -36.8292694, -0.1079271
0.9223633, -0.3115234, -0.6162109, -5.8536587, 73.2926865, -36.0975609, -0.1131304
0.9204102, -0.3100586, -0.6264648, -5.609756, 73.1707306, -35.4878044, -0.1190051
0.9125977, -0.2963867, -0.6503906, -5.7317076, 72.0731735, -34.2682953, -0.1218585
0.9018555, -0.2871094, -0.6606445, -6.0975609, 71.4024429, -33.5365868, -0.1183337
0.9018555, -0.2680664, -0.6782227, -6.7682929, 69.6951218, -32.6219521, -0.0978561
0.9204102, -0.2529297, -0.6899414, -7.3170733, 67.5, -32.5609779, -0.0679789
0.9262695, -0.2514648, -0.6835938, -7.5609756, 66.6463394, -32.7439041, -0.0340734
0.9326172, -0.2504883, -0.6743164, -7.8048782, 65.7317123, -33.1707306, -0.005539
0.9326172, -0.2475586, -0.6616211, -7.9268293, 65.4268341, -33.4756088, 0.0250095
0.9277344, -0.2416992, -0.6469727, -8.4756098, 64.8780518, -33.1707306, 0.0424659
0.9272461, -0.2358398, -0.6381836, -9.0243902, 64.4512177, -32.8048782, 0.0411231
0.925293, -0.2363281, -0.6347656, -9.7560978, 63.2926826, -32.0121956, 0.0320592
0.925293, -0.2373047, -0.6303711, -10.3658543, 62.4390259, -31.8902454, 0.0162814
0.9189453, -0.2470703, -0.6220703, -11.7073174, 60.4268303, -30.6097565, 0.002182
0.9208984, -0.2485352, -0.6245117, -12.2560978, 59.3292694, -30.2439022, -0.0102388
0.9272461, -0.2524414, -0.6191406, -12.1341467, 57.1341476, -29.3902454, -0.0152743
0.9282227, -0.2553711, -0.6005859, -11.6463413, 55.7926826, -28.5365868, -0.0317235
0.9243164, -0.2578125, -0.5913086, -11.4024391, 55.0609779, -28.5365868, -0.0438087
0.9223633, -0.2573242, -0.5717773, -10.5487804, 53.9024391, -28.2926826, -0.051194
0.9179688, -0.2504883, -0.5625, -10.6707315, 53.6585388, -28.2317085, -0.06009
0.9145508, -0.2348633, -0.543457, -10.8536587, 52.0121956, -27.7439022, -0.0733501
0.9145508, -0.2265625, -0.534668, -11.219512, 50.9146347, -27.1341476, -0.0835889
0.9165039, -0.2099609, -0.5200195, -12.4390249, 48.6585388, -25.7317085, -0.0981918
0.9169922, -0.2060547, -0.519043, -13.1097565, 47.3170738, -25.1219521, -0.103563
0.9213867, -0.2011719, -0.5166016, -14.2682934, 44.6341476, -23.9024391, -0.1122911
0.9194336, -0.1943359, -0.5161133, -14.7560978, 43.1707344, -23.1707325, -0.1193408
0.9306641, -0.1835938, -0.5253906, -15.6097565, 41.0365868, -21.4634151, -0.1143053
0.9433594, -0.1850586, -0.543457, -16.4634151, 39.0243912, -20.9756107, -0.0975204
0.9448242, -0.1904297, -0.5566406, -16.5243912, 37.8048782, -20.3658543, -0.0810712
0.9482422, -0.2080078, -0.5839844, -18.2317085, 35.2439041, -19.5121956, -0.036759
0.949707, -0.2236328, -0.5981445, -18.8414631, 33.9634171, -19.1463413, 0.0119173
0.9360352, -0.253418, -0.6191406, -21.0975609, 32.2560997, -17.9268303, 0.0547189
0.9335938, -0.2661133, -0.6186523, -21.8292694, 31.341465, -16.8902435, 0.0914778
0.9155273, -0.2866211, -0.6176758, -22.9268303, 29.5731716, -15.5487804, 0.1220264
0.90625, -0.2856445, -0.6152344, -23.1097565, 28.7195129, -15.1219511, 0.1472038
0.8930664, -0.2851562, -0.6030273, -22.1951218, 26.1585369, -14.8170738, 0.1616388
0.8857422, -0.2832031, -0.6020508, -21.6463413, 24.7560978, -14.8170738, 0.1606317
0.8896484, -0.2817383, -0.5898438, -20.060976, 21.7682934, -14.6341467, 0.1643244
0.8959961, -0.2836914, -0.5776367, -19.5121956, 18.4756107, -14.0853662, 0.1535821
0.9038086, -0.2861328, -0.5712891, -19.4512196, 17.0121956, -13.780488, 0.1354543
0.9150391, -0.277832, -0.5639648, -19.3292694, 14.6341467, -12.5, 0.1200122
0.9223633, -0.2788086, -0.5561523, -19.3292694, 13.4146347, -11.9512196, 0.0988632
0.9248047, -0.2763672, -0.5483398, -19.6341476, 11.5853662, -11.0365858, 0.0814069
0.9277344, -0.2680664, -0.5488281, -19.8780499, 10.7926836, -10.6097565, 0.0642863
0.9277344, -0.2651367, -0.5478516, -20.4878044, 8.1097565, -9.6951218, 0.0475013
0.9301758, -0.2666016, -0.5493164, -20.6097565, 6.7073174, -8.9634151, 0.0290379
0.9316406, -0.2685547, -0.5498047, -20.7926826, 4.5731707, -7.5609756, 0.0092317
0.9370117, -0.2675781, -0.5454102, -20.6707325, 3.4146342, -7.1951222, -0.005539
0.934082, -0.2666016, -0.5493164, -20.060976, 2.2560976, -6.4634147, -0.0132601
0.9208984, -0.2514648, -0.5683594, -20.3048782, 1.097561, -5.4268293, -0.0182956
0.9145508, -0.25, -0.581543, -20.4878044, 0.4878049, -4.6951222, -0.0297093
0.9101562, -0.2456055, -0.6079102, -22.2560978, -1.8902439, -3.5365853, -0.0406195
0.9130859, -0.2509766, -0.621582, -23.2317085, -3.2317073, -2.9878049, -0.043473
0.9204102, -0.2680664, -0.6396484, -25.060976, -5.3048782, -2.5, -0.0411231
0.9228516, -0.2802734, -0.6416016, -25.6707325, -6.1585369, -2.1341465, -0.0464942
0.9125977, -0.2998047, -0.6430664, -26.7073174, -7.0121951, -1.3414634, -0.0461585
0.9116211, -0.3017578, -0.6411133, -26.5853672, -7.2560978, -1.0365853, -0.0471656
0.8999023, -0.2993164, -0.6298828, -26.5243912, -7.6219516, -0.1219512, -0.0515297
0.8959961, -0.2978516, -0.6259766, -26.5243912, -8.0487804, 0.0609756, -0.0461585
0.8862305, -0.2954102, -0.6152344, -26.4024391, -9.2682924, 0.1829268, -0.0498512
0.8813477, -0.296875, -0.621582, -26.4634151, -10.9756098, 0.9146342, -0.0464942
0.8813477, -0.3007812, -0.6298828, -27.1951218, -12.0731707, 1.7073171, -0.0459907
0.8881836, -0.3037109, -0.644043, -28.5365868, -13.7195129, 2.804878, -0.0498512
0.8896484, -0.3071289, -0.6484375, -28.9634151, -14.8780489, 3.7804878, -0.0619364
0.8959961, -0.3046875, -0.6577148, -29.3902454, -15.8536587, 5.0609756, -0.0736858
0.9023438, -0.2988281, -0.6645508, -29.5731716, -16.1585369, 5.1829271, -0.0746929
0.9023438, -0.2939453, -0.6787109, -30, -16.9512196, 5.5487804, -0.0827497
0.9013672, -0.2939453, -0.6831055, -30.1829281, -17.6219521, 6.0975609, -0.0881209
0.8950195, -0.2973633, -0.6884766, -31.0975609, -18.6585369, 6.5243902, -0.0871138
0.8916016, -0.2983398, -0.6865234, -31.9512196, -19.3292694, 7.0121951, -0.0834211
0.8789062, -0.2993164, -0.6630859, -33.6585388, -20.5487804, 8.3536587, -0.0807355
0.8837891, -0.3037109, -0.6411133, -34.1463432, -22.0121956, 9.2073174, -0.0750286
0.8813477, -0.3061523, -0.6303711, -33.9024391, -22.3780499, 9.2682924, -0.0693217
0.8735352, -0.3120117, -0.6181641, -34.2073174, -24.3902435, 9.7560978, -0.0652934
0.8735352, -0.3149414, -0.6186523, -34.1463432, -25.5487804, 10.4878054, -0.0632792
0.8774414, -0.3198242, -0.6230469, -34.1463432, -28.1707325, 11.6463413, -0.0609293
0.8789062, -0.324707, -0.6235352, -34.1463432, -29.6951218, 12.5, -0.0565652
0.8837891, -0.3330078, -0.6254883, -34.0853653, -31.9512196, 13.6585369, -0.047837
0.8837891, -0.3300781, -0.6254883, -33.841465, -33.1097565, 14.2073174, -0.0417945
0.8911133, -0.3242188, -0.6132812, -32.8048782, -35.0609779, 14.9390249, -0.0360876
0.8925781, -0.3242188, -0.6113281, -32.6219521, -35.7317085, 15.4268293, -0.0330663
0.8969727, -0.3217773, -0.605957, -31.5243912, -37.5, 15.4268293, -0.0340734
0.8876953, -0.3164062, -0.6054688, -30.6707325, -39.1463432, 15.9756098, -0.0350805
0.878418, -0.315918, -0.6079102, -30.6707325, -40.3048782, 16.5853653, -0.0417945
0.8793945, -0.3007812, -0.6201172, -30.6097565, -42.5609779, 18.3536587, -0.051194
0.878418, -0.2958984, -0.6230469, -30.6097565, -44.5121956, 18.9024391, -0.047837
0.8925781, -0.2880859, -0.6313477, -30.7317085, -47.5, 20.060976, -0.0372625
0.9033203, -0.2939453, -0.6342773, -30.8536587, -48.9634171, 20.060976, -0.0293736
0.9165039, -0.3066406, -0.6401367, -31.1585369, -51.0365868, 20, -0.0236667
0.9228516, -0.3193359, -0.6386719, -31.4024391, -52.1341476, 20.1219521, -0.0179599
0.9208984, -0.3422852, -0.6391602, -31.280489, -53.841465, 21.0365868, -0.0149386
0.9165039, -0.3476562, -0.6396484, -31.0365868, -54.5731735, 21.5853672, -0.0246738
0.9140625, -0.3500977, -0.6391602, -29.5731716, -56.5853653, 22.9268303, -0.0347448
0.9052734, -0.3398438, -0.6425781, -28.2317085, -58.4756126, 23.9024391, -0.0344091
0.9038086, -0.3276367, -0.6484375, -27.0731716, -59.3902435, 24.5121956, -0.0354162
0.9013672, -0.3041992, -0.6635742, -25.8536587, -61.341465, 25.6097565, -0.0360876
0.9086914, -0.2910156, -0.6699219, -25.3048782, -62.68293, 26.3414631, -0.0323949
0.921875, -0.269043, -0.6801758, -25.2439022, -64.7560959, 26.7682934, -0.0223239
0.9272461, -0.2612305, -0.6914062, -25.5487804, -65.4878082, 27.1951218, -0.0095674
0.9291992, -0.2543945, -0.703125, -26.7073174, -67.7439041, 27.7439022, 0.0015106
0.9306641, -0.2543945, -0.7094727, -27.8048782, -68.4756088, 28.0487804, 0.0105745
0.9277344, -0.2685547, -0.7294922, -29.6341476, -70.6097565, 28.9634151, 0.0115816
0.9272461, -0.2763672, -0.7260742, -32.1341476, -72.5609741, 29.9390259, 0.0166171
0.9248047, -0.2993164, -0.7143555, -32.6219521, -73.4146347, 29.9390259, 0.002182
0.9140625, -0.3129883, -0.7055664, -32.7439041, -75.2439041, 30.7317085, -0.0090639
0.9091797, -0.3212891, -0.7045898, -32.7439041, -76.0975647, 31.5853672, -0.01561
0.8989258, -0.3212891, -0.7265625, -32.1341476, -78.1707306, 32.5609779, -0.0229953
0.8955078, -0.3193359, -0.7426758, -31.8902454, -79.3902435, 33.5365868, -0.0298772
0.8984375, -0.3100586, -0.7739258, -32.0731697, -82.3780518, 35.3658562, -0.0357519
0.9038086, -0.3012695, -0.7890625, -32.2560997, -84.0853653, 35.9756088, -0.0404517
0.9160156, -0.2792969, -0.7866211, -32.9878044, -86.4634171, 36.9512215, -0.0464942
0.9262695, -0.2729492, -0.7773438, -33.4146347, -87.6219559, 37.4390259, -0.0565652
0.9277344, -0.2412109, -0.7573242, -34.8170738, -88.9024429, 38.1707344, -0.0616007
0.9243164, -0.230957, -0.7475586, -36.7073174, -91.0365906, 38.7195129, -0.0661326
0.9204102, -0.2114258, -0.7265625, -38.4146347, -92.4390259, 39.0243912, -0.0713359
0.9145508, -0.2060547, -0.71875, -41.9512215, -95.3658524, 40.1219521, -0.073518
0.9194336, -0.2128906, -0.715332, -43.3536606, -97.2561035, 40.6097565, -0.0663005
0.9262695, -0.2392578, -0.7124023, -46.0365868, -100.6097565, 41.6463432, -0.0500191
0.9301758, -0.2543945, -0.7080078, -46.5853653, -102.5609818, 41.5243912, -0.0323949
0.9350586, -0.2851562, -0.7070312, -46.4634171, -105.7317123, 41.8902435, -0.0256809
0.9360352, -0.3007812, -0.7114258, -46.1585388, -107.0731735, 42.3780479, -0.0377661
0.925293, -0.3154297, -0.722168, -44.5121956, -108.9634171, 43.841465, -0.0733501
0.9223633, -0.3154297, -0.7285156, -43.841465, -110.1219559, 44.6951218, -0.117998
0.9150391, -0.3173828, -0.7412109, -42.7439041, -111.8292694, 45.9146347, -0.1421683
0.9130859, -0.3149414, -0.7431641, -41.7682953, -115, 46.5853653, -0.160296
0.9160156, -0.3022461, -0.746582, -41.4024391, -116.7682953, 47.0121956, -0.1720455
0.9306641, -0.2958984, -0.7558594, -40.4268303, -120.2439041, 47.8048782, -0.1790951
0.9301758, -0.2939453, -0.7617188, -39.8170738, -121.5853653, 47.9878044, -0.1841306
0.9355469, -0.2924805, -0.7817383, -39.6341476, -124.9390259, 48.6585388, -0.188159
0.9423828, -0.2905273, -0.7973633, -39.5731735, -127.0121994, 49.0853653, -0.1905089
0.9443359, -0.2900391, -0.8144531, -40.1219521, -130.2439117, 50.1829262, -0.1888304
0.9462891, -0.2939453, -0.8173828, -40.4878044, -131.646347, 50.3658562, -0.1733883
0.9433594, -0.2988281, -0.8061523, -40.2439041, -134.6341553, 51.1585388, -0.1408255
0.9438477, -0.300293, -0.7958984, -40, -135.7317047, 51.8902435, -0.0955062
0.940918, -0.2963867, -0.777832, -38.0487823, -137.6829376, 52.0731735, -0.0488441
0.9365234, -0.2998047, -0.7695312, -36.5243912, -139.8780518, 52.7439041, 0.0045319
0.9335938, -0.3056641, -0.7568359, -35.6707344, -141.1585388, 53.0487823, 0.057908
0.9365234, -0.309082, -0.7490234, -33.5365868, -143.0487823, 53.3536606, 0.0988632
0.9311523, -0.3105469, -0.753418, -32.2560997, -144.0853729, 53.7195129, 0.1270619
0.9238281, -0.2993164, -0.7827148, -30.3658543, -146.0365906, 54.6951218, 0.152575
0.921875, -0.2924805, -0.800293, -30, -147.1341553, 55.4268303, 0.1728847
0.9057617, -0.2788086, -0.8442383, -29.1463413, -149.2682953, 56.4024391, 0.1967193
0.8994141, -0.2719727, -0.8652344, -29.0853672, -150.3048859, 57.2560997, 0.2133364
0.8979492, -0.2587891, -0.8950195, -29.6951218, -152.5609741, 57.9268303, 0.2180362
0.9042969, -0.2539062, -0.909668, -30.060976, -153.3536682, 57.9878044, 0.2163577
0.9072266, -0.2558594, -0.9306641, -30.9146347, -154.8780518, 58.1097565, 0.2124971
0.9086914, -0.2563477, -0.9433594, -32.5, -156.2195129, 57.9878044, 0.1938659
0.9067383, -0.253418, -0.9624023, -33.4756088, -156.8292694, 58.1097565, 0.1656672
0.9047852, -0.2514648, -0.9863281, -35.9756088, -157.9268341, 58.4146347, 0.1317617
0.8999023, -0.2524414, -1.0014648, -37.1951218, -158.5975647, 58.7195129, 0.1042344
0.8891602, -0.2558594, -1.0175781, -40.2439041, -160.2439117, 60.18293, 0.0793927
0.8896484, -0.2626953, -1.015625, -41.4024391, -161.1585388, 60.6707344, 0.0575723
0.8867188, -0.2641602, -1.012207, -42.9268303, -162.3170776, 61.341465, 0.040116
0.8852539, -0.2617188, -1, -43.4146347, -162.5609741, 61.5243912, 0.0287022
0.8789062, -0.2509766, -0.9765625, -43.841465, -163.2926941, 61.9512215, 0.0193027
0.8774414, -0.2553711, -0.9628906, -43.6585388, -163.5975647, 62.0121956, 0.017792
0.8793945, -0.2529297, -0.9272461, -43.0487823, -164.7561035, 62.1341476, 0.0179599
0.8793945, -0.2578125, -0.9106445, -42.3170738, -165.4878082, 62.5, 0.0099031
0.8779297, -0.2719727, -0.8842773, -41.6463432, -166.2804871, 62.5, -0.0109102
0.8803711, -0.2836914, -0.875, -40.3048782, -167.3170776, 62.8658562, -0.0280308
0.8774414, -0.2905273, -0.8745117, -39.6341476, -168.1707306, 62.9878082, -0.0505226
0.8759766, -0.3066406, -0.8911133, -37.9878044, -169.9390259, 63.4146347, -0.0800641
0.8725586, -0.3193359, -0.9082031, -37.1951218, -171.3414612, 64.0243912, -0.1079271
0.8657227, -0.3442383, -0.9448242, -35.6707344, -173.4146423, 64.9390259, -0.1384756
0.859375, -0.3481445, -0.9658203, -34.5121956, -174.3292694, 65.7317123, -0.1727169
0.8579102, -0.3691406, -1.0126953, -32.8658562, -175.9146423, 66.5243912, -0.2056153
0.859375, -0.3725586, -1.0341797, -31.8902454, -176.2195129, 66.7073212, -0.2378424
0.8564453, -0.3647461, -1.0703125, -30, -176.7073212, 67.1341476, -0.2462348
0.855957, -0.3500977, -1.0878906, -29.3292694, -177.3780518, 67.1951218, -0.2324712
0.8588867, -0.3320312, -1.097168, -29.0243912, -177.3170776, 67.1951218, -0.2180362
0.8686523, -0.3168945, -1.0664062, -29.5121956, -177.6219482, 66.4024429, -0.1849699
0.8696289, -0.3110352, -1.0473633, -29.4512196, -177.4390259, 65.5487823, -0.1467002
0.8642578, -0.3134766, -1.0136719, -29.2073174, -179.0853729, 63.3536606, -0.0921492
0.8583984, -0.3212891, -1.0048828, -29.2682934, -179.6951294, 63.1097565, -0.0229953
0.8364258, -0.3442383, -0.9956055, -29.0853672, -181.646347, 62.4390259, 0.0505226
0.8193359, -0.359375, -0.9936523, -29.0243912, -182.86586, 62.8658562, 0.1185016
0.8037109, -0.3813477, -0.9951172, -27.6829281, -184.7561035, 63.9634171, 0.170367
0.7988281, -0.3935547, -0.9902344, -26.1585369, -185.6097565, 64.5121994, 0.2032654
0.7939453, -0.4194336, -0.9707031, -22.560976, -187.6829376, 64.6951218, 0.2190433
0.7954102, -0.4248047, -0.9580078, -17.1341476, -189.6341553, 63.5975609, 0.2187076
0.8012695, -0.4360352, -0.9414062, -14.6341467, -190.0609741, 62.9878082, 0.2072938
0.7993164, -0.453125, -0.9482422, -9.3292685, -191.5243988, 61.4634171, 0.1864805
0.8007812, -0.4560547, -0.9536133, -6.7073174, -191.8292694, 61.1585388, 0.1535821
0.7885742, -0.46875, -0.9819336, -1.402439, -192.3780518, 60.6707344, 0.1279011
0.7822266, -0.4711914, -1.0024414, 1.4634147, -192.3780518, 60.7317085, 0.1084306
0.7646484, -0.4624023, -1.0712891, 6.5243902, -192.1951294, 60.8536606, 0.0882887
0.7509766, -0.449707, -1.1147461, 8.3536587, -192.2561035, 61.4024391, 0.0803998
0.7329102, -0.4213867, -1.1933594, 11.341464, -192.1951294, 62.5609779, 0.0703288
0.7299805, -0.4013672, -1.2216797, 12.2560978, -191.9512177, 63.0487823, 0.0589151
0.7353516, -0.3774414, -1.2333984, 13.4756098, -191.8292694, 62.9268303, 0.0513619
0.769043, -0.3598633, -1.1923828, 13.5365858, -191.9512177, 61.5853691, 0.0466621
0.7763672, -0.3613281, -1.1660156, 13.2926836, -191.7682953, 60.3658562, 0.04448
0.7797852, -0.3642578, -1.128418, 12.4390249, -191.3414612, 58.2926826, 0.0310521
0.769043, -0.3681641, -1.1328125, 11.6463413, -191.0365906, 58.2317085, 0.0179599
0.7294922, -0.390625, -1.1401367, 9.5121956, -191.0365906, 59.3902435, 0.0206455
0.7124023, -0.4047852, -1.1381836, 8.4146347, -191.0365906, 60.7317085, 0.0099031
0.6992188, -0.4267578, -1.1118164, 7.7439027, -191.8902435, 62.8658562, -0.0031891
0.6982422, -0.4350586, -1.0888672, 8.2317076, -192.3170776, 63.4146347, -0.0250095
0.6958008, -0.4477539, -1.0317383, 10.4268293, -193.4756165, 62.9878082, -0.0505226
0.6943359, -0.4575195, -1.0097656, 11.5243902, -193.6585388, 62.2560997, -0.0740215
0.6782227, -0.4790039, -0.9750977, 13.4146347, -194.0853729, 61.341465, -0.1005417
0.668457, -0.496582, -0.9643555, 14.6951227, -194.8170776, 61.4024391, -0.1300832
0.6625977, -0.5019531, -0.9755859, 15.3658543, -195.3048859, 61.8902435, -0.1465324
0.6489258, -0.5039062, -1.0234375, 17.0731716, -196.4634247, 62.0731735, -0.1451896
0.6337891, -0.5014648, -1.0581055, 17.9268303, -196.5243988, 62.9268303, -0.1287404
0.6191406, -0.4824219, -1.1123047, 20.1219521, -196.5243988, 64.2073212, -0.1139696
0.6162109, -0.4619141, -1.1298828, 21.0975609, -196.1585388, 64.7560959, -0.1012131
0.6235352, -0.4311523, -1.1289062, 22.9878063, -195.1829376, 65, -0.090135
0.6259766, -0.4082031, -1.1210938, 23.5975609, -193.5975647, 64.6341476, -0.0760357
0.6201172, -0.3745117, -1.1210938, 23.4146347, -190.6097565, 63.4146347, -0.064622
0.6088867, -0.3706055, -1.1259766, 22.8658543, -188.4756165, 63.0487823, -0.0565652
0.5839844, -0.3793945, -1.1669922, 20, -184.6341553, 63.1097565, -0.0451514
0.5629883, -0.4179688, -1.1962891, 16.4634151, -182.0731812, 64.9390259, -0.0323949
0.5507812, -0.4414062, -1.2045898, 14.8780489, -181.2804871, 66.1585388, -0.0135958
0.5371094, -0.4677734, -1.1953125, 14.2073174, -180.8536682, 67.9878082, 0.0005035
0.527832, -0.4707031, -1.184082, 15, -180.8536682, 68.2926865, 0.0058747
0.5112305, -0.4501953, -1.1474609, 16.7682934, -180.0609741, 67.9878082, 0.0132601
0.5043945, -0.4355469, -1.1279297, 17.0731716, -179.8170776, 67.5, 0.023331
0.487793, -0.4072266, -1.0800781, 16.6463413, -179.146347, 66.8902435, 0.0246738
0.480957, -0.3964844, -1.0610352, 15.060976, -179.0243988, 66.2804871, 0.0203098
0.4599609, -0.3925781, -1.0244141, 12.0731707, -180.36586, 66.2195129, 0.008896
0.4560547, -0.3955078, -1.012207, 10.6707315, -181.8292694, 66.6463394, -0.0102388
0.4482422, -0.4106445, -1.0136719, 9.8170738, -183.5365906, 67.1341476, -0.0592508
0.4384766, -0.4379883, -1.0048828, 10.4268293, -182.9268341, 67.68293, -0.1200122
0.4355469, -0.4516602, -0.9985352, 10.9756098, -182.3780518, 68.2926865, -0.1641566
0.4326172, -0.4638672, -0.9614258, 13.9634151, -180.1829376, 68.8414688, -0.1874876
0.4287109, -0.4609375, -0.9394531, 15.7926836, -179.5731812, 68.7195129, -0.2130007
0.3989258, -0.4316406, -0.9213867, 18.4756107, -178.3536682, 68.2926865, -0.2324712
0.3876953, -0.4130859, -0.9335938, 19.2073174, -178.0487823, 67.9878082, -0.2364996
0.3466797, -0.3842773, -0.9980469, 17.439024, -179.0243988, 67.9268341, -0.2366674
0.3339844, -0.378418, -1.0273438, 15.4878054, -180.6097565, 68.3536606, -0.2265965
0.3305664, -0.3935547, -1.043457, 9.8170738, -185, 68.6585388, -0.1999084
0.3432617, -0.4130859, -1.0302734, 7.6829271, -187.1951294, 68.4756088, -0.1599603
0.375, -0.4467773, -0.9853516, 4.9390244, -190.3048859, 66.9512177, -0.115816
0.3925781, -0.4868164, -0.9438477, 5.9756098, -190.6707306, 64.9390259, -0.0753643
0.3925781, -0.5083008, -0.9326172, 7.1341467, -189.2682953, 64.3902435, -0.0438087
0.371582, -0.5444336, -0.9516602, 10.9146347, -185.9146423, 65.18293, -0.0236667
0.3637695, -0.5551758, -0.9672852, 13.1707315, -184.2073212, 65.9146347, -0.0008392
0.3398438, -0.5615234, -0.9946289, 18.2317085, -181.646347, 67.4390259, 0.0166171
0.3266602, -0.5517578, -0.9902344, 20.7317085, -180.36586, 67.9268341, 0.0307164
0.3076172, -0.5063477, -0.9428711, 25.6707325, -177.0121918, 67.68293, 0.0387732
0.3017578, -0.472168, -0.9067383, 27.6829281, -175.1829376, 66.6463394, 0.0542153
0.2734375, -0.4013672, -0.8432617, 30.2439022, -172.1341553, 63.7804909, 0.0656291
0.2607422, -0.3725586, -0.828125, 30.4878063, -171.0975647, 62.4390259, 0.0501869
0.2133789, -0.3286133, -0.8598633, 28.780489, -171.7073212, 61.4634171, 0.0374304
0.1694336, -0.3154297, -0.9638672, 23.4756107, -172.9878082, 63.5365868, 0.0204776
0.1611328, -0.3237305, -1.0053711, 20.3048782, -174.5121918, 65.2439041, -0.0001678
0.171875, -0.3525391, -1.0419922, 14.2073174, -177.1951294, 68.1097565, -0.0176242
0.1899414, -0.3632812, -1.0361328, 12.1341467, -177.8048859, 68.5975647, -0.0303807
0.2216797, -0.3642578, -1.0073242, 10.8536587, -177.2561035, 67.68293, -0.0317235
0.230957, -0.3662109, -0.9912109, 10.5487804, -176.1585388, 66.5853653, -0.0256809
0.2431641, -0.378418, -0.949707, 9.5731707, -173.9024506, 64.0853653, -0.0132601
0.2431641, -0.3950195, -0.9335938, 8.4756098, -173.5975647, 63.1707344, 0.0018463
0.2329102, -0.4335938, -0.9301758, 6.5243902, -174.6341553, 62.68293, 0.0280308
0.2250977, -0.4492188, -0.9458008, 5.5487804, -175.5487823, 63.2926826, 0.0535439
0.2099609, -0.4716797, -0.9584961, 4.0853658, -176.5243988, 64.5121994, 0.0820783
0.199707, -0.4775391, -0.9360352, 4.8170733, -175.7926941, 65.4878082, 0.1055772
0.190918, -0.4682617, -0.9091797, 6.0975609, -174.3292694, 65.3658524, 0.1240406
0.1772461, -0.4233398, -0.8544922, 10.4878054, -171.7073212, 64.1463394, 0.1163195
0.1582031, -0.3959961, -0.8417969, 12.9268293, -170, 62.6219521, 0.085771
0.1206055, -0.34375, -0.8354492, 15.4878054, -167.5, 59.3902435, 0.0552224
0.0952148, -0.328125, -0.8525391, 15.060976, -167.5, 58.7804909, 0.0072175
0.0664062, -0.3168945, -0.8764648, 11.341464, -168.7804871, 58.4756126, -0.0344091
0.0600586, -0.3242188, -0.8789062, 8.841464, -170, 59.3902435, -0.0535439
0.0864258, -0.3549805, -0.8857422, 4.4512196, -172.7439117, 60.2439041, -0.0654612
0.1035156, -0.3764648, -0.8935547, 2.4390244, -173.9634247, 60.0609779, -0.0780499
0.1274414, -0.4150391, -0.9189453, 1.097561, -174.5731812, 58.9634171, -0.0887922
0.1450195, -0.4370117, -0.9350586, 0.3658537, -172.1951294, 57.6219521, -0.0834211
0.1445312, -0.4428711, -0.9404297, 0.1219512, -170, 57.0121956, -0.0928206
0.1381836, -0.4472656, -0.9487305, 0.4268293, -166.1585388, 56.0975609, -0.1243763
0.1337891, -0.4375, -0.9492188, 0.5487805, -164.6951294, 55.8536606, -0.13579
0.1152344, -0.4189453, -0.9677734, 0.7317073, -162.9268341, 55.3048782, -0.1304189
0.1010742, -0.4111328, -0.9873047, 0.6097561, -162.3780518, 55.2439041, -0.119173
0.081543, -0.3842773, -1.0102539, -0.5487805, -161.646347, 55.5487823, -0.1122911
0.0727539, -0.3691406, -1.0024414, -1.3414634, -161.0365906, 56.4634171, -0.1116197
0.0673828, -0.3388672, -0.9545898, -3.4756098, -159.5731812, 56.8292694, -0.1139696
0.0698242, -0.3237305, -0.9321289, -4.390244, -158.9634247, 56.341465, -0.1129625
0.0634766, -0.2802734, -0.8896484, -6.0975609, -158.6585388, 54.0853653, -0.1149767
0.0449219, -0.2695312, -0.862793, -8.4756098, -159.3902435, 51.9512215, -0.1116197
0.0366211, -0.2729492, -0.8442383, -10.2439022, -160.5487823, 51.5853653, -0.0830854
0.0336914, -0.2910156, -0.8222656, -13.9634151, -162.3780518, 51.2195129, -0.0330663
0.0263672, -0.3037109, -0.8183594, -15.8536587, -163.1097565, 51.4634171, 0.0407874
0.0083008, -0.3208008, -0.8266602, -18.9024391, -162.9268341, 52.3170738, 0.1092699
0, -0.3256836, -0.8325195, -20.3658543, -162.1951294, 52.2560997, 0.163653
-0.0170898, -0.3339844, -0.8344727, -22.7439022, -160.7926941, 52.5, 0.202594
-0.0239258, -0.3393555, -0.8286133, -22.7439022, -160, 52.2560997, 0.2170291
-0.0415039, -0.3383789, -0.8505859, -22.0121956, -157.86586, 51.2804909, 0.216022
-0.0571289, -0.3295898, -0.8769531, -22.1341476, -156.5853729, 50.4268303, 0.2029297
-0.0727539, -0.3266602, -0.9121094, -22.3170738, -156.5853729, 50.7926826, 0.1795987
-0.0683594, -0.3481445, -0.8916016, -22.5, -157.6829376, 50.7926826, 0.1512322
-0.0541992, -0.3549805, -0.8574219, -22.3170738, -158.0487823, 50.8536606, 0.117998
-0.0356445, -0.3535156, -0.7885742, -20.1829281, -156.0975647, 49.5121956, 0.0948348
-0.0424805, -0.3452148, -0.7675781, -19.2073174, -154.0853729, 48.5975609, 0.0632792
-0.0771484, -0.3212891, -0.7880859, -18.1707325, -149.9390259, 46.8292694, 0.0280308
-0.1000977, -0.3144531, -0.8232422, -18.4756107, -149.146347, 46.7682953, -0.0063783
-0.1523438, -0.3164062, -0.9243164, -20.6707325, -149.9390259, 49.0243912, -0.0344091
-0.1606445, -0.3212891, -0.9726562, -21.9512196, -151.4024353, 50.6707344, -0.0663005
-0.1567383, -0.3295898, -1.0200195, -24.2073174, -153.5975647, 53.7804909, -0.0866102
-0.1464844, -0.3344727, -1.0131836, -24.5121956, -153.6585388, 54.2682953, -0.103563
-0.1230469, -0.3305664, -0.9418945, -22.8658543, -152.5609741, 53.4756126, -0.1065843
-0.1020508, -0.3242188, -0.8525391, -18.9024391, -149.6341553, 49.1463432, -0.0997024
-0.1020508, -0.3212891, -0.8125, -17.1341476, -148.5365906, 47.1341476, -0.0908064
-0.112793, -0.324707, -0.7563477, -15.1829271, -146.5243988, 45.3658562, -0.0830854
-0.1313477, -0.3295898, -0.7495117, -15.3048782, -145.7926788, 45.4878044, -0.0746929
-0.1806641, -0.324707, -0.8085938, -16.6463413, -145.36586, 48.2317085, -0.0753643
-0.2075195, -0.3149414, -0.8569336, -18.1097565, -145.1219482, 50.2439041, -0.0740215
-0.2446289, -0.3076172, -0.9116211, -22.2560978, -144.3292694, 54.5731735, -0.0807355
-0.2441406, -0.309082, -0.9042969, -24.2682934, -143.4146423, 56.4634171, -0.0990311
-0.2177734, -0.3227539, -0.8354492, -25.1219521, -141.2195129, 56.1585388, -0.1378042
-0.2060547, -0.324707, -0.7856445, -22.9268303, -138.7195129, 52.5, -0.1707027
-0.2045898, -0.3125, -0.7202148, -21.8292694, -137.3170776, 50.3658562, -0.1975586
-0.2363281, -0.293457, -0.690918, -21.8292694, -134.8780518, 47.2560997, -0.2271
-0.2558594, -0.2895508, -0.6953125, -22.8658543, -133.7195129, 46.7682953, -0.24271
-0.2832031, -0.2836914, -0.7260742, -26.9512196, -132.1951294, 48.2317085, -0.2351568
-0.2910156, -0.2856445, -0.7509766, -29.8780499, -131.646347, 49.8780518, -0.2123293
-0.3149414, -0.2871094, -0.7924805, -34.0243912, -131.646347, 53.1707344, -0.1952087
-0.3242188, -0.2807617, -0.7993164, -35.2439041, -131.1585388, 54.5731735, -0.1871519
-0.3305664, -0.2543945, -0.7753906, -36.5243912, -128.6585388, 55.8536606, -0.184802
-0.331543, -0.2314453, -0.7412109, -35.6707344, -127.0121994, 54.9390259, -0.1925231
-0.3300781, -0.1894531, -0.6503906, -33.3536606, -125.4878082, 50.9756126, -0.1827878
-0.3369141, -0.1723633, -0.6210938, -32.1951218, -125.8536606, 46.5853653, -0.160296
-0.3530273, -0.168457, -0.6357422, -33.4146347, -126.8292694, 45.5487823, -0.1354543
-0.3725586, -0.1967773, -0.6884766, -38.9024391, -129.6341553, 46.0975609, -0.103563
-0.3818359, -0.2280273, -0.7060547, -41.8292694, -131.2195129, 47.6219521, -0.0679789
-0.3603516, -0.3061523, -0.6972656, -46.0365868, -133.0487823, 51.5243912, -0.0384375
-0.3452148, -0.3325195, -0.675293, -45.7926826, -132.9268341, 52.6829262, -0.0018463
-0.3261719, -0.3623047, -0.6240234, -41.8292694, -130.1829224, 52.5, 0.0473335
-0.3291016, -0.3623047, -0.6079102, -38.5365868, -128.1707306, 51.5853653, 0.1038987
-0.3569336, -0.3476562, -0.5708008, -32.1341476, -124.6341476, 48.2926826, 0.1613031
-0.3779297, -0.3408203, -0.5498047, -29.6951218, -123.3536606, 47.0731735, 0.2153506
-0.4008789, -0.3276367, -0.5214844, -26.6463413, -122.3170776, 45, 0.2663767
-0.4130859, -0.3183594, -0.53125, -26.6463413, -121.0365906, 43.7195129, 0.3059892
-0.4321289, -0.3154297, -0.5791016, -27.9268303, -120.18293, 43.3536606, 0.3232776
-0.4633789, -0.3208008, -0.6064453, -29.5731716, -119.8170776, 43.9634171, 0.321767
-0.465332, -0.3232422, -0.5854492, -29.4512196, -119.8780518, 44.4512215, 0.3016251
-0.4501953, -0.3286133, -0.4902344, -26.1585369, -118.1097565, 43.2926826, 0.2646983
-0.4453125, -0.3208008, -0.4448242, -23.1707325, -117.3780518, 41.5853653, 0.2039368
-0.4526367, -0.2944336, -0.4023438, -17.439024, -114.6951218, 38.0487823, 0.1319295
-0.4677734, -0.2729492, -0.418457, -16.1585369, -113.5975647, 36.8902435, 0.0602579
-0.4985352, -0.2441406, -0.4882812, -17.8658543, -111.9512253, 37.3170738, 0.0078889
-0.5048828, -0.2368164, -0.5375977, -20.8536587, -112.1951218, 38.5365868, -0.0270237
-0.5043945, -0.2324219, -0.6235352, -27.8658543, -112.2561035, 40.1219521, -0.0582437
-0.4916992, -0.2460938, -0.6416016, -33.2926826, -112.68293, 40, -0.0691539
-0.465332, -0.2783203, -0.6303711, -34.1463432, -112.5, 39.7560997, -0.0626078
-0.4384766, -0.296875, -0.5688477, -31.9512196, -110.2439041, 37.6219521, -0.0565652
-0.4335938, -0.3007812, -0.53125, -30, -108.5975647, 36.341465, -0.0505226
-0.4428711, -0.2807617, -0.4672852, -25.3658543, -105.6097565, 34.2682953, -0.0491798
-0.4550781, -0.2705078, -0.4365234, -23.9024391, -104.0853653, 33.7804871, -0.0438087
-0.4829102, -0.2529297, -0.3945312, -23.5975609, -101.8292694, 33.0487823, -0.0270237
-0.4921875, -0.2475586, -0.3964844, -24.5731716, -101.0975647, 33.1097565, -0.0085603
-0.5292969, -0.2558594, -0.4482422, -28.3536587, -100.18293, 33.9024391, 0.0125887
-0.5444336, -0.2646484, -0.4726562, -30.2439022, -99.6951218, 34.7560997, 0.0323949
-0.5400391, -0.2915039, -0.4921875, -32.0731697, -99.0853653, 36.341465, 0.0397803
-0.534668, -0.3115234, -0.4848633, -28.4146347, -97.1951218, 36.341465, 0.0347448
-0.5058594, -0.3383789, -0.4545898, -24.7560978, -95.8536606, 35.3048782, 0.0246738
-0.5, -0.3491211, -0.4213867, -16.7073174, -91.8902435, 32.7439041, 0.0186313
-0.4990234, -0.3564453, -0.4033203, -12.7439032, -89.8780518, 31.7682934, 0.0109102
-0.515625, -0.3432617, -0.3818359, -6.2195125, -85.9756088, 30.3658543, 0.0075532
-0.5180664, -0.3276367, -0.3862305, -4.0243902, -84.5121994, 30.060976, -0.0052033
-0.5263672, -0.3022461, -0.4208984, -2.5, -80.8536606, 29.5731716, -0.0209812
-0.5366211, -0.2875977, -0.4365234, -2.8658538, -79.0243912, 29.0243912, -0.0421302
-0.5439453, -0.2802734, -0.4536133, -4.9390244, -75.9146347, 28.4756107, -0.0767071
-0.5541992, -0.2768555, -0.4545898, -5.3658538, -74.6341476, 28.2317085, -0.1237049
-0.5566406, -0.2592773, -0.4619141, -5.9756098, -71.7073212, 27.0731716, -0.1754025
-0.5668945, -0.2241211, -0.4575195, -6.1585369, -68.0487823, 26.0365868, -0.2418708
-0.5708008, -0.2177734, -0.4521484, -6.5243902, -66.3414612, 25.4268303, -0.3170672
-0.5761719, -0.2060547, -0.4204102, -7.9268293, -63.4756126, 24.3292694, -0.4016632
-0.5756836, -0.2133789, -0.3994141, -9.2073174, -62.68293, 23.9024391, -0.4812238
-0.5810547, -0.2231445, -0.3564453, -11.4024391, -60.2439041, 23.2926826, -0.5604486
-0.5825195, -0.2304688, -0.3413086, -12.7439032, -59.3292694, 23.1097565, -0.6151675
-0.5869141, -0.237793, -0.2988281, -15.6097565, -57.0731735, 22.439024, -0.6386664
-0.5908203, -0.2431641, -0.2714844, -16.7073174, -55.4268303, 21.7073174, -0.6420233
-0.5961914, -0.2524414, -0.2319336, -17.7439022, -52.5, 20.7317085, -0.6238956
-0.5952148, -0.2519531, -0.2177734, -17.9878044, -51.2804909, 20.1829281, -0.5775692
-0.5961914, -0.2480469, -0.2207031, -18.1707325, -48.2317085, 18.5365849, -0.4911269
-0.6005859, -0.2416992, -0.2553711, -18.3536587, -45.7317085, 17.5, -0.3712825
-0.6040039, -0.2353516, -0.2739258, -18.5365849, -44.0853653, 16.7073174, -0.2250858
-0.6025391, -0.2387695, -0.2919922, -18.0487804, -42.4390259, 15.9146347, -0.0651255
-0.59375, -0.2407227, -0.2817383, -17.6219521, -41.4634171, 15.1219511, 0.0941634
-0.5800781, -0.2543945, -0.2524414, -15.1829271, -38.4146347, 13.2317076, 0.2489204
-0.5722656, -0.2543945, -0.2329102, -13.9024391, -36.2804871, 11.7073174, 0.3932708
-0.5849609, -0.2563477, -0.2158203, -10.9756098, -31.6463413, 9.1463413, 0.5100938
-0.5898438, -0.2504883, -0.2177734, -9.9390249, -29.8780499, 8.1097565, 0.6047608
-0.6088867, -0.2431641, -0.2270508, -9.3292685, -26.4634151, 6.280488, 0.6816358
-0.612793, -0.2392578, -0.2329102, -8.719512, -25.060976, 5.4268293, 0.7205768
-0.6079102, -0.2324219, -0.2685547, -8.719512, -22.5, 3.8414636, 0.7294728
-0.6064453, -0.234375, -0.3164062, -9.1463413, -20, 2.2560976, 0.7135271
-0.6025391, -0.2329102, -0.3325195, -9.9390249, -18.9634151, 1.3414634, 0.6766003
-0.590332, -0.2382812, -0.3457031, -10.8536587, -16.0975609, 0.1219512, 0.6161746
-0.5805664, -0.2402344, -0.3427734, -11.4634151, -14.7560978, -0.3658537, 0.5403067
-0.5839844, -0.2348633, -0.3266602, -11.0975609, -10.9146347, -2.5, 0.4671244
-0.5869141, -0.230957, -0.3217773, -11.0365858, -9.2682924, -3.8414636, 0.4107271
-0.5942383, -0.2202148, -0.3134766, -10.4878054, -5.7926831, -5.1829271, 0.3375448
-0.5981445, -0.2119141, -0.3095703, -10.4268293, -4.0243902, -5.4268293, 0.2648661
-0.6079102, -0.1914062, -0.293457, -10.9146347, -0.3048781, -6.3414636, 0.2012512
-0.6083984, -0.1801758, -0.2895508, -11.4024391, 1.402439, -6.890244, 0.1421683
-0.6152344, -0.1572266, -0.2856445, -13.1097565, 5, -8.3536587, 0.1005417
-0.6210938, -0.1518555, -0.2753906, -15.2439032, 7.6219516, -9.5121956, 0.0636149
-0.6176758, -0.1606445, -0.2602539, -15.2439032, 8.6585369, -9.8170738, 0.0253452
-0.5996094, -0.1723633, -0.2138672, -14.2073174, 10.6097565, -10.2439022, -0.0149386
-0.590332, -0.1713867, -0.1972656, -13.3536587, 12.2560978, -10.6707315, -0.0468299
-0.5849609, -0.1645508, -0.1850586, -11.5243902, 16.0365849, -12.3170738, -0.0840925
-0.5922852, -0.1635742, -0.1889648, -11.1585369, 18.4756107, -13.3536587, -0.128069
-0.5986328, -0.1708984, -0.2211914, -12.1341467, 22.3170738, -14.9390249, -0.1700313
-0.6020508, -0.1777344, -0.2387695, -13.4756098, 23.3536587, -15.2439032, -0.1918517
-0.6030273, -0.2084961, -0.2773438, -15.6707325, 24.7560978, -15.8536587, -0.2042725
-0.5927734, -0.2255859, -0.2885742, -16.1585369, 25.6707325, -16.2195129, -0.2143435
-0.5703125, -0.237793, -0.3046875, -15.7926836, 28.2926826, -18.0487804, -0.2197147
-0.5615234, -0.2368164, -0.3266602, -14.0853662, 32.8658562, -20.6707325, -0.2344854
-0.5625, -0.2329102, -0.3388672, -13.4756098, 35.5487823, -21.8902435, -0.244892
-0.5698242, -0.222168, -0.3623047, -11.9512196, 39.7560997, -23.9024391, -0.2400244
-0.5673828, -0.2192383, -0.3735352, -11.8902445, 41.2195129, -24.9390259, -0.2279393
-0.5644531, -0.2163086, -0.3789062, -11.7682934, 43.4146347, -26.280489, -0.2083009
-0.5566406, -0.2158203, -0.378418, -12.0121956, 44.1463432, -26.7073174, -0.1767453
-0.5483398, -0.2172852, -0.3701172, -12.5, 47.0731735, -28.2317085, -0.1747311
-0.5493164, -0.2192383, -0.3613281, -12.3780489, 48.7804871, -28.9024391, -0.1955444
-0.5419922, -0.2211914, -0.3618164, -12.0121956, 51.8292694, -29.6341476, -0.2277714
-0.5366211, -0.2241211, -0.3666992, -10.9756098, 53.2926826, -29.7560978, -0.2458991
-0.5317383, -0.2177734, -0.3847656, -10.1829271, 56.0975609, -30.3048782, -0.2688945
-0.5234375, -0.2177734, -0.4194336, -9.3902445, 58.6585388, -30.9146347, -0.2863508
-0.5239258, -0.2138672, -0.4370117, -9.6341467, 60, -31.280489, -0.3090105
-0.519043, -0.2045898, -0.4414062, -11.0365858, 62.8658562, -31.8292694, -0.3294881
-0.5136719, -0.2011719, -0.4296875, -11.4024391, 64.7560959, -32.4390259, -0.3385519
-0.5043945, -0.1972656, -0.3876953, -12.3170738, 67.6219559, -33.841465, -0.3291524
-0.496582, -0.1958008, -0.3701172, -12.1951218, 68.9634171, -34.8170738, -0.2949111
-0.4941406, -0.2006836, -0.3710938, -12.560976, 71.4634171, -36.7682953, -0.2458991
-0.4995117, -0.199707, -0.3901367, -12.9878054, 72.5, -37.3170738, -0.1861448
-0.5092773, -0.2045898, -0.4526367, -15.4878054, 74.1463394, -37.9878044, -0.1116197
-0.5083008, -0.2114258, -0.4833984, -16.8902435, 74.8170776, -37.7439041, -0.0377661
-0.4970703, -0.2363281, -0.5195312, -19.8780499, 76.3414688, -37.6829262, 0.0360876
-0.4731445, -0.2602539, -0.5097656, -19.939024, 78.5365906, -38.4146347, 0.0909743
-0.4599609, -0.2670898, -0.480957, -19.0243912, 80.3658524, -38.9634171, 0.1347829
-0.4506836, -0.2680664, -0.4077148, -15.4268293, 84.5731735, -41.341465, 0.1811093
-0.4492188, -0.2602539, -0.3710938, -13.4146347, 86.646347, -42.7439041, 0.2200504
-0.4702148, -0.2426758, -0.324707, -9.3902445, 90.6097565, -44.8170738, 0.2542916
-0.4848633, -0.2304688, -0.324707, -8.4146347, 92.1951218, -45.6097565, 0.2824903
-0.5073242, -0.2036133, -0.3671875, -9.6951218, 93.7195129, -46.7682953, 0.2952468
-0.515625, -0.1933594, -0.4033203, -11.4024391, 93.8414688, -46.8292694, 0.2878614
-0.5073242, -0.1962891, -0.4707031, -18.0487804, 93.0487823, -47.1951218, 0.2734264
-0.4985352, -0.203125, -0.4833984, -21.5243912, 92.3780518, -47.8658562, 0.2552987
-0.4667969, -0.2285156, -0.4545898, -26.3414631, 92.0121994, -49.4512215, 0.2294499
-0.4243164, -0.262207, -0.3696289, -26.0975609, 92.3780518, -52.8658562, 0.200412
-0.4042969, -0.2729492, -0.3242188, -23.6585369, 93.4756088, -54.6341476, 0.170367
-0.3759766, -0.2749023, -0.2626953, -17.3780499, 95.6707306, -58.1707344, 0.1431754
-0.3681641, -0.2807617, -0.2529297, -14.5731707, 97.2561035, -59.8780518, 0.1106126
-0.3603516, -0.2719727, -0.2807617, -11.5853662, 98.0487823, -61.5853691, 0.0867781
-0.3579102, -0.2705078, -0.3115234, -11.5243902, 97.9268341, -61.7073174, 0.0589151
-0.3540039, -0.2631836, -0.4135742, -14.3292685, 96.2804871, -60.4878044, 0.0323949
-0.3540039, -0.2529297, -0.472168, -16.8292694, 95.6097565, -59.5121956, 0.0052033
-0.3554688, -0.2373047, -0.5839844, -22.8658543, 95.18293, -58.2926826, -0.0273594
-0.3613281, -0.2314453, -0.6328125, -25.9756107, 95.8536606, -57.68293, -0.0525368
-0.3686523, -0.2382812, -0.690918, -31.0975609, 97.3780518, -56.5853653, -0.0713359
-0.3681641, -0.2519531, -0.6831055, -32.9268303, 100.3658524, -55.7317085, -0.0897993
-0.3598633, -0.262207, -0.668457, -32.6219521, 102.0121994, -56.0975609, -0.1025559
-0.3461914, -0.2714844, -0.6777344, -30.5487804, 106.2195129, -57.3780518, -0.1097734
-0.3481445, -0.2729492, -0.6977539, -29.9390259, 108.2317123, -58.5365868, -0.1250477
-0.3823242, -0.2514648, -0.7749023, -30.9146347, 111.9512253, -59.2682953, -0.1352865
-0.3989258, -0.2426758, -0.8081055, -33.2317085, 113.2926865, -58.6585388, -0.1453574
-0.4179688, -0.237793, -0.8203125, -38.9634171, 115.3048782, -55.5487823, -0.160296
-0.4116211, -0.2407227, -0.793457, -41.0975609, 115.9146347, -54.5731735, -0.16701
-0.3793945, -0.2543945, -0.6870117, -41.4634171, 117.1341476, -54.5731735, -0.1673457
-0.359375, -0.2587891, -0.6342773, -35.9756088, 118.5975647, -56.8902435, -0.1613031
-0.331543, -0.2700195, -0.5805664, -32.6219521, 119.3902435, -58.5975609, -0.1532464
-0.3388672, -0.2749023, -0.609375, -28.5365868, 121.7682953, -60.0609779, -0.1495537
-0.3442383, -0.28125, -0.6376953, -28.9024391, 122.9878082, -59.8780518, -0.1384756
-0.3466797, -0.3051758, -0.6743164, -32.5, 124.6341476, -57.5609779, -0.1258869
-0.3369141, -0.3276367, -0.6777344, -35.4878044, 125.18293, -56.1585388, -0.1260548
-0.2900391, -0.3540039, -0.6826172, -40.3048782, 125.9756165, -55.6097565, -0.1173266
-0.2626953, -0.3652344, -0.699707, -42.1341476, 126.0365906, -56.0365868, -0.1196765
-0.2358398, -0.3847656, -0.7421875, -44.0243912, 125.9756165, -57.8658562, -0.152575
-0.2216797, -0.3925781, -0.7470703, -43.9024391, 126.0365906, -58.7195129, -0.199237
-0.1918945, -0.4199219, -0.7124023, -41.7682953, 127.2561035, -59.7560997, -0.2378424
-0.1704102, -0.4321289, -0.671875, -35.0609779, 130.1829224, -60.3048782, -0.2730907
-0.144043, -0.4360352, -0.5795898, -30.4878063, 131.7073212, -60.9756126, -0.3197528
-0.1357422, -0.4189453, -0.5317383, -19.3292694, 134.0853729, -62.1951218, -0.353994
-0.1459961, -0.4042969, -0.5288086, -14.6951227, 134.9390259, -62.4390259, -0.3687648
-0.1928711, -0.3618164, -0.5605469, -8.841464, 136.0975647, -60.7926826, -0.3654078
-0.2207031, -0.3432617, -0.590332, -7.8658538, 136.7682953, -59.2073174, -0.3380484
-0.265625, -0.3046875, -0.6679688, -10.3048782, 137.2561035, -54.7560997, -0.291722
-0.2753906, -0.2890625, -0.7050781, -12.7439032, 136.8902435, -53.1707344, -0.2475776
-0.2719727, -0.2641602, -0.7607422, -19.3292694, 135.36586, -51.2804909, -0.2130007
-0.2592773, -0.2592773, -0.7753906, -22.6219521, 134.146347, -51.4024391, -0.1811093
-0.21875, -0.2553711, -0.7856445, -27.5, 133.0487823, -54.3902435, -0.1587854
-0.1884766, -0.2617188, -0.7915039, -31.2195129, 132.6829224, -59.2073174, -0.1240406
-0.1606445, -0.2646484, -0.8320312, -32.9878044, 132.6219482, -61.0975609, -0.1250477
-0.1342773, -0.2714844, -0.8857422, -37.5, 132.6219482, -64.0243912, -0.13579
-0.1225586, -0.2851562, -0.9116211, -39.9390259, 132.4390259, -64.2073212, -0.1198444
-0.081543, -0.3164062, -0.9360352, -44.4512215, 132.0731812, -63.9024391, -0.0941634
-0.0566406, -0.3349609, -0.9321289, -45.9146347, 131.7073212, -63.2317085, -0.0558938
-0.0092773, -0.3789062, -0.9233398, -46.1585388, 131.8902435, -62.4390259, 0.0041962
0.0078125, -0.4047852, -0.9272461, -45.0609779, 132.5, -61.8292694, 0.0555581
0.0141602, -0.4350586, -0.9697266, -40.7317085, 134.3902435, -59.9390259, 0.0891279
0.0087891, -0.4536133, -0.9936523, -38.1097565, 135.8536682, -58.4756126, 0.1193408
0.0039062, -0.4814453, -1.0458984, -33.9024391, 139.146347, -55.18293, 0.1498894
-0.0014648, -0.496582, -1.0673828, -30.060976, 142.7439117, -52.5, 0.1722133
-0.0029297, -0.5244141, -1.0786133, -28.0487804, 143.9024353, -52.1341476, 0.1978943
-0.0131836, -0.5415039, -1.0483398, -23.5365868, 145.9756165, -51.8902435, 0.2079652
-0.0166016, -0.5410156, -1.0078125, -20.3048782, 147.0121918, -52.4390259, 0.2234073
-0.015625, -0.53125, -0.9135742, -12.6829271, 150.5487823, -54.8170738, 0.2489204
-0.0214844, -0.5170898, -0.8798828, -8.2926826, 152.7439117, -56.5243912, 0.2677195
-0.0454102, -0.4741211, -0.8652344, -0.6097561, 157.0121918, -60.1219521, 0.290547
-0.0649414, -0.4482422, -0.8891602, 1.5243902, 158.4756165, -60.9756126, 0.3210956
-0.1079102, -0.3823242, -0.9394531, 1.8292683, 159.2682953, -60.4268303, 0.3382162
-0.1186523, -0.3554688, -0.9370117, 0.5487805, 159.2682953, -59.3902435, 0.3449302
-0.0795898, -0.3208008, -0.8803711, -3.2317073, 157.4390259, -58.7804909, 0.3523156
-0.0493164, -0.3032227, -0.8344727, -3.9634147, 155.5487823, -62.3780518, 0.3660792
0.0161133, -0.2773438, -0.7700195, -3.7195122, 154.6341553, -65, 0.352987
0.0449219, -0.2788086, -0.7783203, -3.3536587, 153.4756165, -69.9390259, 0.3221027
0.0439453, -0.284668, -0.800293, -4.1463413, 153.6585388, -71.2195129, 0.2871901
0.0424805, -0.3071289, -0.8505859, -8.4756098, 153.9634247, -69.3292694, 0.2368353
0.0478516, -0.3212891, -0.8706055, -11.7073174, 154.146347, -66.8292694, 0.1905089
0.0629883, -0.3549805, -0.8911133, -17.3780499, 154.4512177, -61.6463432, 0.1532464
0.074707, -0.3647461, -0.8901367, -19.3902435, 153.7804871, -59.3902435, 0.1206836
0.1010742, -0.3735352, -0.8769531, -20.4268303, 153.1097565, -56.5243912, 0.0978561
0.1152344, -0.3725586, -0.8798828, -19.8780499, 152.9268341, -56.2195129, 0.0770428
0.1201172, -0.3740234, -0.9018555, -17.3170738, 153.4146423, -56.2195129, 0.0575723
0.1171875, -0.3686523, -0.9379883, -15.5487804, 153.7804871, -55.7317085, 0.0495155
0.1079102, -0.3613281, -1.0581055, -16.5243912, 153.6585388, -55.5487823, 0.0468299
0.1040039, -0.3515625, -1.1977539, -20.5487804, 152.5, -53.4146347, 0.0365911
0.1079102, -0.3579102, -1.2548828, -23.9634151, 151.646347, -52.2560997, 0.0206455
0.1508789, -0.3725586, -1.2905273, -31.8292694, 148.9024353, -50.1829262, -0.0068818
0.1757812, -0.387207, -1.2607422, -34.0853653, 148.5975647, -49.8170738, -0.0394446
0.2451172, -0.4067383, -1.1616211, -35.7926826, 149.2073212, -51.2195129, -0.0632792
0.262207, -0.4106445, -1.1137695, -34.3292694, 150.36586, -52.9878044, -0.0849317
0.2568359, -0.402832, -1.0546875, -30.7926846, 153.8414612, -56.341465, -0.1022202
0.2358398, -0.3979492, -1.0478516, -28.780489, 156.1585388, -56.9512215, -0.1149767
0.1757812, -0.3984375, -1.0566406, -27.560976, 160.36586, -55, -0.145861
0.1557617, -0.4101562, -1.0532227, -28.1707325, 162.5609741, -51.4634171, -0.1794308
0.1308594, -0.4370117, -1.0219727, -28.3536587, 162.5609741, -49.8780518, -0.194873
0.1425781, -0.4628906, -0.9658203, -26.8292694, 160.36586, -49.0853653, -0.2166934
0.1552734, -0.4736328, -0.9375, -24.3902435, 159.0853729, -49.5731735, -0.2646983
0.1796875, -0.4858398, -0.9204102, -17.8048782, 156.9512177, -51.2804909, -0.3382162
0.1918945, -0.487793, -0.9389648, -14.0243902, 156.0365906, -52.1341476, -0.4427863
0.2216797, -0.487793, -1.0112305, -8.6585369, 155.4878082, -53.1707344, -0.4990158
0.2373047, -0.4858398, -1.0522461, -6.7682929, 154.8780518, -53.1707344, -0.5497063
0.2822266, -0.4941406, -1.1098633, -6.280488, 154.146347, -53.0487823, -0.5809262
0.3071289, -0.4887695, -1.1162109, -6.3414636, 153.9024353, -52.9268303, -0.5601129
0.3569336, -0.4926758, -1.1054688, -5.8536587, 153.4756165, -53.4756126, -0.5389639
0.378418, -0.4897461, -1.0947266, -3.9634147, 155.1829376, -54.7560997, -0.51664
0.3974609, -0.4707031, -1.1186523, -3.4756098, 156.0365906, -55.1219521, -0.4919661
0.3789062, -0.4335938, -1.1933594, -3.2926829, 157.5609741, -53.9024391, -0.4691386
0.3613281, -0.4160156, -1.2353516, -4.6341462, 157.86586, -52.7439041, -0.4338903
0.3466797, -0.3886719, -1.2783203, -8.6585369, 157.6829376, -49.2073174, -0.3727932
0.3554688, -0.3740234, -1.2612305, -11.4024391, 157.1951294, -47.8658562, -0.2774548
0.3930664, -0.3569336, -1.1538086, -14.3902445, 155.6097565, -47.7439041, -0.181445
0.4213867, -0.3579102, -1.0786133, -14.5731707, 155.1219482, -49.1463432, -0.0558938
0.4433594, -0.355957, -0.940918, -13.1097565, 154.8170776, -52.0731735, 0.0854353
0.4355469, -0.3466797, -0.9052734, -12.3780489, 155.6707306, -53.3536606, 0.2348211
0.3837891, -0.3461914, -0.918457, -11.8292685, 157.6829376, -53.1707344, 0.3929351
0.3300781, -0.3442383, -1.015625, -15.3048782, 158.4146423, -48.5365868, 0.5382925
0.3071289, -0.34375, -1.0649414, -18.3536587, 157.5609741, -45.5487823, 0.6332952
0.3046875, -0.3544922, -1.1186523, -24.7560978, 154.146347, -39.8780479, 0.6762646
0.324707, -0.3652344, -1.1142578, -26.6463413, 151.8902435, -38.4756088, 0.7068132
0.4038086, -0.3911133, -1.0454102, -26.6463413, 147.6219482, -39.2682953, 0.7168841
0.4394531, -0.4047852, -1.0043945, -24.0853672, 146.0365906, -41.2804871, 0.691371
0.5068359, -0.4189453, -0.9350586, -17.3780499, 145.7926788, -45.9146347, 0.6390021
0.5219727, -0.4238281, -0.9291992, -14.2682934, 146.5853729, -47.6829262, 0.5728695
0.5244141, -0.425293, -0.9638672, -10.9146347, 149.4512177, -48.4146347, 0.5030442
0.5131836, -0.4208984, -1.0019531, -10.9756098, 150.36586, -47.6829262, 0.4214694
0.4912109, -0.418457, -1.0932617, -14.0243902, 151.8292694, -44.5731735, 0.3325093
0.4814453, -0.4267578, -1.1665039, -19.1463413, 151.0975647, -41.4024391, 0.2475776
0.4790039, -0.4291992, -1.1782227, -20.6707325, 149.7561035, -40.5487823, 0.1784237
0.4990234, -0.4443359, -1.1523438, -21.7682934, 147.3170776, -39.8780479, 0.117998
0.5112305, -0.4379883, -1.1201172, -20.9146347, 146.646347, -40.1829262, 0.0649577
0.53125, -0.4296875, -1.0488281, -16.7073174, 147.3780518, -43.1097565, 0.0246738
0.5356445, -0.4160156, -1.0234375, -14.4512196, 147.9268341, -44.5731735, -0.01561
0.5253906, -0.3862305, -1.0200195, -10.7317076, 149.9390259, -46.9512215, -0.0480049
0.5117188, -0.375, -1.0395508, -9.8170738, 150.6097565, -47.0731735, -0.0854353
0.4907227, -0.371582, -1.1113281, -11.5853662, 150.4878082, -46.2804871, -0.1243763
0.4868164, -0.3808594, -1.1533203, -13.841464, 148.7804871, -45.5487823, -0.1488823
0.5014648, -0.4189453, -1.2216797, -19.3902435, 144.6341553, -43.7804871, -0.1673457
0.5458984, -0.4682617, -1.2285156, -23.2926826, 139.9390259, -42.3170738, -0.1868162
0.5791016, -0.4907227, -1.1987305, -24.4512196, 138.5975647, -42.2560997, -0.1913481
0.6362305, -0.5161133, -1.0883789, -22.8658543, 139.6951294, -42.9878044, -0.1889982
0.6577148, -0.5053711, -1.0283203, -20.5487804, 141.7682953, -44.2073174, -0.1851377
0.6655273, -0.4643555, -0.9326172, -15.1829271, 148.4756165, -48.2317085, -0.1801022
0.6523438, -0.4228516, -0.9077148, -12.8048782, 152.0731812, -49.6951218, -0.1777523
0.59375, -0.3540039, -0.8955078, -11.0365858, 157.1951294, -51.8292694, -0.1789273
0.5595703, -0.3261719, -0.9008789, -11.5853662, 158.2317047, -52.0731735, -0.1747311
0.512207, -0.296875, -0.9106445, -14.5731707, 156.7073212, -50.7926826, -0.1733883
