Application:, Trigno Discover (1.6.5)
Date/Time:, 12/02/2025 16:12:31
Collection Length (seconds):, 32.373
wrist (81457), , , , , , bicep (81139)
sensor mode: 609, , , , , , sensor mode: 40
ACC X (G), ACC Y (G), ACC Z (G), GYRO X (deg/s), GYRO Y (deg/s), GYRO Z (deg/s), EMG 1 (mV)
370.3704 Hz, 370.3704 Hz, 370.3704 Hz, 370.3704 Hz, 370.3704 Hz, 370.3704 Hz, 2148.1481 Hz
0.9873047, -0.0668945, -0.2324219, -12.6829271, -10.4268293, 3.0487804, -0.0149386
0.9838867, -0.0678711, -0.2368164, -12.6219511, -10.3048782, 3.2317073, -0.0011749
0.9829102, -0.0717773, -0.2373047, -12.8658543, -10.3658543, 3.4756098, 0.0065461
0.9833984, -0.078125, -0.2358398, -12.9268293, -10.1829271, 3.7195122, 0.0199741
0.980957, -0.078125, -0.237793, -13.0487804, -10.1219511, 3.5975611, 0.0240024
0.9804688, -0.0834961, -0.2329102, -13.0487804, -10.1219511, 3.6585367, 0.0280308
0.9838867, -0.0922852, -0.230957, -12.8658543, -9.8780489, 3.5975611, 0.0250095
0.9829102, -0.0922852, -0.2294922, -12.3780489, -9.8170738, 3.3536587, 0.0260166
0.9824219, -0.0932617, -0.2236328, -12.0121956, -10.060976, 3.2926829, 0.0166171
0.9785156, -0.0888672, -0.2246094, -11.5853662, -9.9390249, 3.4146342, 0.0038605
0.9794922, -0.0825195, -0.2324219, -11.4634151, -10, 3.4756098, -0.0028534
0.9863281, -0.0825195, -0.2348633, -10.9756098, -10.3048782, 3.1707318, -0.0097353
0.9882812, -0.0834961, -0.2426758, -11.4634151, -10.3048782, 3.4756098, -0.0070497
0.9833984, -0.0893555, -0.2392578, -11.7682934, -10.060976, 3.4146342, -0.0164492
0.9780273, -0.090332, -0.2319336, -11.6463413, -9.8780489, 3.4756098, -0.0182956
0.980957, -0.0878906, -0.2246094, -11.8902445, -10.1219511, 3.4146342, -0.0172885
0.9819336, -0.0893555, -0.2211914, -11.1585369, -9.8780489, 2.804878, -0.0176242
0.9770508, -0.0859375, -0.2216797, -10.9756098, -9.9390249, 2.6829269, -0.0206455
0.9794922, -0.0859375, -0.2260742, -10.9756098, -10.1829271, 2.5609756, -0.0229953
0.9799805, -0.078125, -0.2329102, -11.0365858, -10.1219511, 2.7439024, -0.0337377
0.9833984, -0.0766602, -0.2373047, -10.9756098, -10.4268293, 3.1707318, -0.0354162
0.987793, -0.0732422, -0.2421875, -11.4024391, -10.4268293, 3.1707318, -0.0370947
0.9897461, -0.0712891, -0.246582, -11.7682934, -10, 3.1097562, -0.0379339
0.9868164, -0.0654297, -0.2519531, -12.3780489, -9.9390249, 3.1707318, -0.0387732
0.9912109, -0.0678711, -0.253418, -12.8658543, -9.6341467, 3.2317073, -0.0327306
0.9853516, -0.0649414, -0.2446289, -14.0853662, -9.6951218, 3.3536587, -0.0330663
0.984375, -0.0634766, -0.2392578, -14.0243902, -9.6341467, 3.3536587, -0.0350805
0.9829102, -0.0654297, -0.2319336, -14.0853662, -10.3048782, 3.2926829, -0.0253452
0.980957, -0.0722656, -0.2265625, -13.841464, -10.060976, 3.0487804, -0.030045
0.9814453, -0.078125, -0.2236328, -14.0243902, -10.4268293, 3.2926829, -0.0344091
0.9819336, -0.0874023, -0.2255859, -14.0243902, -10.6097565, 3.5365853, -0.0313878
0.987793, -0.0893555, -0.2246094, -13.6585369, -10.5487804, 3.7195122, -0.0327306
0.9819336, -0.0917969, -0.2216797, -13.4146347, -10.6707315, 3.8414636, -0.0350805
0.9853516, -0.0849609, -0.2197266, -12.2560978, -10.8536587, 3.6585367, -0.0364233
0.9868164, -0.0820312, -0.2192383, -11.8902445, -10.8536587, 3.2317073, -0.0397803
0.9858398, -0.0800781, -0.2202148, -11.7682934, -11.1585369, 3.1097562, -0.0421302
0.9780273, -0.0771484, -0.2211914, -12.2560978, -11.280488, 3.5975611, -0.0411231
0.9790039, -0.078125, -0.2192383, -12.6219511, -11.5853662, 3.4146342, -0.0428016
0.9794922, -0.0756836, -0.2128906, -12.3170738, -11.7073174, 2.9878049, -0.0451514
0.9790039, -0.0708008, -0.2104492, -12.2560978, -12.0121956, 3.1097562, -0.04448
0.9755859, -0.0649414, -0.2148438, -11.8902445, -12.0121956, 2.9878049, -0.0404517
0.9755859, -0.0605469, -0.2216797, -12.1951218, -12.1951218, 3.4146342, -0.0374304
0.9794922, -0.0634766, -0.222168, -12.4390249, -12.5, 3.0487804, -0.0391089
0.9799805, -0.0708008, -0.2250977, -12.7439032, -12.4390249, 3.0487804, -0.0317235
0.9790039, -0.0786133, -0.2265625, -13.1097565, -12.7439032, 3.2926829, -0.0270237
0.9726562, -0.0913086, -0.2329102, -13.2317076, -12.9268293, 3.4756098, -0.0250095
0.9667969, -0.0922852, -0.234375, -13.2317076, -12.9268293, 3.5365853, -0.0152743
0.9677734, -0.0864258, -0.2275391, -13.3536587, -12.8658543, 3.2926829, -0.0169528
0.9677734, -0.0874023, -0.2255859, -13.2317076, -13.1097565, 3.2926829, -0.0142672
0.9736328, -0.0957031, -0.2202148, -12.7439032, -13.5975609, 2.3780489, -0.0095674
0.9819336, -0.0913086, -0.2246094, -12.3170738, -13.841464, 2.3170731, -0.0196384
0.9853516, -0.0917969, -0.2246094, -11.7073174, -14.0243902, 2.4390244, -0.0198062
0.9912109, -0.0932617, -0.2333984, -11.4024391, -13.9634151, 2.6219513, -0.0142672
0.9912109, -0.0922852, -0.2363281, -11.280488, -13.9634151, 2.4390244, -0.0085603
0.9921875, -0.0942383, -0.2407227, -11.4634151, -13.780488, 2.3170731, -0.0041962
0.9873047, -0.0908203, -0.2382812, -11.5853662, -13.4756098, 2.3780489, -0.0063783
0.9848633, -0.0917969, -0.2387695, -12.0731707, -13.2926836, 2.2560976, -0.005539
0.9829102, -0.09375, -0.237793, -12.3170738, -13.2926836, 1.7682927, -0.0082246
0.9838867, -0.097168, -0.2329102, -11.4634151, -13.0487804, 1.402439, -0.0130922
0.9814453, -0.0981445, -0.234375, -10.8536587, -13.1097565, 1.3414634, -0.0132601
0.9863281, -0.0898438, -0.2373047, -10.060976, -12.560976, 1.3414634, -0.0109102
0.9912109, -0.0874023, -0.2324219, -10.2439022, -12.5, 1.2195122, -0.0203098
0.9956055, -0.0869141, -0.2329102, -10.3658543, -12.3170738, 0.6097561, -0.0149386
0.9980469, -0.0922852, -0.2397461, -9.9390249, -12.0731707, 0.4878049, -0.0082246
0.9912109, -0.0932617, -0.2416992, -10.4878054, -11.8902445, 0.5487805, -0.0115816
0.9956055, -0.097168, -0.234375, -10.3048782, -11.7073174, 0.7926829, -0.012253
0.9975586, -0.0981445, -0.2416992, -10.1829271, -11.5853662, 0.7926829, -0.0008392
0.9853516, -0.0932617, -0.2485352, -10, -11.0975609, 0.7317073, 0.0107424
0.9858398, -0.0957031, -0.25, -9.8170738, -11.219512, 0.7317073, 0.0119173
0.9887695, -0.090332, -0.2451172, -9.4512196, -11.0975609, 0.5487805, 0.0182956
0.984375, -0.0854492, -0.2387695, -9.7560978, -11.341464, 0.4878049, 0.0229953
0.9819336, -0.0751953, -0.2397461, -10.1219511, -10.6097565, 0.3048781, 0.0216526
0.9780273, -0.0639648, -0.2416992, -10.4878054, -10.4878054, 0.3048781, 0.01561
0.9775391, -0.0644531, -0.2441406, -10.9756098, -11.0365858, 0.5487805, 0.0159457
0.9765625, -0.0688477, -0.2412109, -10.9146347, -11.341464, 0.6707317, 0.0193027
0.9780273, -0.0708008, -0.2407227, -11.219512, -11.0975609, 0.7317073, 0.0115816
0.9780273, -0.0839844, -0.2319336, -11.280488, -10.8536587, 1.0365853, 0.0172885
0.9746094, -0.0874023, -0.230957, -11.1585369, -10.4268293, 1.2195122, 0.0090639
0.965332, -0.0859375, -0.2275391, -10.7926836, -9.8780489, 0.9756098, -0.0008392
0.9609375, -0.0834961, -0.2246094, -10.6097565, -9.8780489, 0.9756098, 0.0018463
0.9594727, -0.0825195, -0.2236328, -10, -10.060976, 0.6097561, 0.0031891
0.9604492, -0.0786133, -0.2265625, -9.8780489, -10.1219511, 0.6097561, 0.0038605
0.9643555, -0.0708008, -0.2270508, -9.3292685, -10.060976, 0.7317073, -0.0028534
0.9707031, -0.0625, -0.2329102, -9.5121956, -10, 0.9756098, -0.0063783
0.9726562, -0.0629883, -0.230957, -9.3292685, -10.1829271, 0.6097561, -0.0102388
0.9750977, -0.0693359, -0.2363281, -9.3292685, -10, 0.5487805, -0.0172885
0.9736328, -0.0668945, -0.2329102, -10.060976, -9.6951218, 1.2804878, -0.0182956
0.9707031, -0.0668945, -0.2265625, -10.5487804, -10.060976, 1.6463414, -0.0176242
0.9692383, -0.0698242, -0.2226562, -11.0365858, -10.060976, 1.8292683, -0.0208133
0.9672852, -0.0712891, -0.2167969, -10.6707315, -10.3658543, 1.7682927, -0.0276951
0.9672852, -0.074707, -0.2163086, -10.6097565, -10.4878054, 1.9512196, -0.0318914
0.9658203, -0.0712891, -0.2197266, -9.8780489, -10.3658543, 1.8902439, -0.0276951
0.9633789, -0.0766602, -0.2202148, -10.3048782, -10.4878054, 1.7682927, -0.0276951
0.9716797, -0.0869141, -0.2211914, -9.9390249, -10.7317076, 2.0121951, -0.0384375
0.9667969, -0.0893555, -0.21875, -10.060976, -10.7317076, 2.195122, -0.0310521
0.9663086, -0.0913086, -0.2231445, -10, -10.6707315, 2.3780489, -0.0260166
0.9580078, -0.0888672, -0.2182617, -9.5731707, -10.6707315, 2.3170731, -0.0290379
0.9560547, -0.0810547, -0.2211914, -8.841464, -10.9146347, 2.2560976, -0.0303807
0.9511719, -0.0795898, -0.2246094, -8.4756098, -11.0365858, 2.1341465, -0.0243381
0.9570312, -0.0776367, -0.2275391, -8.1707315, -11.8902445, 1.5243902, -0.0236667
0.9614258, -0.0883789, -0.2324219, -8.1097565, -12.4390249, 1.3414634, -0.0229953
0.9677734, -0.0917969, -0.2338867, -7.6829271, -12.2560978, 1.3414634, -0.0166171
0.972168, -0.0996094, -0.230957, -7.3780489, -11.8902445, 1.7073171, -0.0157778
0.9692383, -0.1020508, -0.2216797, -7.1951222, -11.7073174, 1.8292683, -0.0203098
0.9658203, -0.0981445, -0.2158203, -6.4634147, -11.5243902, 1.1585366, -0.0219883
0.9575195, -0.0869141, -0.2133789, -6.1585369, -11.7682934, 1.1585366, -0.0223239
0.9589844, -0.0864258, -0.2148438, -6.1585369, -11.9512196, 0.6707317, -0.0285344
0.9663086, -0.0844727, -0.2138672, -5.9146342, -12.0731707, 0.7926829, -0.0302129
0.9667969, -0.0825195, -0.2226562, -6.1585369, -12.3170738, 0.8536586, -0.0320592
0.9716797, -0.081543, -0.2348633, -6.280488, -12.2560978, 1.097561, -0.0354162
0.9741211, -0.0751953, -0.2431641, -5.9756098, -12.1951218, 1.3414634, -0.0374304
0.9741211, -0.0712891, -0.2441406, -6.0975609, -12.1341467, 1.3414634, -0.0280308
0.9765625, -0.0717773, -0.2436523, -6.4024391, -11.5853662, 1.0365853, -0.0337377
0.9726562, -0.0722656, -0.2353516, -6.7682929, -11.4024391, 0.9146342, -0.0332341
0.9711914, -0.078125, -0.2338867, -7.1341467, -11.219512, 0.7926829, -0.0337377
0.9584961, -0.0791016, -0.2290039, -7.0731707, -11.0975609, 0.7926829, -0.018967
0.9594727, -0.0800781, -0.2324219, -6.9512196, -11.219512, 0.7317073, -0.0035248
0.9624023, -0.0751953, -0.2324219, -6.7073174, -11.9512196, 0.6707317, -0.0038605
0.9672852, -0.078125, -0.2358398, -6.7073174, -11.9512196, 0.4878049, -0.0005035
0.9726562, -0.0756836, -0.2373047, -6.3414636, -11.341464, 0.3658537, 0.0068818
0.9716797, -0.0639648, -0.2392578, -6.4634147, -10.9146347, 0.4268293, 0.0072175
0.9731445, -0.0625, -0.2387695, -6.7073174, -10.3048782, 0.3658537, 0.0129244
0.9770508, -0.0620117, -0.2490234, -6.890244, -9.8170738, 0.1219512, 0.0078889
0.9750977, -0.0625, -0.2539062, -7.3170733, -9.5121956, 0.1829268, 0.0018463
0.9624023, -0.0761719, -0.2631836, -7.7439027, -9.0853662, 0.6707317, 0.0010071
0.9614258, -0.0756836, -0.2636719, -7.9878049, -8.6585369, 0.7317073, 0.0048676
0.9506836, -0.0844727, -0.2612305, -8.1097565, -8.3536587, 0.5487805, 0.0023499
0.9536133, -0.097168, -0.2563477, -7.9268293, -7.9878049, 0.1219512, -0.0008392
0.9541016, -0.0986328, -0.2543945, -6.9512196, -7.5609756, -0.4878049, -0.0062104
0.9516602, -0.1020508, -0.2426758, -6.2195125, -7.4390244, -0.4878049, -0.0135958
0.9536133, -0.0922852, -0.2441406, -5, -7.1341467, -0.4878049, -0.0142672
0.9575195, -0.0742188, -0.2392578, -4.2682929, -7.0121951, -0.3658537, -0.0199741
0.9614258, -0.0639648, -0.2412109, -3.9024391, -6.5243902, -1.0365853, -0.0216526
0.9672852, -0.0556641, -0.2387695, -3.7195122, -6.1585369, -1.5853659, -0.0209812
0.9750977, -0.0581055, -0.2436523, -3.7804878, -5.9756098, -1.5243902, -0.0125887
0.9799805, -0.0668945, -0.2412109, -4.2682929, -5.7926831, -1.5853659, -0.0193027
0.9819336, -0.0722656, -0.2426758, -4.6341462, -5.3658538, -1.2804878, -0.0256809
0.9716797, -0.0839844, -0.2490234, -4.8170733, -5.3048782, -0.6097561, -0.0276951
0.9599609, -0.081543, -0.25, -4.390244, -5.0609756, -0.6707317, -0.0236667
0.9570312, -0.0795898, -0.2524414, -4.1463413, -4.8780489, -0.6707317, -0.0196384
0.9526367, -0.0776367, -0.2543945, -3.4756098, -4.8170733, -1.0365853, -0.026688
0.9619141, -0.0732422, -0.2524414, -2.8658538, -4.8170733, -1.2804878, -0.0357519
0.9677734, -0.0678711, -0.2456055, -2.9878049, -4.5731707, -1.7073171, -0.0404517
0.972168, -0.0698242, -0.2470703, -3.1707318, -4.4512196, -1.7682927, -0.0391089
0.9804688, -0.0708008, -0.25, -3.8414636, -4.6951222, -1.402439, -0.0421302
0.9799805, -0.0712891, -0.2475586, -4.0243902, -4.4512196, -1.5853659, -0.0386053
0.9814453, -0.0771484, -0.2402344, -4.8170733, -4.1463413, -1.3414634, -0.0414588
0.9760742, -0.0766602, -0.234375, -4.9390244, -3.8414636, -1.3414634, -0.0364233
0.9741211, -0.0742188, -0.2319336, -4.4512196, -3.4146342, -1.097561, -0.0273594
0.9750977, -0.0683594, -0.2265625, -4.5731707, -3.3536587, -1.3414634, -0.0135958
0.9765625, -0.0644531, -0.2299805, -4.2682929, -3.4756098, -1.5243902, -0.0095674
0.9775391, -0.0595703, -0.2416992, -4.390244, -3.5365853, -1.4634147, -0.0057069
0.9746094, -0.0571289, -0.2446289, -5.3048782, -3.5975611, -1.097561, 0.0031891
0.9799805, -0.0615234, -0.2548828, -6.8292685, -3.8414636, -0.7317073, 0.0011749
0.9814453, -0.0673828, -0.2578125, -7.0121951, -3.7804878, -0.4268293, 0.0028534
0.980957, -0.0771484, -0.2607422, -7.4390244, -3.6585367, 0.1829268, 0.0099031
0.9741211, -0.0810547, -0.2626953, -7.7439027, -3.3536587, -0.0609756, 0.0146029
0.9677734, -0.0805664, -0.2548828, -7.8658538, -3.3536587, -0.1829268, 0.011078
0.9663086, -0.0825195, -0.2460938, -7.9878049, -3.1707318, -0.4268293, 0.0119173
0.9633789, -0.0830078, -0.246582, -8.1097565, -3.2317073, -0.5487805, 0.0112459
0.9702148, -0.0805664, -0.2485352, -7.8658538, -3.2926829, -0.4878049, 0.0085603
0.9716797, -0.0771484, -0.2573242, -8.0487804, -3.5365853, -0.3048781, 0.0011749
0.9790039, -0.0771484, -0.2705078, -8.4146347, -3.4146342, 0.2439024, 0.0115816
0.9750977, -0.0756836, -0.2739258, -8.5365858, -3.3536587, 0.4268293, 0.0119173
0.9829102, -0.0810547, -0.284668, -9.2073174, -2.8658538, 0.4268293, 0.0078889
0.9824219, -0.0849609, -0.2807617, -9.2073174, -2.4390244, 0.4878049, 0.0065461
0.9785156, -0.0922852, -0.2709961, -9.2682924, -1.8292683, 0.1219512, 0.0048676
0.9707031, -0.0947266, -0.2612305, -9.3292685, -1.5853659, 0.0609756, 0.0092317
0.9663086, -0.0854492, -0.2490234, -8.3536587, -1.402439, -0.6707317, 0.0169528
0.9702148, -0.0727539, -0.2382812, -7.9268293, -1.5853659, -0.7926829, 0.0179599
0.9731445, -0.0688477, -0.2348633, -8.2926826, -1.8292683, -1.0365853, 0.0193027
0.9833984, -0.0644531, -0.2304688, -8.2926826, -2.0121951, -1.1585366, 0.0172885
0.9902344, -0.0649414, -0.2290039, -8.6585369, -1.9512196, -0.7926829, 0.0129244
0.9960938, -0.0688477, -0.2265625, -8.9024391, -1.7682927, -0.8536586, 0.005539
0.996582, -0.0683594, -0.2246094, -8.780488, -1.7682927, -0.4268293, 0.0075532
0.9931641, -0.0751953, -0.2163086, -8.3536587, -1.4634147, -0.3048781, 0.0028534
0.9931641, -0.0766602, -0.2143555, -8.6585369, -1.7073171, -0.3048781, 0.005539
0.9931641, -0.0766602, -0.2133789, -8.6585369, -1.7073171, 0.1829268, -0.0015106
0.987793, -0.0791016, -0.215332, -8.4146347, -1.5853659, 0.3048781, -0.0041962
0.9741211, -0.0766602, -0.2138672, -8.3536587, -2.195122, 0.7317073, -0.0058747
0.9716797, -0.0698242, -0.2172852, -7.8658538, -2.0731707, 0.7926829, -0.0082246
0.9775391, -0.0708008, -0.2177734, -6.9512196, -2.6219513, 0.4878049, -0.0109102
0.9858398, -0.0688477, -0.2124023, -6.7073174, -2.8658538, 0.7926829, -0.0109102
0.9926758, -0.0708008, -0.2094727, -6.280488, -2.7439024, 0.7317073, -0.0166171
1.0078125, -0.0791016, -0.2055664, -6.1585369, -2.6219513, 0.5487805, -0.0216526
1.0078125, -0.0839844, -0.2011719, -6.5243902, -2.0731707, 0.4878049, -0.0243381
0.996582, -0.0947266, -0.1977539, -6.3414636, -1.7682927, 0.8536586, -0.0283665
0.9902344, -0.0961914, -0.2001953, -6.280488, -1.9512196, 0.9756098, -0.0307164
0.9804688, -0.0957031, -0.2060547, -5.3048782, -2.804878, 1.0365853, -0.0364233
0.9726562, -0.0888672, -0.2026367, -5, -3.2926829, 0.9756098, -0.0421302
0.9765625, -0.0849609, -0.1977539, -3.4146342, -3.7804878, 0, -0.0407874
0.9853516, -0.0859375, -0.1948242, -2.9878049, -4.0243902, -0.1829268, -0.0357519
0.9912109, -0.0854492, -0.1962891, -2.3170731, -4.0243902, -0.3658537, -0.0354162
0.9956055, -0.0820312, -0.2001953, -1.7682927, -4.2073174, -0.3658537, -0.0323949
0.9912109, -0.0844727, -0.2011719, -0.9756098, -3.9024391, -0.2439024, -0.026688
0.9848633, -0.0864258, -0.2148438, -1.4634147, -3.8414636, -0.3048781, -0.018967
0.9829102, -0.0942383, -0.2216797, -1.402439, -4.0243902, -0.2439024, -0.0112459
0.9663086, -0.0952148, -0.2314453, -2.3170731, -4.5121951, -0.3658537, -0.0065461
0.9575195, -0.0927734, -0.2333984, -2.6219513, -4.6951222, -0.0609756, -0.0015106
0.9506836, -0.0966797, -0.2324219, -3.3536587, -5.2439027, -0.1219512, 0.0065461
0.949707, -0.0883789, -0.2294922, -3.5365853, -5.1829271, -0.0609756, 0.0119173
0.9492188, -0.0932617, -0.2304688, -2.6829269, -5.2439027, -0.8536586, 0.0099031
0.9487305, -0.0859375, -0.2324219, -2.4390244, -5.2439027, -1.0365853, 0.0184634
0.9477539, -0.0756836, -0.2397461, -2.195122, -5.2439027, -0.9146342, 0.0186313
0.9570312, -0.0585938, -0.2504883, -2.4390244, -5.3658538, -0.7926829, 0.0132601
0.9633789, -0.0512695, -0.2578125, -2.7439024, -5.7317076, -0.6097561, 0.0152743
0.9785156, -0.043457, -0.2666016, -2.9878049, -6.0975609, -0.4268293, 0.0146029
0.9833984, -0.0380859, -0.2670898, -3.6585367, -5.9146342, -0.1219512, 0.0078889
0.9912109, -0.0332031, -0.2626953, -4.8780489, -4.8170733, 0.4878049, 0.0041962
0.9926758, -0.0356445, -0.2617188, -6.0365853, -4.4512196, 0.7317073, 0.0001678
0.9956055, -0.0371094, -0.2519531, -7.9268293, -3.9634147, 1.3414634, -0.0025177
0.9916992, -0.0341797, -0.2475586, -8.9634151, -3.9024391, 1.7073171, -0.0062104
0.9780273, -0.0317383, -0.2451172, -10.4878054, -4.2073174, 2.3780489, -0.0062104
0.9755859, -0.0439453, -0.2407227, -11.341464, -4.2682929, 2.6219513, -0.0203098
0.9790039, -0.0488281, -0.2431641, -12.3170738, -5.1219511, 2.3780489, -0.0203098
0.987793, -0.0786133, -0.2416992, -12.4390249, -5.0609756, 2.3780489, -0.0216526
0.987793, -0.09375, -0.2353516, -12.1341467, -4.9390244, 2.4390244, -0.026688
0.9907227, -0.1201172, -0.2241211, -11.7682934, -4.7560978, 2.0731707, -0.0243381
0.9892578, -0.128418, -0.2172852, -11.0365858, -3.8414636, 1.8292683, -0.0283665
0.9731445, -0.1499023, -0.2138672, -9.6951218, -3.2317073, 1.3414634, -0.0364233
0.9667969, -0.1552734, -0.2148438, -9.6951218, -3.3536587, 0.9756098, -0.0364233
0.9384766, -0.1533203, -0.2158203, -8.9634151, -4.2073174, 1.2195122, -0.0407874
0.9291992, -0.1489258, -0.2109375, -8.2317076, -4.9390244, 1.0365853, -0.04448
0.9282227, -0.1411133, -0.2006836, -6.7073174, -5.4878049, 0.4268293, -0.0532082
0.9355469, -0.1264648, -0.1884766, -6.1585369, -5.4878049, -0.1219512, -0.0552224
0.9414062, -0.1240234, -0.1894531, -4.8170733, -5.0609756, -0.6707317, -0.0466621
0.9526367, -0.0976562, -0.1879883, -4.1463413, -5.2439027, -0.7926829, -0.0508583
0.9584961, -0.0849609, -0.1914062, -3.5975611, -5.2439027, -0.5487805, -0.0542153
0.956543, -0.0498047, -0.1958008, -3.7804878, -5.609756, -0.1829268, -0.0481727
0.9501953, -0.027832, -0.199707, -5.3048782, -5.3658538, 0.9756098, -0.0471656
0.9536133, 0.0029297, -0.1972656, -8.5975609, -5.7317076, 1.7073171, -0.0451514
0.9584961, 0.0073242, -0.1918945, -10.1219511, -5.9756098, 1.8292683, -0.0438087
0.9643555, 0.0009766, -0.1928711, -12.560976, -6.5243902, 2.8658538, -0.0471656
0.9648438, -0.0087891, -0.1938477, -13.6585369, -6.6463418, 3.7195122, -0.0553902
0.9604492, -0.0253906, -0.2045898, -14.8170738, -7.1341467, 5.3048782, -0.051194
0.9604492, -0.0410156, -0.2143555, -15.4878054, -7.6829271, 6.0975609, -0.0471656
0.9697266, -0.0498047, -0.2197266, -15.7317076, -7.1341467, 6.8292685, -0.047837
0.9667969, -0.0625, -0.2275391, -16.2195129, -6.8292685, 6.890244, -0.0377661
0.9672852, -0.0722656, -0.2290039, -16.6463413, -5.7317076, 7.2560978, -0.0360876
0.9726562, -0.0820312, -0.2158203, -16.8292694, -5.7317076, 7.5609756, -0.0327306
0.9736328, -0.090332, -0.2060547, -16.280489, -5.609756, 6.7682929, -0.0179599
0.9765625, -0.1064453, -0.1889648, -14.4512196, -5.7926831, 6.3414636, -0.0139315
0.972168, -0.1166992, -0.1860352, -13.1097565, -5.9756098, 6.2195125, -0.0162814
0.9702148, -0.1333008, -0.1855469, -11.4634151, -5.7926831, 5.8536587, -0.0109102
0.9692383, -0.1386719, -0.1811523, -10.6097565, -6.0365853, 5.7926831, -0.0162814
0.9726562, -0.1435547, -0.1826172, -9.0853662, -6.0975609, 5.1219511, -0.0229953
0.9760742, -0.1411133, -0.1845703, -7.9268293, -6.0975609, 4.8780489, -0.01561
0.9814453, -0.1357422, -0.1904297, -6.0365853, -6.2195125, 4.1463413, -0.01561
0.980957, -0.1210938, -0.2143555, -5.4268293, -6.0975609, 4.0853658, -0.0229953
0.9824219, -0.1166992, -0.2265625, -5.5487804, -6.3414636, 4.2682929, -0.0379339
0.9838867, -0.1108398, -0.237793, -5.7926831, -6.8292685, 4.390244, -0.0337377
0.9912109, -0.1132812, -0.2363281, -6.0975609, -7.5609756, 4.4512196, -0.0347448
1.0029297, -0.1303711, -0.2280273, -5.7926831, -7.9268293, 4.2073174, -0.0337377
1.0024414, -0.1342773, -0.2172852, -5.4268293, -7.9268293, 3.9634147, -0.0370947
1.0004883, -0.1376953, -0.2104492, -4.9390244, -7.5, 4.0243902, -0.0471656
0.9897461, -0.1308594, -0.2080078, -4.6341462, -7.6219516, 3.8414636, -0.0417945
0.9790039, -0.125, -0.2114258, -4.5121951, -8.2926826, 3.8414636, -0.043473
0.9794922, -0.1176758, -0.2158203, -4.2682929, -8.780488, 3.6585367, -0.0486763
0.9824219, -0.1147461, -0.2138672, -3.8414636, -9.6341467, 3.7804878, -0.054551
0.9912109, -0.1171875, -0.2075195, -3.7195122, -9.6951218, 3.9024391, -0.051194
0.9946289, -0.1186523, -0.2041016, -2.3780489, -9.5731707, 3.5365853, -0.0475013
0.9941406, -0.1098633, -0.206543, -2.5, -9.5121956, 3.1707318, -0.0350805
0.9887695, -0.1069336, -0.2094727, -2.0731707, -9.0243902, 3.2926829, -0.0404517
0.9804688, -0.1005859, -0.2124023, -2.5609756, -9.0853662, 3.4146342, -0.0381018
0.9819336, -0.1000977, -0.2089844, -2.804878, -9.3902445, 3.5975611, -0.0323949
0.9868164, -0.0996094, -0.2143555, -2.9268293, -9.0243902, 3.4146342, -0.0206455
0.9819336, -0.1000977, -0.2192383, -3.2317073, -8.719512, 3.4756098, -0.0125887
0.9829102, -0.0869141, -0.2285156, -4.4512196, -8.4146347, 3.8414636, -0.0057069
0.9863281, -0.0839844, -0.21875, -4.9390244, -8.4756098, 4.2073174, 0.0041962
0.987793, -0.0776367, -0.2177734, -5.9146342, -8.719512, 4.6341462, 0.0078889
0.9804688, -0.0634766, -0.2060547, -5.7926831, -8.5365858, 4.5121951, -0.0010071
0.9794922, -0.0576172, -0.2050781, -6.0365853, -8.2926826, 4.5731707, -0.0045319
0.9794922, -0.0532227, -0.199707, -6.7073174, -8.1707315, 5, -0.0001678
0.9804688, -0.0576172, -0.2011719, -8.1097565, -8.1097565, 4.8780489, -0.0028534
0.9814453, -0.0737305, -0.2075195, -9.5731707, -8.2926826, 5.8536587, -0.0149386
0.9794922, -0.0844727, -0.2124023, -10.3658543, -8.2926826, 6.4024391, -0.023331
0.9780273, -0.1064453, -0.2182617, -11.219512, -8.5365858, 7.0731707, -0.027863
0.9785156, -0.1186523, -0.2231445, -11.219512, -9.0243902, 7.1951222, -0.0387732
0.9746094, -0.1420898, -0.2250977, -11.0365858, -8.841464, 6.5243902, -0.0485084
0.9780273, -0.1547852, -0.2226562, -10.4268293, -8.9634151, 6.3414636, -0.0525368
0.9794922, -0.1567383, -0.2246094, -9.4512196, -8.6585369, 5.670732, -0.0532082
0.980957, -0.1513672, -0.222168, -9.1463413, -8.4146347, 5.2439027, -0.0518654
0.9790039, -0.1459961, -0.2226562, -9.3292685, -8.5975609, 4.7560978, -0.040116
0.9648438, -0.1342773, -0.2226562, -8.6585369, -8.780488, 4.390244, -0.0256809
0.9648438, -0.1303711, -0.2211914, -8.9024391, -9.0243902, 4.5731707, -0.0203098
0.9638672, -0.1313477, -0.2211914, -8.9024391, -9.9390249, 4.6951222, -0.0078889
0.956543, -0.1220703, -0.2216797, -8.780488, -10.2439022, 4.9390244, 0.0070497
0.9501953, -0.1103516, -0.2158203, -8.3536587, -10.7317076, 5.3048782, 0.0135958
0.9536133, -0.0942383, -0.1928711, -7.9878049, -11.0975609, 5.1219511, 0.0280308
0.9624023, -0.0878906, -0.1850586, -7.8048782, -11.6463413, 4.4512196, 0.0347448
0.9746094, -0.09375, -0.1801758, -7.8658538, -11.7073174, 3.9634147, 0.0293736
0.9697266, -0.09375, -0.184082, -8.2317076, -12.5, 4.6951222, 0.027863
0.96875, -0.0986328, -0.1972656, -8.9024391, -13.5365858, 5.4878049, 0.0240024
0.9746094, -0.0976562, -0.2016602, -9.2073174, -15, 6.5853658, 0.0166171
0.9916992, -0.0986328, -0.2143555, -9.2682924, -16.0975609, 6.280488, 0.0186313
0.9926758, -0.1020508, -0.2124023, -9.5731707, -15.7317076, 6.5243902, 0.0048676
0.9819336, -0.1025391, -0.2324219, -10.3048782, -14.6341467, 6.9512196, -0.0109102
0.9760742, -0.0947266, -0.2412109, -11.1585369, -14.6951227, 7.3780489, -0.01561
0.9594727, -0.0864258, -0.2451172, -11.9512196, -16.6463413, 7.9268293, -0.0196384
0.9619141, -0.081543, -0.230957, -12.0731707, -17.3780499, 8.1097565, -0.023331
0.9731445, -0.0834961, -0.2216797, -11.6463413, -18.1097565, 8.0487804, -0.0310521
0.987793, -0.0917969, -0.2084961, -11.219512, -17.9878044, 7.5, -0.0320592
0.9897461, -0.0908203, -0.2050781, -11.219512, -17.3170738, 7.3170733, -0.0310521
0.9853516, -0.0976562, -0.2011719, -11.4024391, -17.1341476, 7.6219516, -0.0337377
0.9926758, -0.0986328, -0.2001953, -11.8292685, -18.1097565, 8.1097565, -0.0337377
1.0019531, -0.1191406, -0.2094727, -12.1951218, -18.9634151, 8.841464, -0.0384375
1.0048828, -0.1264648, -0.2211914, -12.0731707, -19.1463413, 8.9634151, -0.0394446
0.9990234, -0.1323242, -0.2504883, -11.7682934, -19.2682934, 9.3902445, -0.0364233
0.996582, -0.1362305, -0.2734375, -11.9512196, -19.5121956, 10.060976, -0.0350805
0.9960938, -0.1362305, -0.3017578, -12.0121956, -19.6951218, 9.9390249, -0.0330663
0.9956055, -0.152832, -0.315918, -12.4390249, -19.8170738, 9.5731707, -0.0344091
0.9975586, -0.1489258, -0.3154297, -13.2317076, -19.4512196, 9.2682924, -0.0337377
0.9897461, -0.1347656, -0.3173828, -13.3536587, -19.1463413, 9.2073174, -0.0323949
0.9838867, -0.1245117, -0.3154297, -14.5731707, -18.780489, 9.0853662, -0.0283665
0.9775391, -0.1010742, -0.3115234, -15.060976, -19.1463413, 9.0853662, -0.0273594
0.9794922, -0.0961914, -0.3046875, -17.1341476, -20.4268303, 9.1463413, -0.0265202
0.9887695, -0.0942383, -0.284668, -18.9634151, -21.8902435, 9.5731707, -0.0290379
0.9858398, -0.1025391, -0.2797852, -20.060976, -22.3170738, 9.8170738, -0.0310521
0.9848633, -0.1025391, -0.2705078, -22.560976, -23.4756107, 10.6097565, -0.0340734
0.9838867, -0.1088867, -0.2666016, -24.0243912, -24.1463413, 11.1585369, -0.0344091
0.9770508, -0.1206055, -0.2480469, -25.5487804, -25.9146347, 11.5243902, -0.0404517
0.9785156, -0.1337891, -0.2236328, -25.7317085, -26.9512196, 11.7073174, -0.0417945
0.9794922, -0.1367188, -0.2001953, -24.4512196, -28.4756107, 11.7682934, -0.0377661
0.987793, -0.1113281, -0.1606445, -23.5975609, -28.5975609, 11.8902445, -0.0515297
0.9785156, -0.0898438, -0.1494141, -22.6829281, -28.2926826, 11.9512196, -0.0515297
0.9804688, -0.0615234, -0.1474609, -23.5975609, -28.2317085, 11.9512196, -0.0471656
0.9785156, -0.0517578, -0.15625, -25.4878063, -29.3902454, 11.8902445, -0.0525368
0.9873047, -0.0615234, -0.1728516, -27.5, -32.4390259, 13.4756098, -0.0485084
0.9960938, -0.0668945, -0.1884766, -27.6219521, -33.7195129, 14.4512196, -0.0572366
1.0161133, -0.078125, -0.222168, -28.4146347, -35.3048782, 16.0975609, -0.0652934
1.0200195, -0.0854492, -0.237793, -28.3536587, -35.0609779, 16.1585369, -0.0659648
1.019043, -0.097168, -0.2685547, -29.3292694, -34.6951218, 15.7317076, -0.0619364
1.0004883, -0.1157227, -0.2866211, -29.8780499, -34.7560997, 15.5487804, -0.0642863
0.9985352, -0.1289062, -0.2851562, -30.4268303, -35.5487823, 15.3048782, -0.0699931
0.9868164, -0.1655273, -0.2905273, -30.1829281, -35.6707344, 15.2439032, -0.064622
0.9824219, -0.1811523, -0.300293, -29.3902454, -36.2804871, 15, -0.0585794
0.96875, -0.2036133, -0.3193359, -28.780489, -36.341465, 15.1219511, -0.0592508
0.9624023, -0.2075195, -0.3339844, -27.560976, -36.0975609, 15.5487804, -0.0572366
0.9580078, -0.2041016, -0.3525391, -26.8292694, -36.4634171, 15, -0.0518654
0.9614258, -0.2021484, -0.3618164, -26.280489, -36.7073174, 14.5731707, -0.0404517
0.9819336, -0.2114258, -0.3754883, -25.6707325, -36.8902435, 13.1707315, -0.0377661
0.9951172, -0.2182617, -0.3833008, -25.7926826, -37.2560997, 12.8048782, -0.0297093
1.0068359, -0.215332, -0.3803711, -27.0121956, -36.9512215, 12.8048782, -0.0250095
1.0102539, -0.1972656, -0.3603516, -27.1341476, -36.8292694, 12.6829271, -0.0209812
1.0136719, -0.1821289, -0.3476562, -27.8048782, -35.7317085, 12.8658543, -0.0209812
1.0083008, -0.1313477, -0.315918, -28.2317085, -35.5487823, 12.560976, -0.0243381
1.003418, -0.1030273, -0.3139648, -29.9390259, -35.0609779, 12.8658543, -0.0243381
1.003418, -0.0551758, -0.3139648, -31.1585369, -35.1219521, 13.5975609, -0.0270237
1.0073242, -0.050293, -0.3095703, -35.6707344, -36.5243912, 14.6951227, -0.0270237
1.0356445, -0.0820312, -0.3105469, -39.5731735, -37.1341476, 15.4878054, -0.0283665
1.0419922, -0.105957, -0.3129883, -40.7926826, -37.3780479, 16.4634151, -0.0310521
1.0351562, -0.1552734, -0.3237305, -42.7439041, -37.7439041, 18.4756107, -0.0243381
1.0234375, -0.1723633, -0.3344727, -43.0487823, -37.7439041, 19.3292694, -0.023331
1.0009766, -0.1953125, -0.3408203, -43.1707344, -38.1707344, 19.8170738, -0.0166171
0.9897461, -0.206543, -0.3374023, -42.8048782, -38.1097565, 19.6951218, -0.0176242
0.9824219, -0.2094727, -0.3334961, -42.4390259, -38.6585388, 19.5121956, -0.0182956
0.9765625, -0.1987305, -0.3041992, -41.8292694, -39.0853653, 19.5121956, -0.0095674
0.9750977, -0.1918945, -0.2958984, -40.3658562, -39.6341476, 19.2682934, -0.0001678
0.9658203, -0.1708984, -0.2871094, -39.5731735, -40.2439041, 19.1463413, 0.0058747
0.9648438, -0.1679688, -0.2905273, -37.7439041, -42.1341476, 18.9024391, 0.0146029
0.9702148, -0.1767578, -0.3022461, -37.0731697, -44.8780479, 19.2682934, 0.0146029
0.9755859, -0.1821289, -0.3100586, -36.341465, -46.1585388, 19.939024, 0.0085603
0.9853516, -0.2041016, -0.3203125, -34.7560997, -47.1951218, 20.7317085, 0.0075532
0.9868164, -0.2075195, -0.3193359, -34.0853653, -47.3780518, 20.5487804, 0.012253
0.9814453, -0.203125, -0.3095703, -32.8658562, -47.8048782, 20.060976, 0.0018463
0.9526367, -0.1796875, -0.3041992, -32.8048782, -48.1707344, 20.060976, -0.0041962
0.9384766, -0.159668, -0.3012695, -34.0243912, -49.5121956, 20.3048782, -0.0077211
0.9438477, -0.1166992, -0.2978516, -35.1829262, -50.2439041, 20.6707325, -0.0149386
0.9467773, -0.1118164, -0.2993164, -38.4146347, -52.5609779, 20.2439022, -0.0176242
0.9707031, -0.1113281, -0.3237305, -40.0609779, -53.9634171, 20.060976, -0.0199741
0.9770508, -0.1171875, -0.347168, -42.1951218, -56.2804909, 21.8292694, -0.0162814
0.9848633, -0.1210938, -0.3945312, -43.4146347, -58.2317085, 24.7560978, -0.0196384
0.9902344, -0.1166992, -0.4052734, -44.2073174, -59.1463432, 25.9146347, -0.0152743
0.9873047, -0.1220703, -0.4243164, -44.6951218, -59.7560997, 27.5, -0.0199741
0.9824219, -0.1181641, -0.4311523, -45.1829262, -60.1219521, 27.8048782, -0.0256809
0.9628906, -0.1142578, -0.4389648, -47.0121956, -60.6097565, 28.5975609, -0.0263523
0.9428711, -0.1176758, -0.4423828, -48.6585388, -61.4634171, 29.0853672, -0.0305486
0.9311523, -0.1176758, -0.4453125, -52.4390259, -63.6585388, 30.3658543, -0.0344091
0.9174805, -0.1342773, -0.4536133, -53.9024391, -65.3658524, 30.9146347, -0.0394446
0.9238281, -0.1445312, -0.4570312, -54.6951218, -69.1463394, 31.8292694, -0.0344091
0.9399414, -0.1821289, -0.4658203, -53.9024391, -70.9146347, 31.7682934, -0.0407874
0.9536133, -0.1958008, -0.4746094, -51.6463432, -73.1707306, 32.5, -0.0431373
0.9746094, -0.2275391, -0.4829102, -49.6341476, -73.7195129, 33.5365868, -0.0535439
0.980957, -0.234375, -0.4750977, -48.841465, -73.8414688, 33.9024391, -0.063447
0.9951172, -0.246582, -0.4282227, -46.0975609, -74.4512177, 33.5365868, -0.0621042
0.9956055, -0.2446289, -0.3989258, -44.4512215, -74.4512177, 33.1097565, -0.0605936
0.9882812, -0.2431641, -0.3881836, -41.8902435, -75.5487823, 32.5609779, -0.0639506
0.9926758, -0.3071289, -0.3974609, -41.8902435, -77.7439041, 32.3780479, -0.0605936
0.9677734, -0.309082, -0.3955078, -40.1219521, -79.2073212, 34.0853653, -0.0552224
0.925293, -0.2568359, -0.3364258, -38.4756088, -77.5, 35.8536606, -0.0619364
0.9243164, -0.2016602, -0.3310547, -34.0243912, -77.0121994, 37.0121956, -0.0619364
0.9638672, -0.0854492, -0.3852539, -31.5853672, -78.6585388, 35.7317085, -0.0464942
0.9887695, -0.0673828, -0.4262695, -30.2439022, -82.4390259, 31.7073174, -0.0448157
1.0375977, -0.1318359, -0.4960938, -34.6341476, -86.5243912, 32.6829262, -0.0404517
1.0556641, -0.1767578, -0.5102539, -37.1951218, -88.7195129, 34.8170738, -0.0364233
1.0625, -0.2255859, -0.512207, -38.7804871, -90.6097565, 38.2926826, -0.0271916
1.0478516, -0.230957, -0.5053711, -38.5975609, -90.18293, 39.0243912, -0.023331
1.0068359, -0.2231445, -0.4946289, -37.6219521, -88.9634171, 38.2926826, -0.0129244
0.9487305, -0.2036133, -0.5009766, -37.0121956, -89.3292694, 37.6829262, 0.0092317
0.9394531, -0.1962891, -0.5087891, -37.0731697, -90.7317123, 38.1707344, 0.0276951
0.9682617, -0.2075195, -0.4980469, -37.5, -91.9512253, 38.1097565, 0.0414588
0.9833984, -0.2182617, -0.4980469, -36.8292694, -92.8658524, 36.7073174, 0.054551
0.9970703, -0.2202148, -0.5253906, -36.341465, -92.7439041, 35.6707344, 0.0621042
0.9863281, -0.2148438, -0.5498047, -35.2439041, -92.8048782, 36.4634171, 0.0663005
0.9765625, -0.1884766, -0.6123047, -35.3048782, -93.3536606, 38.841465, 0.0676432
0.9819336, -0.1748047, -0.6328125, -35.6097565, -94.0243912, 39.6341476, 0.0669718
0.9995117, -0.1542969, -0.6455078, -35.5487823, -94.5121994, 39.5121956, 0.0614328
1.0107422, -0.15625, -0.6435547, -35.9146347, -94.146347, 38.841465, 0.0500191
1.0141602, -0.1713867, -0.6220703, -36.5853653, -92.9268341, 37.0731697, 0.0414588
0.9848633, -0.199707, -0.6171875, -36.5853653, -92.1341476, 37.0121956, 0.0387732
0.9692383, -0.2104492, -0.6318359, -37.3780479, -92.0731735, 38.1707344, 0.0285344
0.9438477, -0.234375, -0.6660156, -37.5, -92.5609741, 39.3902435, 0.0273594
0.9370117, -0.2441406, -0.6850586, -38.1097565, -93.3536606, 41.0365868, 0.0213169
0.9355469, -0.2480469, -0.6958008, -37.9878044, -93.5975647, 41.9512215, 0.0146029
0.9355469, -0.2426758, -0.6914062, -37.6829262, -92.5609741, 43.1707344, 0.0125887
0.9443359, -0.2114258, -0.6699219, -36.6463432, -90.9756088, 43.9634171, 0.0035248
0.9453125, -0.1943359, -0.6645508, -36.4024391, -90, 44.5121956, 0.0052033
0.9335938, -0.1625977, -0.6611328, -36.4634171, -90.6097565, 45.6097565, 0.0109102
0.9326172, -0.1508789, -0.6601562, -36.5243912, -91.646347, 46.5243912, 0.0112459
0.9462891, -0.1416016, -0.6464844, -37.3780479, -93.5365906, 47.3170738, 0.0045319
0.9555664, -0.1508789, -0.6352539, -37.6219521, -93.4756088, 47.6829262, 0.0092317
0.9501953, -0.1606445, -0.6333008, -38.1707344, -93.1097565, 48.9634171, 0.0068818
0.921875, -0.1850586, -0.6416016, -38.5365868, -92.9878082, 49.6951218, 0.0105745
0.8984375, -0.1933594, -0.6499023, -38.841465, -94.0853653, 52.0731735, 0.0078889
0.8842773, -0.2045898, -0.6611328, -38.4756088, -95, 52.9878044, 0.0092317
0.8857422, -0.2202148, -0.6567383, -37.9268303, -98.1707306, 53.4756126, 0.0025177
0.9140625, -0.2495117, -0.6230469, -36.5243912, -100.2439041, 53.2926826, -0.0008392
0.9272461, -0.2680664, -0.6108398, -35.3658562, -101.0975647, 52.6219521, -0.0008392
0.9472656, -0.2910156, -0.5908203, -33.841465, -102.68293, 52.3780518, -0.0036927
0.9545898, -0.3037109, -0.5834961, -33.1097565, -103.7804871, 52.6219521, -0.0109102
0.9692383, -0.3193359, -0.5761719, -31.4024391, -106.4634171, 52.5, -0.0142672
0.9858398, -0.3383789, -0.574707, -30.5487804, -107.5, 52.8048782, -0.0135958
0.9897461, -0.3442383, -0.574707, -28.4756107, -109.9390259, 53.1707344, -0.01561
0.9921875, -0.3505859, -0.5776367, -27.6829281, -110.8536606, 53.5365868, -0.0169528
0.9873047, -0.3486328, -0.5874023, -25.8536587, -112.1341476, 53.5365868, -0.0196384
0.9648438, -0.3256836, -0.6137695, -23.9634151, -113.1707306, 54.3292694, -0.0182956
0.9550781, -0.3120117, -0.6254883, -23.5365868, -113.7195129, 54.6341476, -0.0219883
0.9472656, -0.262207, -0.6489258, -23.1707325, -115.0609818, 55.2439041, -0.0203098
0.9482422, -0.237793, -0.6582031, -24.1463413, -115.8536606, 55.0609779, -0.0226596
0.9472656, -0.2055664, -0.6777344, -27.6219521, -117.0731735, 53.9024391, -0.0236667
0.9370117, -0.2099609, -0.6918945, -29.8170738, -118.3536606, 53.4146347, -0.0229953
0.9331055, -0.2192383, -0.6918945, -33.6585388, -120.5487823, 53.1707344, -0.0287022
0.9272461, -0.2412109, -0.6669922, -34.5731697, -121.646347, 53.7804909, -0.0340734
0.9248047, -0.2539062, -0.6479492, -35.3048782, -122.6219559, 54.6951218, -0.0394446
0.9160156, -0.2670898, -0.6435547, -35.0609779, -122.3780518, 54.8170738, -0.0370947
0.9047852, -0.2768555, -0.6601562, -34.2073174, -122.7439041, 55.1219521, -0.0414588
0.8803711, -0.296875, -0.7036133, -34.5731697, -123.2926865, 55.7926826, -0.0340734
0.8769531, -0.3071289, -0.730957, -34.6951218, -124.2073212, 56.4024391, -0.0337377
0.8774414, -0.3173828, -0.765625, -34.5731697, -125.0609818, 56.8902435, -0.0337377
0.8803711, -0.3149414, -0.7739258, -34.0853653, -125, 56.8292694, -0.0223239
0.8769531, -0.2988281, -0.7758789, -33.7804871, -123.9634171, 57.1951218, -0.01561
0.878418, -0.2739258, -0.7709961, -33.2926826, -123.7804871, 57.2560997, -0.014435
0.8725586, -0.2714844, -0.7749023, -33.5975609, -123.6585388, 57.1341476, -0.005539
0.8642578, -0.2670898, -0.7817383, -33.841465, -123.5975647, 57.0731735, -0.0001678
0.8603516, -0.2744141, -0.7915039, -34.8780479, -125.0609818, 58.0487823, -0.008896
0.862793, -0.2973633, -0.8154297, -34.9390259, -125.7926865, 58.6585388, -0.0043641
0.8549805, -0.3066406, -0.8242188, -34.2682953, -127.4390259, 60.0609779, -0.002182
0.8496094, -0.3071289, -0.8505859, -32.8658562, -128.4756165, 62.4390259, -0.0062104
0.8515625, -0.3022461, -0.8500977, -32.0121956, -128.4146423, 62.9268303, -0.0078889
0.8544922, -0.2963867, -0.8256836, -30.7317085, -128.2926788, 63.2926826, -0.0149386
0.859375, -0.2963867, -0.8032227, -29.8170738, -127.9268341, 63.2317085, -0.0135958
0.8569336, -0.2973633, -0.7714844, -29.0853672, -127.7439041, 61.9512215, -0.0125887
0.8291016, -0.3100586, -0.7895508, -29.1463413, -128.4146423, 61.4634171, -0.0203098
0.8222656, -0.3320312, -0.8022461, -29.1463413, -130.6707306, 61.8902435, -0.0310521
0.8081055, -0.3774414, -0.8491211, -28.9024391, -131.9512177, 62.3780518, -0.0339055
0.8051758, -0.394043, -0.8579102, -27.0731716, -133.9024353, 63.6585388, -0.0317235
0.8100586, -0.4042969, -0.8544922, -25.5487804, -133.9024353, 64.2073212, -0.0357519
0.8168945, -0.3920898, -0.8461914, -22.6219521, -133.4756165, 65.1219559, -0.0283665
0.8276367, -0.3608398, -0.824707, -20.9146347, -132.1341553, 64.6951218, -0.0297093
0.8242188, -0.3466797, -0.8222656, -20.6707325, -132.1341553, 64.3292694, -0.0310521
0.8173828, -0.3139648, -0.824707, -20.7926826, -132.3170776, 64.3902435, -0.0364233
0.809082, -0.3022461, -0.8300781, -21.5243912, -132.9878082, 64.6951218, -0.0411231
0.8149414, -0.2895508, -0.8427734, -23.6585369, -134.7561035, 64.6951218, -0.0485084
0.8134766, -0.3032227, -0.862793, -24.9390259, -135.6707306, 64.8170776, -0.0538796
0.8051758, -0.3081055, -0.8862305, -25.7926826, -137.5, 64.9390259, -0.0532082
0.7993164, -0.3364258, -0.8916016, -25.4878063, -138.2317047, 66.1585388, -0.0466621
0.8085938, -0.3417969, -0.878418, -23.1097565, -138.8414612, 67.3780518, -0.0404517
0.8300781, -0.3666992, -0.8510742, -21.4024391, -138.7804871, 67.2560959, -0.0323949
0.8344727, -0.3857422, -0.8574219, -18.3536587, -138.2317047, 66.4024429, -0.0276951
0.8178711, -0.4067383, -0.8994141, -18.0487804, -138.5365906, 66.1585388, -0.0223239
0.8007812, -0.4111328, -0.9160156, -18.5975609, -139.0243988, 66.2804871, -0.01561
0.7807617, -0.3994141, -0.9086914, -18.8414631, -140.2439117, 66.4024429, -0.0052033
0.777832, -0.3867188, -0.8847656, -18.6585369, -140.4878082, 65.9756088, -0.0125887
0.7802734, -0.3520508, -0.8530273, -18.2317085, -139.2073212, 64.4512177, -0.0260166
0.7641602, -0.3305664, -0.8652344, -18.1097565, -138.6585388, 63.7804909, -0.0238346
0.7514648, -0.3413086, -0.8828125, -18.9634151, -139.9390259, 63.4756126, -0.0330663
0.7470703, -0.3681641, -0.909668, -18.9024391, -141.0365906, 64.0243912, -0.0337377
0.7539062, -0.3779297, -0.9208984, -17.9268303, -142.6219482, 65.6707306, -0.0360876
0.7724609, -0.3671875, -0.9370117, -17.2560978, -142.1951294, 66.5853653, -0.0391089
0.7817383, -0.3505859, -0.9453125, -16.5853653, -140.6097565, 66.7682953, -0.0290379
0.7827148, -0.3339844, -0.9580078, -17.6829281, -139.6951294, 65.7317123, -0.0263523
0.78125, -0.3393555, -0.9501953, -18.5365849, -139.6951294, 65.2439041, -0.018967
0.765625, -0.3515625, -0.9311523, -18.8414631, -139.6341553, 64.3902435, -0.0229953
0.7543945, -0.355957, -0.9150391, -18.9634151, -139.8170776, 64.5121994, -0.0135958
0.7216797, -0.347168, -0.8886719, -18.1097565, -139.3902435, 64.1463394, -0.0082246
0.7021484, -0.3564453, -0.9057617, -17.9878044, -139.5731812, 64.0853653, -0.005539
0.6870117, -0.371582, -0.9291992, -17.8658543, -141.0365906, 63.7195129, -0.0015106
0.6918945, -0.4150391, -0.9467773, -17.7439022, -142.6219482, 63.7804909, -0.0011749
0.7011719, -0.4379883, -0.9443359, -16.280489, -145.4878082, 64.6341476, -0.0001678
0.7241211, -0.4482422, -0.9345703, -14.6341467, -145.8536682, 64.8170776, -0.0011749
0.7260742, -0.4272461, -0.9399414, -11.6463413, -143.7195129, 65.0609741, -0.0041962
0.7001953, -0.3676758, -0.9599609, -11.0975609, -141.0365906, 64.3292694, -0.0062104
0.6879883, -0.347168, -0.9780273, -12.0121956, -141.3414612, 63.5975609, -0.0035248
0.6757812, -0.3413086, -1.0073242, -13.841464, -143.3536682, 62.68293, -0.01561
0.684082, -0.3588867, -1.0019531, -14.1463413, -144.4512177, 62.6219521, -0.0176242
0.7055664, -0.3847656, -0.9746094, -13.4146347, -143.9634247, 62.7439041, -0.0182956
0.706543, -0.4052734, -0.9418945, -12.7439032, -142.8048859, 62.2560997, -0.0248417
0.6958008, -0.4082031, -0.934082, -10.8536587, -141.646347, 61.9512215, -0.0276951
0.6713867, -0.4091797, -0.9306641, -9.8780489, -141.646347, 62.4390259, -0.0310521
0.6606445, -0.4077148, -0.9272461, -8.4146347, -142.86586, 62.6219521, -0.030045
0.6445312, -0.3984375, -0.9291992, -8.2926826, -143.4146423, 62.0731735, -0.0303807
0.6342773, -0.3881836, -0.9335938, -7.2560978, -144.3292694, 60.9756126, -0.0250095
0.609375, -0.359375, -0.9433594, -6.4024391, -144.5121918, 59.6341476, -0.040116
0.6025391, -0.3491211, -0.9379883, -6.3414636, -145.1219482, 59.6341476, -0.04448
0.6098633, -0.3378906, -0.9208984, -6.4634147, -146.1585388, 59.5121956, -0.04448
0.6171875, -0.3369141, -0.9233398, -5.9146342, -146.2804871, 59.5731735, -0.0505226
0.6132812, -0.3408203, -0.9589844, -5.0609756, -147.0121918, 60.4878044, -0.0533761
0.6035156, -0.347168, -1.0249023, -5.1219511, -147.8048859, 61.0365868, -0.0528725
0.6035156, -0.3496094, -1.0551758, -4.6341462, -149.3292694, 62.68293, -0.0535439
0.6240234, -0.3427734, -1.0654297, -4.6341462, -149.5731812, 63.0487823, -0.0528725
0.6376953, -0.3330078, -1.0512695, -5, -147.9268341, 62.9268303, -0.0532082
0.6328125, -0.3149414, -1.0117188, -5.7317076, -146.4024353, 62.0731735, -0.0518654
0.6171875, -0.3076172, -0.996582, -7.2560978, -143.6585388, 60.8536606, -0.0513619
0.5698242, -0.3178711, -0.9863281, -8.5975609, -144.3292694, 60.7317085, -0.0421302
0.5463867, -0.3300781, -1, -9.1463413, -145.4268341, 61.0365868, -0.0411231
0.5375977, -0.3701172, -1.0249023, -8.4146347, -148.0487823, 62.1951218, -0.04448
0.550293, -0.3916016, -1.0336914, -7.4390244, -148.9024353, 62.6219521, -0.0384375
0.5795898, -0.4125977, -1.0170898, -5, -148.5365906, 62.0121956, -0.0330663
0.5849609, -0.4047852, -0.9711914, -3.5365853, -147.2561035, 61.7073174, -0.03122
0.5761719, -0.4003906, -0.9453125, -2.195122, -145.0609741, 59.6951218, -0.0260166
0.5317383, -0.3974609, -0.9389648, -2.3170731, -144.2682953, 58.7804909, -0.0112459
0.5039062, -0.402832, -0.9492188, -2.7439024, -145.5487823, 58.3536606, -0.0117494
0.4560547, -0.4169922, -0.9692383, -2.6219513, -146.7682953, 58.1707344, -0.0152743
0.4516602, -0.4135742, -0.9677734, -1.7073171, -149.6341553, 58.3536606, -0.0151064
0.4672852, -0.3891602, -0.9555664, -0.2439024, -150.6707306, 57.1341476, -0.024506
0.4765625, -0.3691406, -0.9467773, -0.0609756, -150.3048859, 55.9146347, -0.0243381
0.4716797, -0.3378906, -0.9550781, -0.8536586, -149.6951294, 54.6951218, -0.0283665
0.4594727, -0.3378906, -0.9726562, -1.5853659, -150.8536682, 54.6341476, -0.0377661
0.4438477, -0.3486328, -0.9975586, -1.7073171, -153.1097565, 55.9756126, -0.0431373
0.465332, -0.3598633, -0.9863281, -1.3414634, -153.6585388, 56.5853653, -0.047837
0.4799805, -0.3613281, -0.9780273, -0.4268293, -153.2317047, 56.4634171, -0.0438087
0.4780273, -0.3510742, -0.9755859, -0.1829268, -152.4390259, 56.2195129, -0.0500191
0.4663086, -0.340332, -0.9794922, -0.7317073, -151.3414612, 55.6707344, -0.0525368
0.4384766, -0.3208008, -0.9921875, -1.1585366, -151.0365906, 55.7317085, -0.0538796
0.4311523, -0.3149414, -0.9946289, -2.6219513, -152.86586, 55.18293, -0.0532082
0.4213867, -0.3232422, -1.0009766, -3.7804878, -154.0853729, 54.0243912, -0.0475013
0.4179688, -0.3291016, -1.0092773, -4.2073174, -154.3292694, 54.1463432, -0.0451514
0.4091797, -0.3481445, -1.0102539, -3.9634147, -153.9634247, 55, -0.040116
0.4125977, -0.3500977, -1.0048828, -3.4146342, -153.9024353, 55.4268303, -0.0357519
0.4106445, -0.3383789, -1.0004883, -2.1341465, -152.3170776, 55.0609779, -0.0288701
0.3857422, -0.3237305, -1.0444336, -2.5609756, -151.3414612, 55.0609779, -0.0164492
0.3681641, -0.3183594, -1.0791016, -3.9024391, -150.7317047, 55.7317085, -0.0119173
0.359375, -0.3349609, -1.1323242, -4.8780489, -151.1585388, 56.7682953, -0.0162814
0.3803711, -0.3535156, -1.1303711, -4.7560978, -152.1951294, 58.3536606, -0.0095674
0.4228516, -0.3676758, -1.0776367, -4.0243902, -152.1951294, 58.5365868, -0.0109102
0.4375, -0.3632812, -1.0473633, -2.6219513, -148.5365906, 57.7439041, -0.0124208
0.4067383, -0.34375, -1.0087891, -2.6219513, -144.8170776, 56.7682953, -0.0142672
0.3740234, -0.3334961, -1.0039062, -3.2926829, -144.0853729, 57.0731735, -0.012253
0.3129883, -0.324707, -1.0205078, -4.6951222, -146.7073212, 57.6219521, -0.0176242
0.3012695, -0.3271484, -1.0258789, -4.6341462, -148.4146423, 57.5, -0.0135958
0.3051758, -0.3500977, -1.0336914, -4.2073174, -149.9390259, 57.0121956, -0.002182
0.3193359, -0.375, -1.0449219, -4.4512196, -149.5121918, 57.1951218, 0.0063783
0.3183594, -0.3881836, -1.0463867, -4.3292685, -147.9268341, 57.5, 0.0159457
0.3071289, -0.3725586, -1.0419922, -4.5121951, -147.7439117, 57.68293, 0.0159457
0.3012695, -0.3583984, -1.0239258, -4.9390244, -147.0731812, 57.0731735, 0.0198062
0.2905273, -0.3354492, -1.0053711, -5.670732, -147.3170776, 56.2195129, 0.0119173
0.2797852, -0.3305664, -1.0107422, -7.2560978, -148.7804871, 55.4268303, 0.0092317
0.2592773, -0.3535156, -1.0341797, -9.2073174, -151.4634247, 56.0975609, 0.0092317
0.253418, -0.3759766, -1.0454102, -9.3902445, -152.4390259, 57.0121956, 0.0119173
0.2661133, -0.3886719, -1.0498047, -8.5365858, -153.0487823, 58.0487823, 0.0105745
0.2661133, -0.3779297, -1.0522461, -8.3536587, -152.2561035, 58.0487823, 0.0058747
0.2626953, -0.3505859, -1.046875, -8.9634151, -150.4878082, 57.0121956, 0.002182
0.2392578, -0.3378906, -1.0522461, -9.4512196, -150.1219482, 56.4634171, -0.0075532
0.2275391, -0.3427734, -1.0566406, -10.3048782, -152.0731812, 56.5243912, -0.0035248
0.2246094, -0.3813477, -1.0771484, -10.1219511, -153.5975647, 56.9512215, -0.0005035
0.2294922, -0.3930664, -1.0883789, -8.1097565, -154.8170776, 58.1097565, 0.0011749
0.2382812, -0.3925781, -1.1044922, -5.9756098, -153.7195129, 58.6585388, -0.0099031
0.237793, -0.3823242, -1.1147461, -5.8536587, -152.1951294, 58.841465, -0.0135958
0.2143555, -0.3549805, -1.1254883, -6.8292685, -149.9390259, 58.5365868, -0.018967
0.2055664, -0.3461914, -1.1113281, -7.9268293, -149.7561035, 57.8658562, -0.0243381
0.2036133, -0.3369141, -1.0532227, -10.2439022, -150.3048859, 56.4634171, -0.0243381
0.1884766, -0.347168, -0.9931641, -11.219512, -150.8536682, 55.6097565, -0.0337377
0.1694336, -0.3554688, -0.9775391, -12.5, -151.8902435, 54.8780518, -0.0350805
0.1118164, -0.3706055, -1.0180664, -12.6219511, -152.4390259, 55.3658562, -0.0417945
0.0878906, -0.375, -1.0605469, -12.3780489, -155.0609741, 57.5, -0.0387732
0.078125, -0.3759766, -1.1137695, -11.5243902, -156.2804871, 58.7804909, -0.0404517
0.0996094, -0.3701172, -1.1142578, -11.341464, -157.0121918, 59.3902435, -0.0525368
0.1572266, -0.3564453, -1.0717773, -12.8048782, -154.6341553, 57.1341476, -0.0585794
0.1743164, -0.3520508, -1.0449219, -14.0853662, -153.1097565, 55.6097565, -0.0595865
0.1450195, -0.3486328, -1.0234375, -17.439024, -151.2804871, 53.7195129, -0.0585794
0.1137695, -0.3583984, -1.0268555, -18.1707325, -152.1951294, 54.1463432, -0.0558938
0.0668945, -0.3886719, -1.0615234, -17.1341476, -155.5487823, 56.4024391, -0.0525368
0.0498047, -0.4267578, -1.0878906, -15.6707325, -156.7682953, 57.4390259, -0.0562295
0.0576172, -0.4365234, -1.0834961, -11.5853662, -156.5243988, 58.7195129, -0.0498512
0.0703125, -0.4272461, -1.0639648, -9.5121956, -155.0609741, 58.6585388, -0.051194
0.0708008, -0.4067383, -1.0571289, -8.1707315, -151.5853729, 58.0487823, -0.051194
0.0415039, -0.3671875, -1.0595703, -8.780488, -150.4268341, 57.3170738, -0.0525368
0.0297852, -0.3554688, -1.050293, -10.6707315, -151.4634247, 56.8292694, -0.0525368
0.0336914, -0.3530273, -1.0185547, -11.4634151, -153.5365906, 55.9756126, -0.047837
0.0332031, -0.3574219, -1.0009766, -11.4024391, -154.3292694, 55.2439041, -0.0498512
0.0112305, -0.3759766, -1.0141602, -10.4878054, -154.5731812, 55, -0.0518654
-0.0039062, -0.3867188, -1.0366211, -10.5487804, -154.2682953, 55.9756126, -0.0527047
-0.0283203, -0.3955078, -1.0839844, -10.1829271, -154.8780518, 57.9268303, -0.0501869
-0.0063477, -0.3803711, -1.0727539, -10.2439022, -155.4268341, 58.5365868, -0.043473
0.0200195, -0.3686523, -1.0410156, -10.4878054, -154.6951294, 56.5243912, -0.0381018
0.0258789, -0.3579102, -0.9736328, -10.9756098, -153.3536682, 54.8170738, -0.0330663
0.0068359, -0.3681641, -0.9550781, -11.8292685, -151.4634247, 52.9268303, -0.0327306
-0.046875, -0.3950195, -0.965332, -11.5853662, -151.7682953, 52.9268303, -0.0209812
-0.0654297, -0.4072266, -0.9853516, -10.7926836, -153.4756165, 53.9024391, -0.014435
-0.0761719, -0.4228516, -1.0322266, -9.6341467, -155.2439117, 53.841465, -0.0058747
-0.0761719, -0.4277344, -1.0561523, -9.2682924, -155.36586, 53.4756126, 0.0031891
-0.0751953, -0.4160156, -1.0844727, -10.3658543, -155.3048859, 52.9878044, 0.0085603
-0.0688477, -0.3974609, -1.0864258, -11.5243902, -154.8780518, 52.6219521, 0.0172885
-0.0458984, -0.3764648, -1.0751953, -12.9268293, -154.6341553, 51.4024391, 0.0196384
-0.0327148, -0.3793945, -1.0522461, -13.1707315, -154.0853729, 50.6707344, 0.026688
-0.0327148, -0.3920898, -1.046875, -13.6585369, -153.5365906, 49.8780518, 0.0162814
-0.0512695, -0.4121094, -1.0371094, -13.2926836, -153.0487823, 50.1219521, 0.0162814
-0.0678711, -0.4106445, -1.0322266, -12.1951218, -152.2561035, 50.0609779, 0.0075532
-0.0917969, -0.3974609, -1.0234375, -11.8292685, -151.7682953, 49.8780518, 0.0005035
-0.1069336, -0.3974609, -1.0239258, -11.7073174, -152.0121918, 49.6341476, -0.0048676
-0.1225586, -0.3950195, -1.0009766, -12.2560978, -153.2317047, 49.1463432, -0.0105745
-0.1220703, -0.3916016, -0.9897461, -11.9512196, -153.7195129, 48.9024391, -0.0229953
-0.1411133, -0.3530273, -0.9633789, -12.7439032, -152.86586, 47.9878044, -0.0350805
-0.1640625, -0.3349609, -0.953125, -13.9634151, -152.1341553, 47.4390259, -0.0406195
-0.1943359, -0.3212891, -0.9580078, -16.4634151, -152.1951294, 47.3170738, -0.0317235
-0.2133789, -0.3344727, -0.9638672, -17.6219521, -152.6829376, 48.1097565, -0.0317235
-0.2050781, -0.3574219, -0.9555664, -18.3536587, -153.5365906, 49.3292694, -0.0305486
-0.1967773, -0.3876953, -0.9448242, -17.9268303, -153.0487823, 49.8170738, -0.0236667
-0.1918945, -0.3984375, -0.949707, -16.9512196, -152.5609741, 50.6707344, -0.0132601
-0.1855469, -0.3999023, -0.9770508, -16.4024391, -152.5, 51.0975609, -0.012253
-0.1845703, -0.3984375, -0.9951172, -15.9146347, -152.6219482, 52.2560997, -0.0052033
-0.1772461, -0.3911133, -0.9956055, -16.4024391, -152.3170776, 52.0121956, -0.0008392
-0.1782227, -0.3852539, -0.9882812, -16.6463413, -151.4634247, 51.4634171, 0.0119173
-0.2143555, -0.3549805, -0.9770508, -18.1097565, -149.4512177, 51.9512215, 0.0186313
-0.2368164, -0.3291016, -0.9824219, -18.9024391, -148.7804871, 52.3780518, 0.0172885
-0.262207, -0.2949219, -0.9980469, -21.7073174, -148.6585388, 52.0121956, 0.01561
-0.2436523, -0.3417969, -0.9755859, -22.439024, -149.6341553, 52.4390259, 0.0199741
-0.2084961, -0.3759766, -0.9545898, -22.439024, -150.9146423, 53.2317085, 0.0258488
-0.1782227, -0.4355469, -0.9248047, -22.0121956, -149.8780518, 53.4146347, 0.0219883
-0.1948242, -0.4462891, -0.9291992, -20.060976, -146.9512177, 53.5975609, 0.0206455
-0.2578125, -0.4047852, -0.9614258, -19.4512196, -145.6097565, 54.0243912, 0.0182956
-0.2866211, -0.3691406, -0.9731445, -19.5731716, -145.2439117, 53.5365868, 0.0072175
-0.3305664, -0.3115234, -0.9575195, -21.8292694, -146.3414612, 51.9512215, -0.0068818
-0.3305664, -0.2944336, -0.9311523, -22.8658543, -147.3170776, 50.7317085, -0.0082246
-0.3139648, -0.2978516, -0.8696289, -25.5487804, -147.9878082, 49.7560997, -0.0209812
-0.3085938, -0.3139648, -0.8515625, -26.280489, -148.1097565, 49.6341476, -0.0310521
-0.315918, -0.3564453, -0.8642578, -27.5, -147.8048859, 50.6707344, -0.0384375
-0.3300781, -0.3916016, -0.8925781, -27.2560978, -147.7439117, 51.5853653, -0.0458228
-0.3310547, -0.4008789, -0.9042969, -26.0975609, -147.9268341, 52.1951218, -0.0595865
-0.3232422, -0.4067383, -0.9155273, -25.3658543, -147.5, 51.8292694, -0.0686503
-0.3242188, -0.3999023, -0.9311523, -24.8780499, -146.0365906, 50.6097565, -0.0887922
-0.3286133, -0.3652344, -0.9624023, -25.4268303, -145.1829376, 49.8170738, -0.1022202
-0.3256836, -0.3569336, -0.9599609, -27.0731716, -144.9390259, 48.4756126, -0.1132982
-0.3105469, -0.3588867, -0.9082031, -28.1097565, -145.2439117, 46.6463432, -0.1210193
-0.2993164, -0.3632812, -0.8696289, -28.5975609, -144.5731812, 45.7317085, -0.1153124
-0.3212891, -0.3735352, -0.8256836, -29.8170738, -142.1341553, 44.4512215, -0.1143053
-0.3569336, -0.3745117, -0.8354492, -30.4268303, -141.1585388, 44.5731735, -0.1008774
-0.4233398, -0.362793, -0.8706055, -30.3658543, -141.1585388, 45.0609779, -0.0797284
-0.421875, -0.3564453, -0.8686523, -30.1219521, -142.1951294, 45.0609779, -0.0582437
-0.3955078, -0.3535156, -0.8598633, -28.6585369, -144.4512177, 43.9634171, -0.0481727
-0.3671875, -0.3574219, -0.8520508, -28.3536587, -143.9024353, 42.9268303, -0.0256809
-0.3676758, -0.3666992, -0.8608398, -29.0853672, -143.2317047, 42.0731735, -0.0036927
-0.3710938, -0.3676758, -0.8735352, -29.3902454, -143.0487823, 42.5609779, 0.0072175
-0.3642578, -0.3686523, -0.8574219, -29.1463413, -143.0487823, 42.8658562, 0.0142672
-0.3603516, -0.3549805, -0.8271484, -27.8658543, -140.6707306, 41.7073174, 0.0198062
-0.3798828, -0.3442383, -0.8242188, -28.0487804, -138.7804871, 40.7926826, 0.026688
-0.4257812, -0.3354492, -0.8540039, -28.7195129, -137.7439117, 41.2195129, 0.0287022
-0.4418945, -0.3320312, -0.8764648, -28.780489, -138.2926788, 41.6463432, 0.0347448
-0.4272461, -0.3466797, -0.8701172, -27.5, -139.5121918, 41.4634171, 0.0411231
-0.3886719, -0.340332, -0.8134766, -26.5243912, -139.3902435, 41.0365868, 0.0486763
-0.3857422, -0.328125, -0.7929688, -25.8536587, -136.0365906, 38.9024391, 0.0508583
-0.4243164, -0.3154297, -0.7910156, -27.1341476, -134.0853729, 38.1707344, 0.0562295
-0.453125, -0.3100586, -0.8017578, -30.1219521, -133.3536682, 38.2317085, 0.06009
-0.4824219, -0.3007812, -0.8037109, -31.341465, -134.0243988, 38.6585388, 0.0535439
-0.4804688, -0.3061523, -0.78125, -31.2195129, -136.2195129, 38.4146347, 0.0518654
-0.4599609, -0.3071289, -0.7387695, -29.9390259, -135.1829224, 37.5, 0.0451514
-0.4658203, -0.3105469, -0.7133789, -29.6951218, -134.146347, 37.1951218, 0.0352483
-0.4765625, -0.2954102, -0.675293, -29.6341476, -132.5, 36.4634171, 0.0263523
-0.4926758, -0.2954102, -0.6586914, -30.1219521, -132.1951294, 36.0365868, 0.026688
-0.5219727, -0.2993164, -0.6523438, -30.4878063, -134.0243988, 34.8780479, 0.0203098
-0.5488281, -0.3383789, -0.6992188, -30.6707325, -135.4878082, 34.8780479, 0.0115816
-0.5571289, -0.3603516, -0.7324219, -29.7560978, -137.9878082, 35.7926826, 0.0078889
-0.543457, -0.3808594, -0.7744141, -28.0487804, -138.9634247, 36.8292694, 0.0065461
-0.5146484, -0.3764648, -0.7705078, -23.4146347, -138.9024353, 37.1951218, -0.0072175
-0.4707031, -0.3144531, -0.7255859, -21.4024391, -137.5, 36.2804871, -0.0045319
-0.4633789, -0.2841797, -0.7001953, -20.3048782, -133.1707306, 33.9024391, -0.0104067
-0.496582, -0.2270508, -0.6679688, -23.0487804, -130.1219482, 32.3170738, -0.0115816
-0.5185547, -0.2080078, -0.6689453, -25.4878063, -129.9390259, 32.1341476, -0.0169528
-0.5566406, -0.2128906, -0.7041016, -29.0243912, -132.1951294, 33.1097565, -0.0223239
-0.5610352, -0.2353516, -0.7275391, -29.6341476, -133.6585388, 34.5121956, -0.030045
-0.5488281, -0.2739258, -0.7548828, -28.3536587, -133.5365906, 36.8902435, -0.0297093
-0.5209961, -0.2680664, -0.7602539, -27.3170738, -131.5853729, 37.5, -0.0285344
-0.5097656, -0.2514648, -0.7597656, -26.1585369, -126.4024429, 37.3170738, -0.0337377
-0.5117188, -0.2148438, -0.746582, -26.280489, -124.5121994, 36.9512215, -0.0344091
-0.5063477, -0.2075195, -0.7207031, -28.4146347, -122.86586, 35.7317085, -0.0323949
-0.4960938, -0.2143555, -0.6245117, -29.5121956, -122.8048782, 35.0609779, -0.0381018
-0.5068359, -0.2202148, -0.5805664, -30.9756107, -122.7439041, 34.2682953, -0.0359197
-0.5600586, -0.2294922, -0.5786133, -31.8292694, -122.0731735, 34.6341476, -0.0370947
-0.5976562, -0.2441406, -0.6166992, -32.0121956, -122.5609818, 36.0365868, -0.0332341
-0.6420898, -0.2670898, -0.7114258, -31.4024391, -124.7561035, 39.9390259, -0.0344091
-0.6279297, -0.2822266, -0.7412109, -30.3048782, -125.6707382, 41.5853653, -0.0350805
-0.550293, -0.2905273, -0.7514648, -26.5243912, -125.1219559, 41.341465, -0.0481727
-0.4609375, -0.296875, -0.7016602, -25.3658543, -124.0853653, 40.2439041, -0.0538796
-0.4389648, -0.2939453, -0.6738281, -24.3292694, -120.36586, 37.4390259, -0.0619364
-0.4550781, -0.2719727, -0.6523438, -24.9390259, -118.2926865, 36.4634171, -0.0716716
-0.4814453, -0.2563477, -0.659668, -27.0121956, -116.2195129, 35.4878044, -0.0726787
-0.5288086, -0.2392578, -0.6655273, -27.8658543, -115.6707306, 35.2439041, -0.0681468
-0.5419922, -0.2426758, -0.644043, -27.9268303, -115.6707306, 35, -0.0676432
-0.5405273, -0.2646484, -0.5415039, -25.060976, -114.146347, 32.9268303, -0.0763714
-0.543457, -0.2695312, -0.4873047, -23.5365868, -113.1707306, 31.7682934, -0.0797284
-0.5756836, -0.2695312, -0.4443359, -22.0731716, -110.5487823, 30.4878063, -0.081239
-0.6064453, -0.2558594, -0.4716797, -22.9878063, -110.2439041, 30.9756107, -0.0758679
-0.6513672, -0.2392578, -0.5410156, -25.4268303, -111.4024429, 31.7682934, -0.0783856
-0.6430664, -0.2226562, -0.5874023, -25.7926826, -112.7439041, 32.0121956, -0.0897993
-0.6181641, -0.2177734, -0.590332, -24.6951218, -114.2073212, 31.280489, -0.093492
-0.5424805, -0.21875, -0.5649414, -23.4146347, -114.8170776, 30.4268303, -0.096849
-0.5185547, -0.2260742, -0.5429688, -21.4024391, -113.7195129, 28.3536587, -0.0867781
-0.5019531, -0.2211914, -0.5205078, -21.9512196, -112.2561035, 27.8048782, -0.0867781
-0.5092773, -0.2197266, -0.5102539, -23.4146347, -109.4512253, 27.1341476, -0.0847639
-0.5415039, -0.2182617, -0.4907227, -24.6341476, -107.1341476, 26.7682934, -0.0830854
-0.5620117, -0.2231445, -0.4863281, -24.5121956, -106.646347, 27.0121956, -0.0736858
-0.5966797, -0.2192383, -0.4794922, -22.9878063, -105.6707306, 26.8902454, -0.0686503
-0.6030273, -0.2163086, -0.4726562, -21.4634151, -105, 26.8902454, -0.064622
-0.6040039, -0.2045898, -0.4887695, -20.3658543, -103.9024429, 26.4024391, -0.061265
-0.597168, -0.190918, -0.5249023, -20.7317085, -103.5365906, 26.280489, -0.0609293
-0.590332, -0.1904297, -0.5170898, -22.6829281, -102.5, 25.7926826, -0.0505226
-0.5512695, -0.1958008, -0.4521484, -23.3536587, -102.0731735, 24.7560978, -0.0411231
-0.543457, -0.203125, -0.421875, -24.5121956, -100.0609818, 21.4634151, -0.0377661
-0.5664062, -0.215332, -0.4077148, -25.9756107, -98.8414688, 20.2439022, -0.0171206
-0.5859375, -0.2260742, -0.4125977, -26.4634151, -98.6585388, 20.6707325, 0.0008392
-0.6176758, -0.2353516, -0.4047852, -25.7926826, -99.0853653, 22.7439022, 0.0186313
-0.6259766, -0.2338867, -0.3964844, -23.9634151, -99.0243912, 22.8048782, 0.0347448
-0.625, -0.2143555, -0.4194336, -20.7926826, -96.4024429, 21.9512196, 0.0488441
-0.6323242, -0.1914062, -0.496582, -21.0365868, -95.0609741, 21.7073174, 0.0605936
-0.6289062, -0.1782227, -0.5351562, -23.2926826, -93.0487823, 21.5853672, 0.0696574
-0.5976562, -0.15625, -0.5512695, -25, -92.9268341, 21.8292694, 0.0720073
-0.5727539, -0.1518555, -0.5166016, -26.3414631, -91.7073212, 19.8170738, 0.072343
-0.5336914, -0.1655273, -0.4160156, -26.280489, -90.3658524, 18.2926826, 0.0683146
-0.5390625, -0.1762695, -0.3798828, -26.2195129, -87.3170776, 16.1585369, 0.0669718
-0.5947266, -0.1899414, -0.3647461, -27.9878063, -85.1219559, 17.1951218, 0.0726787
-0.6230469, -0.1899414, -0.3642578, -28.3536587, -84.7560959, 18.3536587, 0.0736858
-0.6518555, -0.1923828, -0.3608398, -27.0121956, -84.8170776, 19.939024, 0.0736858
-0.6591797, -0.2075195, -0.3676758, -25.3658543, -84.7560959, 20.060976, 0.0741894
-0.6523438, -0.2265625, -0.3828125, -21.4024391, -83.9634171, 20.1829281, 0.0627756
-0.6274414, -0.2207031, -0.3798828, -20, -83.0487823, 20.1829281, 0.0481727
-0.6196289, -0.2109375, -0.3652344, -18.3536587, -79.6951218, 19.0853672, 0.0377661
-0.6147461, -0.1962891, -0.3325195, -17.6219521, -78.2926865, 18.2926826, 0.0253452
-0.6166992, -0.1923828, -0.3105469, -17.2560978, -76.0365906, 16.5243912, 0.0219883
-0.6269531, -0.1708984, -0.2890625, -17.439024, -75, 15.9756098, 0.0092317
-0.6323242, -0.1469727, -0.2919922, -19.5731716, -71.2804871, 15.4268293, -0.0016785
-0.6772461, -0.1259766, -0.3388672, -25.7317085, -69.1463394, 17.2560978, -0.0115816
-0.6987305, -0.1323242, -0.3168945, -30, -69.8780518, 19.2073174, -0.0260166
-0.7041016, -0.1660156, -0.1889648, -28.0487804, -72.5609741, 18.2317085, -0.0323949
-0.706543, -0.1694336, -0.1962891, -23.4756107, -73.1097565, 16.3414631, -0.0394446
-0.71875, -0.1787109, -0.3198242, -19.2073174, -71.5853653, 16.280489, -0.0424659
-0.6611328, -0.1948242, -0.3676758, -20.4878044, -70.6097565, 17.439024, -0.0495155
-0.6220703, -0.1982422, -0.3457031, -23.5365868, -68.2317123, 16.7682934, -0.057908
-0.5898438, -0.1855469, -0.2695312, -23.7195129, -66.1585388, 14.5731707, -0.0607614
-0.6123047, -0.1777344, -0.2446289, -22.9878063, -61.5243912, 11.1585369, -0.0562295
-0.6708984, -0.1586914, -0.2265625, -23.0487804, -59.7560997, 10.6097565, -0.0575723
-0.703125, -0.1523438, -0.2285156, -22.9268303, -58.2926826, 11.4634151, -0.068986
-0.7265625, -0.1494141, -0.2329102, -22.8658543, -58.3536606, 12.1951218, -0.0748608
-0.7211914, -0.1538086, -0.2333984, -22.6829281, -57.9268303, 12.1951218, -0.0783856
-0.6938477, -0.1669922, -0.2485352, -21.5243912, -56.0365868, 11.5853662, -0.0861067
-0.6831055, -0.1782227, -0.2666016, -21.4024391, -54.4512215, 11.5243902, -0.0837568
-0.6635742, -0.1977539, -0.3071289, -21.5853672, -51.5853653, 10.6707315, -0.0780499
-0.6503906, -0.2011719, -0.2983398, -21.8292694, -49.8170738, 10, -0.0807355
-0.6479492, -0.2026367, -0.2670898, -21.4024391, -46.2195129, 7.3780489, -0.0941634
-0.6665039, -0.2021484, -0.1962891, -21.0365868, -44.1463432, 5.9146342, -0.0971847
-0.6831055, -0.1982422, -0.1889648, -20.4268303, -41.4024391, 4.5731707, -0.0975204
-0.7324219, -0.1826172, -0.237793, -20.2439022, -40.6707344, 4.7560978, -0.0961776
-0.75, -0.1645508, -0.2617188, -21.8902435, -39.8170738, 5.9756098, -0.0976883
-0.7392578, -0.1401367, -0.2651367, -23.2317085, -37.8658562, 5.3658538, -0.0998703
-0.7226562, -0.1347656, -0.2514648, -23.1097565, -36.5243912, 4.5121951, -0.0955062
-0.6865234, -0.144043, -0.2597656, -24.3292694, -34.2073174, 3.3536587, -0.0881209
-0.6826172, -0.1577148, -0.269043, -25.6097565, -33.4146347, 3.2317073, -0.0793927
-0.6728516, -0.1757812, -0.2670898, -27.1341476, -31.8292694, 3.4146342, -0.0748608
-0.6650391, -0.1694336, -0.2216797, -26.6463413, -30.3658543, 2.9268293, -0.0679789
-0.6743164, -0.1660156, -0.1962891, -24.8170738, -26.5853672, 0.8536586, -0.0500191
-0.7084961, -0.1665039, -0.1762695, -24.4512196, -24.7560978, -0.1829268, -0.0357519
-0.7348633, -0.1630859, -0.1948242, -25.3658543, -22.9268303, -0.1219512, -0.030045
-0.7617188, -0.1538086, -0.2431641, -26.4024391, -22.9878063, 0.4268293, -0.0260166
-0.753418, -0.1547852, -0.2592773, -26.8902454, -23.5975609, 1.5853659, -0.0208133
-0.7060547, -0.175293, -0.2646484, -25.4268303, -22.1951218, 0.8536586, -0.0152743
-0.6855469, -0.184082, -0.2553711, -23.8414631, -20.3658543, 0.4268293, -0.0030213
-0.6679688, -0.1845703, -0.222168, -21.1585369, -15.9146347, -1.0365853, 0.0045319
-0.6762695, -0.1767578, -0.1958008, -20.6707325, -13.841464, -1.6463414, 0.0129244
-0.7143555, -0.1694336, -0.1479492, -20.4268303, -10.8536587, -2.804878, 0.0240024
-0.746582, -0.1831055, -0.1347656, -20.9146347, -10.1219511, -2.9268293, 0.0287022
-0.7592773, -0.1933594, -0.1533203, -20.1829281, -10, -2.4390244, 0.0226596
-0.7416992, -0.2172852, -0.2177734, -19.5121956, -9.8780489, -1.7073171, 0.0213169
-0.7294922, -0.2172852, -0.2617188, -18.1097565, -8.2317076, -0.8536586, 0.0253452
-0.7050781, -0.1816406, -0.3237305, -17.3780499, -6.0975609, -1.097561, 0.0290379
-0.6982422, -0.1689453, -0.3237305, -17.6829281, -1.5853659, -2.804878, 0.0238346
-0.6958008, -0.140625, -0.2890625, -19.2682934, 2.2560976, -4.7560978, 0.0273594
-0.6972656, -0.1347656, -0.2749023, -20.5487804, 3.6585367, -5.8536587, 0.0226596
-0.7255859, -0.144043, -0.2563477, -23.6585369, 4.5121951, -6.0365853, 0.0171206
-0.7329102, -0.1484375, -0.2490234, -25.1219521, 4.8170733, -5.609756, 0.0219883
-0.7285156, -0.1782227, -0.2314453, -25.9146347, 5.8536587, -5.8536587, 0.0256809
-0.7045898, -0.1967773, -0.2060547, -25.9146347, 7.1341467, -6.4024391, 0.0273594
-0.6977539, -0.2055664, -0.1972656, -25.3658543, 9.6341467, -7.6219516, 0.0293736
-0.7016602, -0.2207031, -0.2011719, -25.060976, 11.219512, -8.4146347, 0.0231632
-0.7109375, -0.2280273, -0.206543, -25.1829281, 13.5365858, -8.3536587, 0.0182956
-0.7255859, -0.222168, -0.2270508, -24.5121956, 14.2682934, -8.5365858, 0.0078889
-0.7250977, -0.2192383, -0.2387695, -23.6585369, 17.3780499, -9.6951218, 0.0038605
-0.7280273, -0.1967773, -0.2631836, -23.5975609, 20.6707325, -11.1585369, -0.0050355
-0.7260742, -0.1875, -0.2695312, -24.1463413, 21.8902435, -11.5243902, -0.0172885
-0.7104492, -0.1782227, -0.2709961, -25, 24.0243912, -12.9268293, -0.0196384
-0.6982422, -0.1762695, -0.2617188, -25.2439022, 25.060976, -13.5365858, -0.0223239
-0.6831055, -0.1801758, -0.2456055, -25.6097565, 27.8048782, -15.4268293, -0.0263523
-0.6958008, -0.1899414, -0.2553711, -26.0975609, 29.2073174, -15.6097565, -0.0256809
-0.7050781, -0.2050781, -0.2651367, -26.4634151, 30.8536587, -14.6951227, -0.0271916
-0.7060547, -0.2226562, -0.2998047, -26.0365868, 31.5243912, -14.0243902, -0.0263523
-0.7070312, -0.2241211, -0.3242188, -25, 34.3902435, -14.0243902, -0.0327306
-0.6933594, -0.230957, -0.3525391, -24.3902435, 36.5243912, -14.0243902, -0.0377661
-0.684082, -0.2280273, -0.3540039, -23.7195129, 39.8780479, -14.9390249, -0.0431373
-0.6665039, -0.2241211, -0.3447266, -23.7195129, 42.9878044, -16.4634151, -0.0411231
-0.6616211, -0.2158203, -0.3344727, -24.0853672, 44.7560997, -17.5, -0.0365911
-0.6601562, -0.199707, -0.3012695, -25.7317085, 47.9878044, -19.5121956, -0.0337377
-0.6728516, -0.2011719, -0.2832031, -25.9146347, 49.1463432, -20.5487804, -0.0392767
-0.6899414, -0.215332, -0.2714844, -25.8536587, 49.2073174, -21.6463413, -0.0438087
-0.7021484, -0.2441406, -0.3046875, -25.6097565, 49.0243912, -21.7682934, -0.0417945
-0.6992188, -0.2563477, -0.3330078, -24.3902435, 48.9024391, -21.4634151, -0.0387732
-0.6748047, -0.2753906, -0.375, -23.8414631, 49.3902435, -21.5853672, -0.0344091
-0.6557617, -0.2832031, -0.3876953, -22.1951218, 52.2560997, -22.3170738, -0.0392767
-0.6450195, -0.2744141, -0.3896484, -22.0121956, 54.3902435, -23.2317085, -0.036759
-0.6352539, -0.2602539, -0.3754883, -21.9512196, 57.68293, -25.4268303, -0.0364233
-0.6391602, -0.2294922, -0.3432617, -22.7439022, 60.5487823, -29.0243912, -0.0407874
-0.6445312, -0.2182617, -0.3266602, -23.4756107, 61.4024391, -30.9146347, -0.0414588
-0.6640625, -0.2114258, -0.3115234, -25.7317085, 61.7073174, -33.2926826, -0.0428016
-0.6743164, -0.2158203, -0.3076172, -26.4634151, 60.9756126, -33.841465, -0.0364233
-0.6728516, -0.2387695, -0.3334961, -27.9878063, 60.0609779, -34.0243912, -0.0364233
-0.6733398, -0.2587891, -0.375, -27.9878063, 60.2439041, -34.0243912, -0.0370947
-0.6616211, -0.2602539, -0.3916016, -27.0121956, 61.4634171, -32.6829262, -0.0320592
-0.6489258, -0.2441406, -0.4130859, -26.1585369, 62.8658562, -32.5609779, -0.018967
-0.640625, -0.2329102, -0.4106445, -24.2682934, 66.2804871, -33.3536606, -0.0176242
-0.6318359, -0.2119141, -0.4023438, -23.7195129, 68.3536606, -34.2073174, -0.0169528
-0.637207, -0.2050781, -0.4067383, -23.4756107, 71.4634171, -36.0975609, -0.0129244
-0.6494141, -0.2099609, -0.4306641, -24.0243912, 72.5609741, -36.6463432, -0.0120851
-0.65625, -0.2216797, -0.4399414, -24.2073174, 72.7439041, -35.7926826, -0.0095674
-0.6523438, -0.230957, -0.4458008, -23.0487804, 73.2926865, -34.1463432, -0.0038605
-0.6484375, -0.2299805, -0.4438477, -22.1341476, 74.5121994, -33.6585388, 0.0058747
-0.640625, -0.2124023, -0.4257812, -20.060976, 77.2560959, -33.841465, 0.0112459
-0.6435547, -0.2104492, -0.4150391, -19.7560978, 78.5975647, -34.0853653, 0.0159457
-0.6508789, -0.2075195, -0.4169922, -20.6097565, 80.2439041, -34.5731697, 0.01561
-0.671875, -0.2216797, -0.4248047, -21.5853672, 80.4878082, -34.4512215, 0.01561
-0.6772461, -0.2358398, -0.4282227, -22.439024, 80.4268341, -33.1097565, 0.0169528
-0.6523438, -0.2553711, -0.4443359, -22.3780499, 80.4878082, -32.4390259, 0.0117494
-0.6420898, -0.2641602, -0.4545898, -20.7317085, 82.1341476, -32.0731697, 0.0115816
-0.6357422, -0.2661133, -0.487793, -18.5975609, 85.2439041, -31.7073174, 0.0092317
-0.6328125, -0.2646484, -0.5029297, -18.0487804, 87.0121994, -31.6463413, 0.0119173
-0.6279297, -0.2436523, -0.5058594, -17.3170738, 89.9390259, -32.0121956, 0.0070497
-0.6191406, -0.2358398, -0.4907227, -16.8902435, 91.3414688, -33.1707306, 0.0018463
-0.6108398, -0.2304688, -0.4716797, -16.4634151, 92.8048782, -35.3658562, -0.0028534
-0.6191406, -0.2260742, -0.4697266, -17.2560978, 93.4756088, -36.0975609, -0.0068818
-0.6279297, -0.2353516, -0.4741211, -19.1463413, 94.2682953, -36.2804871, -0.0077211
-0.6293945, -0.2529297, -0.4990234, -19.8170738, 94.3902435, -35.6097565, -0.0179599
-0.6289062, -0.2568359, -0.5244141, -21.3414631, 94.6341476, -34.5731697, -0.0162814
-0.6240234, -0.262207, -0.5532227, -21.4634151, 94.9390259, -34.0853653, -0.0162814
-0.6162109, -0.2578125, -0.5493164, -21.0365868, 94.5731735, -33.9634171, -0.0149386
-0.5874023, -0.2407227, -0.5092773, -18.780489, 95.7317123, -35.5487823, -0.026688
-0.5776367, -0.2324219, -0.4755859, -17.439024, 96.4024429, -36.341465, -0.0407874
-0.5810547, -0.2177734, -0.4282227, -14.0853662, 97.5609741, -37.9878044, -0.0407874
-0.5961914, -0.2089844, -0.4228516, -13.2317076, 97.6219559, -38.3536606, -0.0407874
-0.6347656, -0.2070312, -0.4550781, -13.1707315, 95.9756088, -37.6829262, -0.0461585
-0.637207, -0.2304688, -0.5053711, -13.2317076, 94.3292694, -36.7073174, -0.0485084
-0.6235352, -0.2568359, -0.5371094, -12.8048782, 90.8536606, -35.7317085, -0.0464942
-0.5751953, -0.2963867, -0.6113281, -11.8292685, 90.18293, -35.3048782, -0.0498512
-0.5585938, -0.3115234, -0.6435547, -8.780488, 90.2439041, -34.7560997, -0.0498512
-0.5385742, -0.3134766, -0.6674805, -6.0365853, 92.5609741, -33.4756088, -0.0411231
-0.53125, -0.3046875, -0.6523438, -4.4512196, 94.3902435, -33.5365868, -0.0377661
-0.5185547, -0.2739258, -0.5917969, -0.7926829, 97.9878082, -35.6097565, -0.0357519
-0.5224609, -0.2592773, -0.5756836, 0.3048781, 99.4512253, -36.5853653, -0.0327306
-0.5419922, -0.2397461, -0.5737305, 1.097561, 99.6341476, -38.1707344, -0.030045
-0.5581055, -0.2514648, -0.590332, 0.4878049, 99.0243912, -38.2317085, -0.0198062
-0.5600586, -0.2661133, -0.5996094, -1.2195122, 98.1707306, -37.2560997, -0.0196384
-0.5556641, -0.3051758, -0.5952148, -1.2804878, 98.2926865, -36.5243912, -0.0162814
-0.5488281, -0.3203125, -0.5869141, 1.3414634, 99.8780518, -35.5487823, -0.0095674
-0.5517578, -0.3330078, -0.5771484, 3.9634147, 101.3414688, -35.4268303, -0.0045319
-0.5678711, -0.324707, -0.5722656, 9.2682924, 105.3048782, -34.7560997, 0.0011749
-0.581543, -0.2993164, -0.5634766, 13.780488, 108.7195129, -34.1463432, 0.0041962
-0.5795898, -0.2802734, -0.5571289, 15.3658543, 109.4512253, -34.4512215, 0.0065461
-0.5634766, -0.253418, -0.5429688, 17.8048782, 109.3902435, -36.2195129, 0.008896
-0.5444336, -0.246582, -0.5375977, 18.5365849, 108.7804871, -37.3780479, 0.0068818
-0.5161133, -0.2509766, -0.565918, 18.9024391, 107.5, -38.841465, 0.0072175
-0.503418, -0.2631836, -0.6708984, 18.2317085, 107.8048782, -39.3902435, 0.0099031
-0.5048828, -0.2651367, -0.7568359, 14.1463413, 107.9878082, -37.7439041, 0.0058747
-0.5224609, -0.2587891, -0.9199219, 10.9146347, 108.2926865, -36.2195129, -0.0005035
-0.5161133, -0.2495117, -0.9545898, 4.8170733, 109.4512253, -32.6219521, 0.0062104
-0.4575195, -0.2231445, -0.8955078, 2.7439024, 110.4878082, -31.7073174, 0.0063783
-0.4204102, -0.2114258, -0.8286133, 2.6829269, 113.0487823, -34.6951218, -0.0045319
-0.4023438, -0.1791992, -0.699707, 4.2073174, 115.9756088, -40.0609779, -0.0041962
-0.4228516, -0.168457, -0.6630859, 3.7195122, 117.2561035, -41.7073174, -0.0082246
-0.5087891, -0.1542969, -0.6401367, -3.0487804, 117.3170776, -39.6341476, -0.011078
-0.5473633, -0.1547852, -0.6381836, -7.8658538, 116.4024429, -37.1341476, -0.0162814
-0.5786133, -0.1733398, -0.6411133, -15.4878054, 113.0487823, -33.0487823, -0.018967
-0.5527344, -0.2255859, -0.6591797, -18.1707325, 111.5853653, -32.1951218, -0.0209812
-0.5336914, -0.2631836, -0.6860352, -18.8414631, 110.36586, -32.5, -0.0182956
-0.487793, -0.3334961, -0.7250977, -18.1707325, 110.18293, -32.6219521, -0.0139315
-0.4648438, -0.3608398, -0.7270508, -15.060976, 111.8292694, -33.2317085, -0.018967
-0.4199219, -0.40625, -0.6826172, -13.1097565, 112.9268341, -33.7195129, -0.0179599
-0.4042969, -0.4155273, -0.6542969, -6.4634147, 115, -34.8170738, -0.0176242
-0.4077148, -0.4042969, -0.640625, 0.1829268, 117.1951218, -36.8902435, -0.0219883
-0.4272461, -0.3847656, -0.671875, 2.195122, 117.68293, -37.4390259, -0.0203098
-0.4848633, -0.3442383, -0.809082, 2.1341465, 119.0243912, -36.2195129, -0.0236667
-0.4912109, -0.3305664, -0.8891602, 0.3658537, 118.9024429, -34.6951218, -0.0320592
-0.4663086, -0.3198242, -1.0336914, -3.4756098, 119.146347, -32.9878044, -0.0370947
-0.3857422, -0.3388672, -1.0825195, -4.8780489, 119.3292694, -33.4756088, -0.036759
-0.3417969, -0.3535156, -1.0571289, -4.1463413, 120.7926865, -36.9512215, -0.0431373
-0.2773438, -0.3813477, -0.9135742, -2.4390244, 122.5609818, -39.3902435, -0.0417945
-0.2670898, -0.3881836, -0.8173828, 3.1097562, 127.5609818, -43.5365868, -0.0339055
-0.309082, -0.3754883, -0.6513672, 5.9146342, 130.2439117, -44.8170738, -0.0357519
-0.3618164, -0.3603516, -0.6098633, 9.2682924, 133.7195129, -45.7317085, -0.0307164
-0.4819336, -0.3217773, -0.6367188, 9.1463413, 134.2073212, -43.1097565, -0.0350805
-0.5405273, -0.3056641, -0.6835938, 7.3170733, 133.5365906, -40.4878044, -0.0391089
-0.5732422, -0.2724609, -0.7709961, 2.9878049, 131.5243988, -36.5853653, -0.036759
-0.5517578, -0.2680664, -0.793457, 1.5243902, 130.2439117, -36.0975609, -0.0263523
-0.4506836, -0.2700195, -0.8300781, 0.2439024, 128.0487823, -38.1707344, -0.0229953
-0.3525391, -0.2866211, -0.8793945, -0.0609756, 127.4390259, -39.9390259, -0.0325628
-0.3183594, -0.2949219, -0.9008789, -2.2560976, 128.2926788, -41.341465, -0.0292058
-0.2641602, -0.3110352, -0.909668, -4.0853658, 129.6341553, -41.341465, -0.023331
-0.2543945, -0.3105469, -0.9033203, -7.0731707, 132.3170776, -40, -0.0273594
-0.2563477, -0.3129883, -0.8618164, -7.9268293, 133.5365906, -39.6341476, -0.0265202
-0.2758789, -0.3115234, -0.8378906, -8.1097565, 135.1219482, -39.0243912, -0.0323949
-0.3349609, -0.3041992, -0.7924805, -7.1951222, 135.7317047, -38.1707344, -0.0360876
-0.3588867, -0.3032227, -0.7749023, -6.6463418, 135.9146423, -36.9512215, -0.0412909
-0.4042969, -0.2954102, -0.7841797, -5.4878049, 135.4878082, -35.3048782, -0.056733
-0.4140625, -0.2895508, -0.8100586, -5.670732, 134.5731812, -34.7560997, -0.0676432
-0.4155273, -0.2988281, -0.878418, -8.1707315, 133.4146423, -34.3902435, -0.0649577
-0.3671875, -0.34375, -0.8613281, -9.6341467, 132.86586, -34.7560997, -0.06009
-0.3291016, -0.3666992, -0.8129883, -10, 132.7439117, -36.6463432, -0.0501869
-0.2539062, -0.4116211, -0.6972656, -8.2317076, 133.1707306, -38.5975609, -0.0404517
-0.2382812, -0.4213867, -0.6918945, -2.9878049, 133.9024353, -42.3780479, -0.0273594
-0.2563477, -0.4296875, -0.8271484, -1.0365853, 134.4512177, -43.4146347, -0.0104067
-0.2797852, -0.4345703, -0.9477539, -0.6097561, 135, -42.2560997, -0.0018463
-0.2954102, -0.4506836, -1.1708984, -3.9024391, 133.5975647, -38.2317085, 0.008896
-0.2734375, -0.472168, -1.2333984, -4.2073174, 132.5609741, -36.5243912, 0.0182956
-0.1728516, -0.519043, -1.203125, -0.1829268, 131.4634247, -36.8292694, 0.0240024
-0.1123047, -0.5253906, -1.1337891, 3.8414636, 132.5609741, -38.6585388, 0.0159457
-0.0561523, -0.5102539, -0.9501953, 12.6829271, 138.6585388, -44.0243912, 0.0152743
-0.1308594, -0.4384766, -0.8203125, 16.3414631, 142.4390259, -46.4024391, 0.0199741
-0.2094727, -0.3911133, -0.7788086, 18.2926826, 148.5365906, -48.1707344, 0.0139315
-0.3666992, -0.2817383, -0.7558594, 16.8292694, 149.6341553, -47.3170738, 0.0075532
-0.4272461, -0.2260742, -0.7739258, 11.219512, 147.8048859, -44.0853653, 0.0045319
-0.4775391, -0.1479492, -0.8417969, 7.1951222, 145, -42.9878044, 0.0041962
-0.4614258, -0.1362305, -0.8666992, -1.097561, 137.6829376, -41.4634171, 0.0008392
-0.371582, -0.1669922, -0.8613281, -8.2926826, 133.1097565, -41.7682953, 0
-0.2973633, -0.2080078, -0.828125, -10.9756098, 131.7682953, -42.6219521, -0.0048676
-0.1538086, -0.3012695, -0.7724609, -13.2926836, 131.4634247, -43.4146347, -0.0031891
-0.112793, -0.3354492, -0.7802734, -14.2073174, 132.0121918, -43.3536606, -0.0048676
-0.0961914, -0.3720703, -0.8798828, -16.9512196, 135.2439117, -41.2804871, -0.0036927
-0.128418, -0.3803711, -1.0361328, -19.4512196, 137.1341553, -39.6341476, 0.0090639
-0.1342773, -0.387207, -1.1181641, -24.4512196, 138.7804871, -35.9756088, 0.0085603
-0.1176758, -0.4121094, -1.2373047, -26.4024391, 138.4756165, -34.7560997, 0.0030213
-0.0932617, -0.4355469, -1.2641602, -28.5365868, 136.7682953, -34.2682953, -0.0043641
-0.0361328, -0.4614258, -1.2441406, -28.3536587, 136.4634247, -34.9390259, -0.0050355
-0.0092773, -0.4682617, -1.2089844, -26.6463413, 138.4756165, -36.5243912, -0.0109102
0.0136719, -0.4614258, -1.1210938, -24.8170738, 142.9878082, -39.4512215, -0.0176242
0.0004883, -0.4526367, -1.0688477, -24.2073174, 145.5487823, -40.9146347, -0.0216526
-0.0600586, -0.4453125, -0.9858398, -22.6829281, 149.2073212, -42.4390259, -0.0159457
-0.1015625, -0.4458008, -0.9560547, -21.8292694, 150.1219482, -42.8658562, -0.0135958
-0.1821289, -0.4467773, -0.9233398, -19.3292694, 149.5731812, -42.7439041, -0.0219883
-0.2348633, -0.4287109, -0.9208984, -17.8048782, 148.6585388, -42.6829262, -0.0216526
-0.2416992, -0.4121094, -0.9194336, -15.9146347, 146.0975647, -42.9268303, -0.018967
-0.222168, -0.3959961, -0.8955078, -15.2439032, 145.5487823, -43.1707344, -0.0102388
-0.1953125, -0.3881836, -0.8632812, -14.2073174, 145.3048859, -44.4512215, -0.0216526
-0.1430664, -0.375, -0.8452148, -12.9878054, 144.8780518, -45.0609779, -0.0256809
-0.1171875, -0.362793, -0.8803711, -10.8536587, 143.5975647, -46.2804871, -0.023331
-0.0771484, -0.3696289, -1.0444336, -10.6707315, 142.1341553, -44.6951218, -0.0243381
-0.0571289, -0.3984375, -1.1318359, -11.4634151, 141.3414612, -42.6219521, -0.0223239
0.0180664, -0.4692383, -1.2509766, -11.8902445, 139.5731812, -39.0243912, -0.0261845
0.0649414, -0.5043945, -1.2651367, -11.0365858, 139.146347, -37.5609779, -0.0196384
0.1479492, -0.5385742, -1.2128906, -6.6463418, 140.9146423, -36.7073174, -0.018967
0.1679688, -0.5009766, -1.0751953, -4.5731707, 143.9634247, -37.1951218, -0.0250095
0.1469727, -0.4462891, -0.9926758, -1.2804878, 152.0731812, -39.0243912, -0.0209812
0.0561523, -0.3173828, -0.8344727, -0.7926829, 155.9756165, -40.4268303, -0.0213169
-0.0068359, -0.2563477, -0.7739258, -2.0731707, 159.8170776, -43.6585388, -0.0176242
-0.1333008, -0.1713867, -0.7363281, -4.0243902, 159.3292694, -44.5731735, -0.0152743
-0.1806641, -0.1586914, -0.7558594, -9.8170738, 153.4146423, -43.9024391, -0.0109102
-0.1972656, -0.1821289, -0.8442383, -17.6219521, 143.6585388, -40.3658562, -0.0166171
-0.1572266, -0.2124023, -0.8930664, -21.0365868, 139.2682953, -38.0487823, -0.0125887
-0.0244141, -0.2939453, -0.9248047, -24.5731716, 133.5365906, -35.3048782, -0.0097353
0.0527344, -0.3320312, -0.9047852, -24.3902435, 132.9268341, -34.9390259, -0.0048676
0.1679688, -0.3710938, -0.8491211, -21.3414631, 136.1585388, -36.341465, -0.0041962
0.1860352, -0.3564453, -0.875, -19.939024, 139.2682953, -37.6219521, 0.0028534
0.1635742, -0.347168, -0.9545898, -19.4512196, 144.5731812, -38.0487823, 0.0023499
0.1171875, -0.3647461, -1.2006836, -21.4024391, 145.7317047, -37.0731697, 0.0011749
0.1225586, -0.3999023, -1.3139648, -27.6219521, 144.0853729, -33.6585388, 0.0018463
0.2104492, -0.5175781, -1.4165039, -30.7926846, 141.8902435, -31.9512196, -0.0031891
0.2783203, -0.5776367, -1.390625, -31.9512196, 137.9268341, -31.1585369, -0.0058747
0.3852539, -0.6533203, -1.2553711, -26.8902454, 138.9634247, -34.4512215, -0.0041962
0.3959961, -0.6503906, -1.1845703, -23.6585369, 142.0731812, -37.0731697, 0.0005035
0.3232422, -0.5522461, -1.0756836, -19.8170738, 151.9512177, -42.2560997, -0.0035248
0.253418, -0.4892578, -1.0371094, -19.4512196, 156.5853729, -44.5731735, -0.0001678
0.0893555, -0.3779297, -0.9892578, -22.6829281, 160.4878082, -47.9268303, -0.0031891
-0.0195312, -0.3393555, -0.9355469, -24.7560978, 158.2926941, -48.7195129, -0.0028534
-0.0405273, -0.3354492, -0.9169922, -28.9024391, 148.9024353, -48.5975609, -0.0035248
-0.0053711, -0.3549805, -0.9038086, -29.8170738, 144.2682953, -47.4390259, -0.0052033
0.0395508, -0.3632812, -0.9140625, -30.1829281, 137.9268341, -44.5121956, -0.0068818
0.1625977, -0.3745117, -0.934082, -29.2073174, 136.7682953, -42.9878044, -0.017792
0.2143555, -0.3769531, -0.9301758, -25.2439022, 137.2561035, -41.4634171, -0.0176242
0.2895508, -0.3652344, -0.902832, -19.5731716, 138.7195129, -42.1341476, -0.0218204
0.296875, -0.3544922, -0.9008789, -16.7073174, 139.4512177, -42.6829262, -0.0236667
0.2563477, -0.3364258, -0.96875, -12.8658543, 140.36586, -42.8048782, -0.0162814
0.234375, -0.3442383, -1.0268555, -11.4634151, 140.1829376, -42.2560997, -0.0109102
0.2275391, -0.3930664, -1.1333008, -11.5243902, 139.0243988, -39.3902435, -0.0236667
0.2993164, -0.4663086, -1.1635742, -11.4634151, 137.6829376, -38.2317085, -0.0290379
0.3505859, -0.5029297, -1.15625, -9.6951218, 135.8536682, -38.0487823, -0.0273594
0.4267578, -0.5229492, -1.1430664, -9.0243902, 135.9146423, -38.841465, -0.0297093
0.4331055, -0.5, -1.1450195, -8.9634151, 138.9634247, -40.6097565, -0.0411231
0.4033203, -0.4082031, -1.1367188, -10.5487804, 141.4634247, -40.9146347, -0.035584
0.3798828, -0.3510742, -1.1142578, -13.841464, 145.5487823, -42.5609779, -0.036759
0.3320312, -0.2558594, -1.0292969, -17.0121956, 145.6707306, -45.1219521, -0.0350805
0.3081055, -0.2231445, -0.9814453, -18.1707325, 144.2682953, -46.0975609, -0.0323949
0.2553711, -0.1787109, -0.9013672, -20.6097565, 141.7682953, -46.0975609, -0.0451514
0.2324219, -0.1665039, -0.8789062, -22.0731716, 140, -45.1219521, -0.047837
0.2041016, -0.1821289, -0.8618164, -25.1219521, 137.9268341, -41.8902435, -0.0454871
0.2080078, -0.2041016, -0.8662109, -26.4024391, 136.5243988, -40.3048782, -0.0552224
0.2192383, -0.2226562, -0.8808594, -28.5975609, 133.9024353, -37.9268303, -0.0498512
0.2675781, -0.253418, -0.9394531, -29.6951218, 132.86586, -37.0731697, -0.0407874
0.2929688, -0.2597656, -0.9916992, -32.6829262, 130.9146423, -35.4878044, -0.0310521
0.3476562, -0.2895508, -1.1352539, -37.0731697, 129.8780518, -32.6829262, -0.0370947
0.371582, -0.3032227, -1.2080078, -39.6341476, 129.2682953, -31.0975609, -0.035584
0.4462891, -0.3408203, -1.3061523, -44.4512215, 129.2073212, -28.5975609, -0.0253452
0.4868164, -0.3608398, -1.3183594, -45.4268303, 129.6951294, -27.6829281, -0.0095674
0.5561523, -0.4179688, -1.2875977, -45.9146347, 132.5, -28.5365868, -0.0115816
0.5771484, -0.4667969, -1.246582, -45, 134.2682953, -30.3048782, -0.012253
0.5585938, -0.4907227, -1.2485352, -43.0487823, 137.6829376, -33.9024391, -0.0041962
0.5039062, -0.5483398, -1.2446289, -42.6829262, 139.146347, -35, -0.0062104
0.4882812, -0.5751953, -1.2163086, -41.8292694, 141.5853729, -35.6707344, -0.0149386
0.4833984, -0.6083984, -1.1088867, -40.4268303, 142.5, -36.2804871, -0.018967
0.4892578, -0.5991211, -1.0625, -35.3658562, 143.0487823, -38.9024391, -0.0075532
0.4682617, -0.5112305, -1.0620117, -30.4268303, 144.146347, -42.1951218, -0.0105745
0.4477539, -0.4506836, -1.1069336, -30.1219521, 145.3048859, -43.1707344, -0.0031891
0.4262695, -0.3466797, -1.2045898, -33.9024391, 147.8048859, -43.2317085, -0.0152743
0.4453125, -0.3203125, -1.2119141, -36.7682953, 148.0487823, -42.8048782, -0.0283665
0.5283203, -0.3154297, -1.0869141, -40.2439041, 145.9756165, -43.4756126, -0.0283665
0.590332, -0.3427734, -0.8603516, -39.3292694, 143.5365906, -44.2073174, -0.0283665
0.5908203, -0.3491211, -0.7719727, -34.0243912, 139.8780518, -46.4634171, -0.0411231
0.503418, -0.3291016, -0.6850586, -30.4268303, 138.7195129, -46.2804871, -0.0505226
0.4394531, -0.3134766, -0.6860352, -24.9390259, 137.8048859, -44.0853653, -0.047837
0.3496094, -0.2675781, -0.7158203, -23.2926826, 137.5, -42.5, -0.0461585
0.3334961, -0.2548828, -0.7216797, -21.280489, 134.7561035, -40.1829262, -0.0404517
0.3803711, -0.2436523, -0.7084961, -18.9634151, 128.9024353, -40, -0.0394446
0.4262695, -0.2504883, -0.6977539, -17.439024, 125.7317123, -40.3048782, -0.0461585
0.5029297, -0.2607422, -0.7426758, -15.1219511, 122.4390259, -40.6707344, -0.0518654
0.5375977, -0.2568359, -0.8120117, -14.8170738, 122.1341476, -40.3048782, -0.0468299
0.574707, -0.2568359, -0.9848633, -18.1707325, 123.5365906, -37.9268303, -0.0407874
0.6298828, -0.2539062, -1.090332, -21.1585369, 124.8780518, -36.5853653, -0.0424659
0.668457, -0.2558594, -1.0996094, -26.7073174, 125.8536606, -35.7926826, -0.0397803
0.7241211, -0.2744141, -1.0356445, -28.4146347, 125.18293, -36.7073174, -0.0471656
0.7285156, -0.2958984, -0.984375, -29.0853672, 122.0121994, -40.6707344, -0.0394446
0.6879883, -0.3271484, -0.8847656, -28.7195129, 120.8536606, -42.0731735, -0.0414588
0.640625, -0.3295898, -0.847168, -25.9146347, 120.1219559, -43.2317085, -0.0310521
0.5366211, -0.3339844, -0.7885742, -21.6463413, 120.7317123, -42.7439041, -0.0243381
0.4975586, -0.3310547, -0.7661133, -19.0243912, 121.2804871, -42.3780479, -0.023331
0.4575195, -0.324707, -0.7578125, -13.9634151, 120.4878082, -42.4390259, -0.0223239
0.4619141, -0.3193359, -0.7841797, -12.2560978, 120.4878082, -42.7439041, -0.0231632
0.4941406, -0.3139648, -0.887207, -12.2560978, 118.9024429, -43.2317085, -0.0204776
0.5644531, -0.3266602, -1.012207, -13.3536587, 117.9878082, -43.5975609, -0.0176242
0.6083984, -0.3408203, -1.0625, -16.8292694, 116.5853653, -43.9024391, -0.0142672
0.7124023, -0.3833008, -1.1040039, -18.5365849, 116.4024429, -44.3292694, -0.0169528
0.7504883, -0.4125977, -1.0913086, -18.9634151, 116.4024429, -45.9756126, -0.0115816
0.7978516, -0.4511719, -1.0507812, -18.1097565, 117.2561035, -46.5853653, -0.0102388
0.7949219, -0.4594727, -1.0268555, -14.0853662, 119.2682953, -47.9878044, -0.008896
0.7392578, -0.4677734, -1.0224609, -9.3292685, 122.3780518, -48.3536606, -0.0104067
0.6923828, -0.4658203, -1.043457, -7.8658538, 123.4146347, -47.5609779, -0.0196384
0.6030273, -0.4316406, -1.1582031, -6.890244, 124.146347, -44.6341476, -0.0283665
0.5771484, -0.4121094, -1.2304688, -8.3536587, 124.3902435, -43.3536606, -0.0297093
0.5830078, -0.3886719, -1.3081055, -13.2317076, 123.9634171, -41.8902435, -0.0298772
0.6689453, -0.3881836, -1.2514648, -15.8536587, 124.4512253, -42.5609779, -0.0372625
0.7163086, -0.387207, -1.1655273, -19.6341476, 125.9756165, -46.8902435, -0.0377661
0.7724609, -0.3862305, -0.9482422, -20.1219521, 127.5609818, -49.7560997, -0.0330663
0.7636719, -0.3828125, -0.8452148, -18.780489, 131.8902435, -54.2073174, -0.0256809
0.6621094, -0.3393555, -0.6918945, -17.2560978, 134.2073212, -55.0609779, -0.0276951
0.5991211, -0.2983398, -0.6489258, -15.060976, 138.7195129, -53.1097565, -0.0263523
0.4799805, -0.1987305, -0.6381836, -14.6951227, 140.7317047, -49.6341476, -0.023331
0.4575195, -0.1494141, -0.6625977, -15.2439032, 139.7561035, -48.1097565, -0.0216526
0.4873047, -0.0800781, -0.7250977, -20, 135, -47.9878044, -0.0219883
0.5380859, -0.074707, -0.7480469, -22.9268303, 132.1951294, -48.7804871, -0.018967
0.6552734, -0.1108398, -0.7783203, -29.1463413, 126.7682953, -51.0365868, -0.0169528
0.7651367, -0.1870117, -0.7983398, -31.4634151, 124.5121994, -51.2804909, -0.0149386
0.8051758, -0.2211914, -0.7963867, -33.7195129, 121.2804871, -50.6707344, -0.0102388
0.8383789, -0.2939453, -0.7797852, -33.7195129, 121.2195129, -48.9634171, -0.0125887
0.8320312, -0.3120117, -0.769043, -31.0365868, 123.1707382, -45.9146347, -0.0152743
0.7773438, -0.3139648, -0.7363281, -28.5365868, 124.6951218, -44.7560997, -0.0169528
0.7407227, -0.296875, -0.7275391, -23.4146347, 127.0121994, -43.2317085, -0.0203098
0.671875, -0.2509766, -0.7416992, -19.8780499, 127.6219559, -42.8048782, -0.0250095
0.640625, -0.2294922, -0.7543945, -19.2073174, 127.2561035, -42.8048782, -0.0246738
0.628418, -0.1962891, -0.793457, -19.3292694, 124.8780518, -40.8536606, -0.0219883
0.6508789, -0.1899414, -0.8051758, -20.3658543, 123.9024429, -40.8536606, -0.0216526
0.7216797, -0.1962891, -0.8325195, -21.8292694, 122.0121994, -42.6219521, -0.0223239
0.7802734, -0.2138672, -0.8608398, -22.5, 121.5243912, -43.7195129, -0.0209812
0.800293, -0.2333984, -0.8740234, -23.7195129, 121.1585388, -44.2682953, -0.0171206
0.8266602, -0.2631836, -0.8911133, -24.0243912, 121.5853653, -43.7804871, -0.0095674
0.8359375, -0.2768555, -0.8930664, -23.4146347, 122.8048782, -41.9512215, -0.0062104
0.8374023, -0.2871094, -0.894043, -22.8048782, 123.2926865, -40.7317085, -0.002182
0.8359375, -0.2905273, -0.8896484, -20.8536587, 124.3292694, -39.4512215, 0.0065461
0.831543, -0.2978516, -0.8652344, -18.9634151, 124.6341476, -39.8780479, 0.0157778
0.8330078, -0.3017578, -0.8408203, -18.5365849, 125.0609818, -39.7560997, 0.0149386
0.8339844, -0.3061523, -0.7763672, -15.6707325, 124.6951218, -40.5487823, 0.0250095
0.8452148, -0.3056641, -0.7441406, -14.3292685, 124.9390259, -41.2195129, 0.0313878
0.8417969, -0.3095703, -0.7192383, -11.341464, 125.6707382, -42.6829262, 0.0332341
0.8237305, -0.2963867, -0.7739258, -10.4878054, 126.0975647, -43.3536606, 0.0325628
0.8208008, -0.2895508, -0.831543, -11.1585369, 126.1585388, -41.4634171, 0.0354162
0.8422852, -0.28125, -0.9438477, -12.6219511, 125.7926865, -40.6707344, 0.0280308
0.8637695, -0.28125, -0.9775391, -16.2195129, 124.4512253, -39.5731735, 0.0166171
0.9262695, -0.2905273, -0.9951172, -18.3536587, 123.9634171, -40, 0.0048676
0.9526367, -0.2900391, -0.9907227, -20.4878044, 123.1707382, -41.6463432, -0.0075532
0.9765625, -0.2758789, -0.9619141, -22.3780499, 124.0853653, -43.0487823, -0.0176242
0.9575195, -0.2548828, -0.9526367, -23.2926826, 125, -43.0487823, -0.018967
0.8984375, -0.2216797, -0.9584961, -27.5, 126.646347, -41.2804871, -0.0350805
0.8671875, -0.2055664, -0.9633789, -30.060976, 126.8292694, -40.6707344, -0.0391089
0.8422852, -0.2182617, -0.9345703, -35.5487823, 125.9146347, -39.9390259, -0.0407874
0.8647461, -0.2832031, -0.824707, -37.2560997, 125, -40.5487823, -0.04448
0.8862305, -0.3227539, -0.7451172, -37.1951218, 123.1707382, -44.4512215, -0.0411231
0.9067383, -0.3896484, -0.5791016, -35.4268303, 122.5609818, -46.2804871, -0.0458228
0.9042969, -0.3979492, -0.5073242, -29.7560978, 123.4146347, -48.1707344, -0.0515297
0.8735352, -0.3701172, -0.4223633, -26.6463413, 123.8414688, -48.4146347, -0.0525368
0.8549805, -0.3359375, -0.4047852, -21.0975609, 125, -48.1097565, -0.0453193
0.8271484, -0.2631836, -0.4208984, -16.1585369, 122.0731735, -46.2804871, -0.0441444
0.8310547, -0.2226562, -0.4458008, -14.0853662, 119.6341476, -45.9146347, -0.0458228
0.8920898, -0.1616211, -0.5214844, -10.9146347, 114.5121994, -45.6707344, -0.0404517
0.9350586, -0.140625, -0.5639648, -9.7560978, 111.7073212, -45.9756126, -0.0431373
1.0283203, -0.1279297, -0.640625, -9.3902445, 106.8902435, -46.4024391, -0.0417945
1.0859375, -0.1352539, -0.6918945, -9.3902445, 105.18293, -46.4634171, -0.0471656
1.0957031, -0.1494141, -0.7128906, -9.5731707, 102.4390259, -45.3658562, -0.0391089
1.0732422, -0.1733398, -0.7231445, -9.9390249, 102.0121994, -44.1463432, -0.0391089
1.0454102, -0.1845703, -0.7094727, -9.0243902, 102.3170776, -41.1585388, -0.0379339
0.9858398, -0.1928711, -0.6660156, -8.3536587, 102.9268341, -39.4512215, -0.0370947
0.9550781, -0.190918, -0.6591797, -6.0975609, 104.5731735, -38.2317085, -0.0394446
0.8969727, -0.1650391, -0.7011719, -6.0365853, 106.0365906, -37.0731697, -0.0471656
0.8823242, -0.1479492, -0.7431641, -7.3780489, 106.9512253, -35.9146347, -0.0498512
0.8842773, -0.1254883, -0.8144531, -11.0975609, 106.9512253, -34.8170738, -0.0525368
0.9140625, -0.1171875, -0.8325195, -12.9878054, 106.8292694, -35.0609779, -0.0453193
0.984375, -0.1289062, -0.8266602, -14.5121956, 105.9756088, -36.5853653, -0.0412909
1.0444336, -0.152832, -0.7851562, -14.0243902, 106.2804871, -37.9878044, -0.0414588
1.0673828, -0.1713867, -0.7612305, -12.9268293, 108.9634171, -39.1463432, -0.0424659
1.0576172, -0.2070312, -0.7348633, -12.9268293, 111.0975647, -39.0243912, -0.0377661
1.0419922, -0.2202148, -0.7294922, -14.5731707, 114.9390259, -37.0121956, -0.0305486
1.0097656, -0.2373047, -0.7363281, -15.8536587, 116.4634171, -36.1585388, -0.0364233
1.0024414, -0.2353516, -0.7480469, -18.4756107, 119.8170776, -33.7195129, -0.0384375
0.9916992, -0.2250977, -0.7910156, -21.4634151, 124.3292694, -32.8658562, -0.0256809
0.9921875, -0.2182617, -0.8081055, -22.560976, 125.6707382, -32.9878044, -0.0370947
0.9975586, -0.2084961, -0.8149414, -23.5365868, 125.18293, -34.2073174, -0.043473
1.0068359, -0.203125, -0.8066406, -23.1707325, 124.6951218, -35.3658562, -0.0364233
1.0185547, -0.1992188, -0.7744141, -22.439024, 124.0853653, -36.341465, -0.0357519
1.0068359, -0.2084961, -0.7358398, -22.3780499, 123.7804871, -36.8902435, -0.0458228
0.9951172, -0.2143555, -0.722168, -23.2926826, 124.6341476, -36.7073174, -0.0528725
0.9614258, -0.2314453, -0.7099609, -23.5975609, 124.5731735, -36.0975609, -0.0532082
0.9443359, -0.2373047, -0.7045898, -25.6707325, 123.3536606, -35.3048782, -0.0488441
0.9311523, -0.2539062, -0.6879883, -26.1585369, 122.0731735, -34.9390259, -0.0386053
0.9345703, -0.2553711, -0.6689453, -25.3658543, 118.8414688, -35.0609779, -0.0417945
0.9570312, -0.2597656, -0.6137695, -21.8292694, 115.9756088, -36.0365868, -0.0471656
0.9677734, -0.2553711, -0.5898438, -19.5731716, 115, -36.5853653, -0.0404517
0.980957, -0.2363281, -0.5576172, -15.8536587, 113.8414688, -37.2560997, -0.0417945
0.9775391, -0.2202148, -0.5478516, -14.2682934, 113.1707306, -37.3780479, -0.0505226
0.9707031, -0.1821289, -0.5351562, -12.8048782, 110.9146347, -35.7926826, -0.0431373
0.9750977, -0.1547852, -0.5341797, -12.7439032, 109.2073212, -35.0609779, -0.04448
0.9902344, -0.1455078, -0.5258789, -11.4634151, 104.9390259, -34.7560997, -0.0384375
1.0097656, -0.1435547, -0.4858398, -10.8536587, 102.68293, -35, -0.0431373
1.0166016, -0.1445312, -0.4521484, -8.4756098, 98.7195129, -35.7317085, -0.0339055
1.0097656, -0.1552734, -0.4018555, -5.7926831, 94.7561035, -35.6097565, -0.0172885
1, -0.1523438, -0.3842773, -4.390244, 92.68293, -35, 0.0052033
0.9829102, -0.1352539, -0.3779297, -2.3170731, 88.2317123, -33.6585388, 0.0273594
0.9746094, -0.1352539, -0.3818359, -1.8292683, 85.4268341, -32.9268303, 0.0428016
0.9887695, -0.1333008, -0.4038086, -0.1829268, 80.4878082, -31.6463413, 0.0542153
1.0209961, -0.1293945, -0.4648438, 0.5487805, 77.9268341, -31.4024391, 0.0679789
1.0366211, -0.1206055, -0.5073242, 0.3048781, 74.0243912, -29.8170738, 0.079057
1.0717773, -0.0981445, -0.5810547, -0.9146342, 72.8048782, -28.4756107, 0.0814069
1.078125, -0.0888672, -0.5961914, -4.8170733, 71.0975647, -26.3414631, 0.0763714
1.0834961, -0.0693359, -0.5859375, -6.7682929, 70, -25.5487804, 0.0693217
1.078125, -0.0717773, -0.5664062, -9.0853662, 67.3170776, -25, 0.0562295
1.0537109, -0.0854492, -0.5253906, -10.7926836, 64.8170776, -24.9390259, 0.0414588
1.027832, -0.0976562, -0.5151367, -11.5853662, 63.9024391, -24.5731716, 0.030045
0.9907227, -0.1210938, -0.5239258, -15, 61.9512215, -22.8048782, 0.0166171
0.9824219, -0.1269531, -0.5385742, -16.5243912, 60.6097565, -21.2195129, 0.0058747
0.9921875, -0.1210938, -0.5473633, -18.1707325, 57.1951218, -20, -0.0085603
1.0322266, -0.1166992, -0.5385742, -18.0487804, 55.5487823, -19.7560978, -0.0182956
1.0532227, -0.1210938, -0.5322266, -16.280489, 52.7439041, -20.5487804, -0.0310521
1.0751953, -0.1240234, -0.5258789, -15.7926836, 51.8292694, -20.4268303, -0.0391089
1.065918, -0.1254883, -0.5195312, -15.6707325, 51.0975609, -19.6341476, -0.047837
1.0463867, -0.1206055, -0.4926758, -16.5243912, 50.1829262, -18.7195129, -0.0471656
1.0380859, -0.125, -0.4697266, -17.8658543, 47.7439041, -17.8658543, -0.0498512
1.0249023, -0.1386719, -0.4326172, -17.560976, 45.0609779, -18.5365849, -0.04448
1.0209961, -0.1499023, -0.4272461, -16.8902435, 44.0853653, -18.9634151, -0.0461585
1.0048828, -0.171875, -0.4379883, -15.6097565, 42.1951218, -18.780489, -0.0481727
1.0039062, -0.1801758, -0.4516602, -15.2439032, 41.341465, -18.2317085, -0.0411231
1, -0.1923828, -0.4643555, -14.6951227, 38.5365868, -17.1951218, -0.0287022
1.019043, -0.1889648, -0.4619141, -14.1463413, 37.5, -17.3170738, -0.0203098
1.027832, -0.184082, -0.4692383, -11.5243902, 36.341465, -18.2317085, -0.005539
1.0234375, -0.1787109, -0.5107422, -10.1219511, 35.9756088, -18.5975609, 0.0057069
1.0175781, -0.1748047, -0.5458984, -9.0243902, 35.2439041, -18.3536587, 0.0105745
1.0068359, -0.1674805, -0.5825195, -9.0853662, 34.0853653, -17.5, 0.0159457
1.0107422, -0.1660156, -0.5893555, -9.3292685, 31.5853672, -16.7682934, 0.0146029
1.0253906, -0.1699219, -0.578125, -8.3536587, 29.5731716, -17.3780499, 0.0048676
1.0273438, -0.1767578, -0.5717773, -7.3780489, 29.3292694, -18.3536587, 0.0018463
0.9995117, -0.1875, -0.5791016, -7.9268293, 30.060976, -18.9024391, 0.0082246
0.9799805, -0.190918, -0.5776367, -8.6585369, 30.4268303, -18.5365849, 0.0031891
0.9638672, -0.1982422, -0.5302734, -10.7317076, 29.6341476, -17.5, 0.0075532
0.9726562, -0.2006836, -0.472168, -10.6707315, 29.2682934, -17.2560978, 0.0135958
0.9765625, -0.1904297, -0.4594727, -8.780488, 29.0853672, -17.1951218, 0.0159457
0.9765625, -0.1523438, -0.4624023, -7.6219516, 28.7195129, -16.8292694, 0.0152743
0.9804688, -0.128418, -0.4702148, -7.4390244, 28.1097565, -15.3658543, 0.0213169
0.9936523, -0.09375, -0.4902344, -7.9878049, 27.1951218, -14.5731707, 0.0172885
0.9990234, -0.0859375, -0.4946289, -10.3048782, 24.5731716, -13.2926836, 0.0082246
1.0175781, -0.0947266, -0.4853516, -11.280488, 21.5243912, -12.1341467, 0.0052033
1.0185547, -0.1025391, -0.4765625, -11.280488, 20.5487804, -11.7682934, -0.0008392
1.0141602, -0.1113281, -0.4604492, -11.8902445, 19.0243912, -10.1829271, -0.0075532
0.9975586, -0.1196289, -0.4594727, -12.4390249, 18.5365849, -9.5121956, -0.0196384
0.9648438, -0.1259766, -0.4580078, -14.3902445, 17.1951218, -7.7439027, -0.0246738
0.9526367, -0.1337891, -0.4467773, -14.7560978, 16.280489, -6.9512196, -0.0323949
0.9506836, -0.1381836, -0.4370117, -14.7560978, 14.2073174, -5.9756098, -0.0317235
0.9521484, -0.1479492, -0.4174805, -13.7195129, 13.4146347, -5.7317076, -0.0323949
0.9541016, -0.1425781, -0.4140625, -12.1951218, 12.4390249, -5.3048782, -0.0364233
0.9521484, -0.1318359, -0.4130859, -11.5853662, 11.7682934, -5.1829271, -0.0372625
0.9550781, -0.1293945, -0.4150391, -11.5853662, 10.2439022, -4.6341462, -0.0399481
0.9472656, -0.1342773, -0.4379883, -12.9268293, 7.1341467, -4.1463413, -0.0310521
0.9453125, -0.1469727, -0.4570312, -13.4146347, 5.3658538, -3.7804878, -0.0357519
0.9438477, -0.1787109, -0.4916992, -15.060976, 1.8902439, -2.3170731, -0.0347448
0.9458008, -0.1962891, -0.4931641, -15.2439032, 0.2439024, -1.8292683, -0.0229953
0.9604492, -0.2177734, -0.4868164, -13.7195129, -1.402439, -1.7073171, -0.0260166
0.9663086, -0.2270508, -0.4804688, -11.8902445, -2.0121951, -2.0731707, -0.0270237
0.9692383, -0.2236328, -0.4799805, -9.2682924, -2.4390244, -2.6829269, -0.0276951
0.9692383, -0.2265625, -0.4726562, -8.3536587, -2.7439024, -2.7439024, -0.0273594
0.96875, -0.2299805, -0.4584961, -8.2926826, -3.7195122, -2.8658538, -0.0377661
0.9697266, -0.2314453, -0.4335938, -8.2926826, -4.2682929, -2.5, -0.0350805
0.9663086, -0.2255859, -0.4213867, -7.0731707, -5.3048782, -1.6463414, -0.0451514
0.9604492, -0.1987305, -0.4223633, -5.5487804, -6.2195125, -1.0365853, -0.051194
0.9580078, -0.1855469, -0.4365234, -5.1219511, -6.7073174, -0.4268293, -0.036759
0.9633789, -0.1606445, -0.4765625, -5.9146342, -7.9268293, 0.4878049, -0.0421302
0.9707031, -0.1494141, -0.4970703, -6.8292685, -8.780488, 1.1585366, -0.0446479
0.9897461, -0.1499023, -0.5224609, -9.3902445, -10.7317076, 2.0731707, -0.0417945
0.9960938, -0.1572266, -0.5351562, -10.6707315, -11.5243902, 2.4390244, -0.0337377
0.9931641, -0.1582031, -0.5395508, -13.0487804, -11.9512196, 4.2073174, -0.0340734
0.9697266, -0.1611328, -0.5327148, -14.3902445, -12.1951218, 4.6951222, -0.0377661
0.9536133, -0.1616211, -0.5263672, -16.0975609, -13.2926836, 5.9146342, -0.0377661
0.9355469, -0.1660156, -0.5151367, -16.9512196, -14.3292685, 6.7073174, -0.0344091
0.9296875, -0.159668, -0.5073242, -17.7439022, -15.7926836, 7.7439027, -0.0394446
0.9355469, -0.1635742, -0.4858398, -18.5365849, -16.7073174, 8.841464, -0.0451514
0.9418945, -0.1606445, -0.4697266, -18.8414631, -17.2560978, 9.0853662, -0.0471656
0.9550781, -0.1621094, -0.4584961, -19.3292694, -17.8048782, 9.3292685, -0.0459907
0.9550781, -0.1616211, -0.4663086, -19.939024, -18.0487804, 9.7560978, -0.0431373
0.9516602, -0.168457, -0.4746094, -21.8902435, -19.2682934, 10.9146347, -0.0498512
0.9472656, -0.1879883, -0.4760742, -22.6829281, -20.3658543, 11.8292685, -0.0518654
0.9472656, -0.1977539, -0.472168, -22.5, -22.3170738, 12.3780489, -0.0518654
0.9418945, -0.2114258, -0.4716797, -21.8902435, -23.2926826, 12.5, -0.0491798
0.9418945, -0.2143555, -0.4755859, -20.7926826, -24.3902435, 12.6219511, -0.0533761
0.9433594, -0.222168, -0.4892578, -20.5487804, -25.2439022, 12.5, -0.0558938
0.9414062, -0.2250977, -0.4941406, -20.3048782, -27.1341476, 12.7439032, -0.0641184
0.9453125, -0.222168, -0.5136719, -20.4878044, -29.3292694, 13.4146347, -0.0753643
0.9482422, -0.215332, -0.5136719, -20, -30.2439022, 13.780488, -0.0867781
0.9741211, -0.2055664, -0.4941406, -19.0243912, -32.0731697, 13.4146347, -0.0921492
0.984375, -0.1987305, -0.4824219, -18.5975609, -32.9268303, 13.780488, -0.1045701
0.9824219, -0.1806641, -0.456543, -17.9878044, -34.3902435, 13.6585369, -0.0944991
0.9682617, -0.1816406, -0.4414062, -18.2926826, -35.4268303, 14.0853662, -0.0867781
0.965332, -0.1845703, -0.4321289, -19.6951218, -38.1707344, 15.1219511, -0.0995346
0.9594727, -0.199707, -0.4262695, -19.6341476, -39.6951218, 15.6707325, -0.0944991
0.9624023, -0.2143555, -0.4277344, -19.4512196, -42.8048782, 16.5243912, -0.0793927
0.9677734, -0.2202148, -0.4487305, -19.2682934, -43.841465, 16.7073174, -0.068986
0.9667969, -0.2202148, -0.4731445, -18.7195129, -44.6951218, 17.7439022, -0.0572366
0.9746094, -0.199707, -0.5288086, -20.3658543, -45.1829262, 19.6341476, -0.0464942
0.9697266, -0.1801758, -0.559082, -21.5853672, -45.2439041, 20.7926826, -0.0352483
0.9667969, -0.1503906, -0.5854492, -24.5731716, -47.1341476, 22.3170738, -0.0276951
0.9648438, -0.1386719, -0.5742188, -24.9390259, -48.1707344, 22.6219521, -0.023331
0.9794922, -0.1298828, -0.5410156, -25.6707325, -49.6341476, 22.6829281, -0.0229953
0.9697266, -0.1386719, -0.5283203, -25.7926826, -50.1829262, 22.7439022, -0.0162814
0.9575195, -0.1459961, -0.5283203, -26.4634151, -52.1951218, 23.9634151, -0.0082246
0.949707, -0.1621094, -0.5405273, -27.1341476, -53.3536606, 25.1219521, 0.002182
0.9482422, -0.1655273, -0.5512695, -27.7439022, -56.2195129, 27.0731716, 0.0075532
0.9609375, -0.1708984, -0.5786133, -27.8048782, -57.5, 28.0487804, -0.0005035
0.9692383, -0.1699219, -0.5947266, -27.6219521, -59.8170738, 28.9024391, 0.0011749
0.9667969, -0.1665039, -0.6118164, -27.8658543, -61.0975609, 29.5731716, 0.0092317
0.9702148, -0.1708984, -0.609375, -28.4756107, -61.8902435, 29.9390259, 0.0105745
0.9750977, -0.1748047, -0.5742188, -28.5365868, -63.4146347, 30.6097565, 0.0099031
0.9804688, -0.175293, -0.5454102, -28.4146347, -64.1463394, 30.7317085, 0.0105745
0.9780273, -0.1821289, -0.4892578, -27.0121956, -65.2439041, 31.341465, 0.0043641
0.9619141, -0.1757812, -0.453125, -26.2195129, -66.1585388, 31.5243912, -0.0075532
0.9638672, -0.1821289, -0.4482422, -25.9756107, -67.9878082, 32.6219521, -0.0048676
0.9785156, -0.1958008, -0.440918, -25.6097565, -68.9024429, 32.8048782, -0.0109102
0.9829102, -0.2016602, -0.4487305, -24.9390259, -70.6707306, 33.0487823, -0.0119173
0.9916992, -0.2089844, -0.465332, -25.060976, -71.2804871, 33.2317085, -0.0095674
1.0009766, -0.2094727, -0.4658203, -24.3292694, -73.1707306, 33.6585388, -0.0166171
1.0058594, -0.2211914, -0.4833984, -22.8658543, -75.5487823, 33.4146347, -0.0137636
1.0004883, -0.2280273, -0.5073242, -22.2560978, -76.7073212, 33.7804871, -0.0095674
0.9912109, -0.2260742, -0.5654297, -22.1341476, -79.5121994, 34.8780479, -0.0115816
0.9887695, -0.2207031, -0.5927734, -22.0731716, -80.5487823, 35.4268303, -0.005539
0.9892578, -0.2207031, -0.6181641, -22.0121956, -82.7439041, 35.7926826, -0.0095674
1.0039062, -0.2250977, -0.6015625, -21.5243912, -83.5975647, 35.7926826, -0.0109102
0.9990234, -0.2280273, -0.5917969, -20.1829281, -84.5121994, 35.6707344, -0.0132601
0.9868164, -0.2241211, -0.590332, -19.6951218, -84.6951218, 36.0975609, -0.008896
0.9770508, -0.2143555, -0.5859375, -18.9634151, -85.3658524, 38.1097565, -0.0095674
0.9697266, -0.1938477, -0.5893555, -19.2682934, -85.5487823, 38.9024391, -0.0146029
0.9765625, -0.1855469, -0.5922852, -18.9634151, -88.1707306, 40.4878044, -0.0102388
1.0053711, -0.1816406, -0.5986328, -19.6951218, -90.2439041, 40.6097565, -0.0149386
1.0117188, -0.1860352, -0.5991211, -20.1219521, -91.5243912, 40.9146347, -0.0206455
1.027832, -0.1938477, -0.5800781, -20.7926826, -92.2561035, 41.5243912, -0.0256809
1.034668, -0.1972656, -0.5634766, -21.0365868, -92.3780518, 41.6463432, -0.0243381
1.0288086, -0.2055664, -0.5507812, -21.0365868, -92.0121994, 42.5, -0.0270237
0.996582, -0.215332, -0.5673828, -20.8536587, -92.4390259, 42.6219521, -0.0276951
0.9765625, -0.2270508, -0.5751953, -21.1585369, -94.5731735, 43.4756126, -0.0283665
0.96875, -0.2514648, -0.5888672, -20.9146347, -95.6097565, 44.0853653, -0.0327306
0.9741211, -0.2661133, -0.5834961, -19.8780499, -97.9268341, 44.2682953, -0.0323949
0.9912109, -0.2719727, -0.5810547, -18.9634151, -98.4146347, 44.1463432, -0.0293736
0.9951172, -0.2724609, -0.5839844, -16.8902435, -98.7195129, 43.1707344, -0.0411231
0.9946289, -0.2675781, -0.5996094, -15.6097565, -98.6585388, 42.4390259, -0.0394446
0.9936523, -0.265625, -0.6049805, -15.2439032, -99.2682953, 42.5, -0.0468299
0.9951172, -0.2524414, -0.6108398, -15.6707325, -100.8536606, 42.4390259, -0.0491798
0.9882812, -0.2519531, -0.6108398, -15.6097565, -101.2804871, 42.4390259, -0.0555581
0.9853516, -0.2553711, -0.6044922, -16.0975609, -102.0731735, 43.4756126, -0.057908
0.9775391, -0.2548828, -0.6049805, -16.0975609, -102.5609818, 43.5365868, -0.0538796
0.9672852, -0.2587891, -0.6088867, -14.7560978, -104.4512253, 43.9634171, -0.0471656
0.9545898, -0.2583008, -0.6376953, -14.3902445, -105.7317123, 44.2073174, -0.0438087
0.949707, -0.2592773, -0.6494141, -14.2073174, -107.6219559, 44.7560997, -0.0370947
0.965332, -0.2519531, -0.6523438, -14.5731707, -109.0243912, 45.4268303, -0.0350805
0.9750977, -0.2460938, -0.6469727, -14.6951227, -109.8170776, 44.8780479, -0.036759
0.9760742, -0.2353516, -0.6181641, -14.7560978, -110.5487823, 44.2682953, -0.036759
0.9760742, -0.2319336, -0.6079102, -14.3902445, -110.6707306, 44.3902435, -0.0424659
0.9658203, -0.2294922, -0.6049805, -14.5731707, -112.3780518, 44.6951218, -0.0421302
0.9589844, -0.2290039, -0.612793, -14.6341467, -113.4146347, 45.2439041, -0.0498512
0.9575195, -0.2333984, -0.6152344, -14.9390249, -116.0975647, 46.0975609, -0.047837
0.949707, -0.2470703, -0.5996094, -14.7560978, -117.3780518, 45.9756126, -0.0513619
0.9472656, -0.2529297, -0.5961914, -13.5975609, -119.5731735, 46.2804871, -0.0485084
0.9296875, -0.2602539, -0.6079102, -12.6219511, -120.1219559, 46.2195129, -0.04448
0.9169922, -0.2612305, -0.628418, -10.7926836, -121.2195129, 46.341465, -0.0454871
0.8959961, -0.2651367, -0.6738281, -10, -123.0487823, 47.0731735, -0.0501869
0.90625, -0.2646484, -0.6904297, -9.6951218, -124.5121994, 47.4390259, -0.0392767
0.9355469, -0.2739258, -0.7080078, -9.9390249, -126.8902435, 45.9756126, -0.0297093
0.9467773, -0.2861328, -0.6987305, -9.5731707, -127.9878082, 45.4878044, -0.0209812
0.9604492, -0.3115234, -0.6777344, -9.4512196, -128.9634247, 44.6951218, -0.014435
0.9375, -0.3095703, -0.6469727, -8.780488, -129.0853729, 44.4512215, -0.0129244
0.9238281, -0.309082, -0.6328125, -7.3780489, -130.1829224, 44.0853653, -0.0198062
0.9057617, -0.3110352, -0.6206055, -6.8292685, -130.7926788, 43.5975609, -0.0240024
0.9038086, -0.3085938, -0.6137695, -5.9146342, -132.5, 42.6829262, -0.0357519
0.9077148, -0.3168945, -0.6220703, -5.7317076, -133.3536682, 42.4390259, -0.0327306
0.9091797, -0.3164062, -0.6352539, -5.5487804, -134.6951294, 41.1585388, -0.04448
0.909668, -0.3071289, -0.6762695, -5.3048782, -136.8292694, 40.5487823, -0.0491798
0.9155273, -0.3017578, -0.6923828, -5.1219511, -137.7439117, 40.5487823, -0.0469978
0.9404297, -0.2905273, -0.7158203, -4.8170733, -138.2926788, 40, -0.047837
0.9462891, -0.2900391, -0.7236328, -4.0853658, -138.3536682, 39.6341476, -0.0464942
0.9516602, -0.2900391, -0.7392578, -2.3170731, -137.5, 37.9878044, -0.047837
0.9511719, -0.293457, -0.7680664, -1.4634147, -137.3170776, 37.2560997, -0.0431373
0.940918, -0.2924805, -0.7885742, 0.1219512, -137.0731812, 35.6707344, -0.0313878
0.909668, -0.3027344, -0.8349609, 0.4268293, -137.0731812, 35.3048782, -0.0176242
0.8891602, -0.3066406, -0.8544922, 0.8536586, -138.3536682, 36.0365868, -0.0048676
0.8754883, -0.3007812, -0.8569336, 1.402439, -138.7804871, 37.0731697, 0.0038605
0.8813477, -0.2856445, -0.8442383, 2.3780489, -138.4756165, 38.1707344, 0.0112459
0.8813477, -0.2548828, -0.7973633, 3.9634147, -137.2561035, 37.2560997, 0.0159457
0.8798828, -0.2460938, -0.7788086, 3.9024391, -136.8292694, 36.7073174, 0.0265202
0.8500977, -0.2460938, -0.7851562, 2.4390244, -137.6219482, 36.6463432, 0.0293736
0.8295898, -0.2470703, -0.8081055, 1.0365853, -138.3536682, 37.1341476, 0.0251774
0.8027344, -0.2504883, -0.8808594, -1.8292683, -140.4878082, 40.3658562, 0.0280308
0.8198242, -0.2568359, -0.9243164, -2.7439024, -141.8292694, 42.1341476, 0.0271916
0.8461914, -0.2597656, -0.9321289, -3.4756098, -143.2926788, 43.9024391, 0.0198062
0.9008789, -0.2626953, -0.9121094, -3.9024391, -143.4146423, 44.2073174, -0.0025177
0.918457, -0.2651367, -0.8886719, -4.6341462, -141.8902435, 44.3902435, -0.018967
0.9267578, -0.2827148, -0.8393555, -5.4878049, -140.4268341, 44.0243912, -0.0350805
0.9179688, -0.2895508, -0.8232422, -7.1951222, -138.1097565, 43.7804871, -0.04448
0.8701172, -0.300293, -0.8217773, -9.2682924, -138.0487823, 44.3292694, -0.0552224
0.8383789, -0.2988281, -0.8232422, -10, -138.5365906, 44.8170738, -0.0663005
0.7944336, -0.2998047, -0.8212891, -10.3658543, -140.1829376, 45.7926826, -0.072343
0.7885742, -0.2963867, -0.8110352, -10.1829271, -140.7317047, 46.0365868, -0.085771
0.793457, -0.293457, -0.7836914, -8.841464, -141.5243988, 45.0609779, -0.0941634
0.7988281, -0.2944336, -0.7758789, -8.4756098, -141.7073212, 44.9390259, -0.0894636
0.7924805, -0.2983398, -0.7749023, -8.4146347, -142.6829376, 44.7560997, -0.0793927
0.7856445, -0.3076172, -0.7939453, -8.780488, -143.4146423, 45.4268303, -0.0740215
0.7871094, -0.3095703, -0.7949219, -8.9634151, -145, 46.4634171, -0.0681468
0.7871094, -0.3061523, -0.8061523, -8.4756098, -146.0975647, 47.0731735, -0.0614328
0.7856445, -0.3046875, -0.8188477, -7.5, -147.2561035, 47.0731735, -0.0458228
0.7768555, -0.2993164, -0.8725586, -8.0487804, -148.5365906, 47.2560997, -0.0236667
0.7666016, -0.3022461, -0.9077148, -8.9024391, -150.3048859, 47.8048782, -0.0065461
0.7558594, -0.3227539, -0.9145508, -10.1219511, -153.7804871, 49.5731735, 0.0171206
0.765625, -0.3212891, -0.8857422, -9.8780489, -155.6097565, 50.1219521, 0.036759
0.8061523, -0.3115234, -0.8525391, -8.0487804, -152.6829376, 50.0609779, 0.0595865
0.7866211, -0.2724609, -0.8759766, -7.3170733, -149.5731812, 49.8780518, 0.0783856
0.769043, -0.2543945, -0.8955078, -7.4390244, -146.5243988, 49.9390259, 0.0797284
0.7314453, -0.2324219, -0.9067383, -8.5365858, -146.7682953, 50.4268303, 0.0683146
0.7304688, -0.2314453, -0.9023438, -10, -148.4756165, 51.6463432, 0.0693217
0.734375, -0.2353516, -0.9067383, -10.7317076, -149.3902435, 52.0121956, 0.0636149
0.7333984, -0.2451172, -0.9179688, -12.4390249, -150.6097565, 52.8048782, 0.0585794
0.730957, -0.2739258, -0.9277344, -13.6585369, -151.2804871, 54.4512215, 0.0609293
0.7397461, -0.2875977, -0.9204102, -14.5731707, -151.4024353, 55.2439041, 0.0616007
0.7597656, -0.3061523, -0.8803711, -14.8170738, -151.2804871, 55.3658562, 0.0636149
0.762207, -0.3120117, -0.8583984, -14.6341467, -150.7926788, 54.8780518, 0.0585794
0.7373047, -0.324707, -0.84375, -12.9268293, -149.2073212, 54.2682953, 0.0533761
0.6923828, -0.3286133, -0.8632812, -12.1951218, -148.5975647, 54.3902435, 0.0495155
0.6723633, -0.328125, -0.8876953, -10.6707315, -148.5365906, 55.4268303, 0.0424659
0.6552734, -0.328125, -0.9316406, -10.1219511, -149.0853729, 55.9146347, 0.0370947
0.6601562, -0.3237305, -0.9365234, -8.9024391, -150.7317047, 57.1951218, 0.0283665
0.6982422, -0.3193359, -0.9296875, -8.6585369, -151.0975647, 57.1951218, -0.0011749
0.7216797, -0.3251953, -0.9174805, -8.4146347, -151.4634247, 56.341465, -0.0129244
0.7495117, -0.3383789, -0.8818359, -9.3292685, -150.7317047, 55.2439041, -0.0223239
0.7490234, -0.3525391, -0.8720703, -10.1829271, -150.2439117, 54.8170738, -0.0243381
0.7324219, -0.3745117, -0.8930664, -11.219512, -151.8292694, 55.0609779, -0.0364233
0.7070312, -0.3852539, -0.9072266, -10.9146347, -152.86586, 55.6097565, -0.0438087
0.6865234, -0.3876953, -0.9057617, -8.4756098, -154.9390259, 57.0121956, -0.0449836
0.6967773, -0.3789062, -0.8652344, -6.5243902, -155.4268341, 56.6463432, -0.057908
0.7006836, -0.3583984, -0.8466797, -2.5, -153.7195129, 55.0609779, -0.0558938
0.6860352, -0.3193359, -0.8408203, -1.2195122, -152.3170776, 53.9024391, -0.0602579
0.6621094, -0.2939453, -0.8583984, -1.2195122, -150.6707306, 52.0731735, -0.0562295
0.6069336, -0.2524414, -0.9238281, -2.1341465, -150.9146423, 52.1951218, -0.0525368
0.5908203, -0.2382812, -0.9477539, -5.1829271, -154.2682953, 53.2317085, -0.0412909
0.5976562, -0.234375, -0.9643555, -7.6219516, -156.9512177, 54.2073174, -0.0340734
0.6147461, -0.2382812, -0.9643555, -8.4756098, -157.4390259, 54.5121956, -0.027863
0.6435547, -0.2744141, -0.9521484, -9.0853662, -156.646347, 55.0609779, -0.0236667
0.6557617, -0.2978516, -0.9477539, -9.5731707, -156.1585388, 55.6097565, -0.017792
0.6425781, -0.340332, -0.934082, -9.9390249, -154.8170776, 57.0121956, -0.0117494
0.6025391, -0.3383789, -0.9619141, -9.8170738, -154.2073212, 57.5, -0.0102388
0.5751953, -0.3291016, -0.9780273, -9.7560978, -153.4756165, 58.5975609, -0.01561
0.5444336, -0.3085938, -1.015625, -10, -153.5975647, 59.0243912, -0.0135958
0.5375977, -0.2949219, -1.0253906, -10.8536587, -153.4756165, 59.5121956, -0.0229953
0.5463867, -0.2949219, -1.0390625, -11.5243902, -153.2317047, 59.8170738, -0.0273594
0.5546875, -0.3081055, -1.0307617, -12.8048782, -153.0487823, 59.8170738, -0.0229953
0.581543, -0.3505859, -1.0205078, -13.2926836, -153.2926941, 60.3048782, -0.0223239
0.5981445, -0.3701172, -1.0112305, -12.6219511, -153.0487823, 60.7926826, -0.0135958
0.6137695, -0.3842773, -0.9780273, -10.9756098, -151.7682953, 60.6707344, -0.0082246
0.6137695, -0.3730469, -0.9672852, -10.060976, -151.1585388, 60.4268303, -0.005539
0.5981445, -0.3530273, -0.9277344, -9.0243902, -148.7195129, 59.0853691, -0.0018463
0.5664062, -0.3457031, -0.8837891, -9.3902445, -147.9268341, 57.8658562, -0.0052033
0.5405273, -0.3466797, -0.8745117, -9.8170738, -147.0731812, 55.7926826, -0.003357
0.4863281, -0.362793, -0.8803711, -9.9390249, -147.5609741, 54.6341476, -0.0011749
0.4648438, -0.3745117, -0.8955078, -9.4512196, -150.0609741, 54.2073174, -0.0001678
0.4560547, -0.387207, -0.9301758, -8.4146347, -151.5853729, 53.841465, -0.0028534
0.4545898, -0.3813477, -0.956543, -6.7682929, -154.0853729, 53.1097565, -0.002182
0.472168, -0.3886719, -0.9848633, -6.280488, -155.36586, 53.0487823, -0.0045319
0.4912109, -0.4033203, -0.9897461, -6.890244, -155.6097565, 53.1707344, -0.005539
0.5107422, -0.4335938, -0.9790039, -7.2560978, -155.0609741, 53.4146347, -0.0008392
0.5004883, -0.4365234, -0.9765625, -6.5853658, -154.0243988, 53.7804909, 0.002182
0.4707031, -0.3867188, -0.9697266, -4.0243902, -152.5609741, 54.7560997, -0.0015106
0.4541016, -0.3188477, -0.9750977, -3.1097562, -152.1951294, 54.5731735, 0.0035248
