Application:, Trigno Discover (1.6.5)
Date/Time:, 18/02/2025 16:34:29
Collection Length (seconds):, 24.5295
wrist (81457), , , , , , bicep (81139)
sensor mode: 609, , , , , , sensor mode: 40
ACC X (G), ACC Y (G), ACC Z (G), GYRO X (deg/s), GYRO Y (deg/s), GYRO Z (deg/s), EMG 1 (mV)
370.3704 Hz, 370.3704 Hz, 370.3704 Hz, 370.3704 Hz, 370.3704 Hz, 370.3704 Hz, 2148.1481 Hz
-0.6225586, 0.6958008, -0.3325195, -13.780488, -10.2439022, 3.1707318, 0.023331
-0.605957, 0.7070312, -0.3432617, -13.0487804, -9.8780489, 4.0853658, 0.0166171
-0.5996094, 0.7080078, -0.3530273, -13.3536587, -9.8170738, 3.8414636, 0.0095674
-0.5908203, 0.6918945, -0.3588867, -14.8780489, -9.0243902, 2.9878049, 0.0085603
-0.5952148, 0.6870117, -0.3603516, -15.6097565, -8.5975609, 2.3170731, 0.0132601
-0.6098633, 0.6835938, -0.3583984, -15.9756098, -8.1097565, 1.2195122, 0.008896
-0.621582, 0.6992188, -0.3745117, -15.5487804, -8.3536587, 1.097561, 0.0058747
-0.6274414, 0.7114258, -0.3886719, -14.3292685, -9.6951218, 2.2560976, 0.0025177
-0.6259766, 0.7246094, -0.4145508, -14.3902445, -10.3658543, 2.5, -0.0058747
-0.6313477, 0.7304688, -0.4179688, -15.1829271, -11.4024391, 1.8902439, -0.021149
-0.6499023, 0.7158203, -0.4013672, -17.5, -11.5853662, 0.3658537, -0.0325628
-0.6606445, 0.7080078, -0.3818359, -18.4146347, -11.5243902, -0.1829268, -0.0172885
-0.6738281, 0.6992188, -0.3510742, -17.8658543, -11.9512196, 0, 0.0757
-0.6704102, 0.7011719, -0.3486328, -16.7682934, -12.2560978, 0.6097561, 0.2213931
-0.6577148, 0.7099609, -0.3657227, -14.2073174, -13.5975609, 2.4390244, 0.25832
-0.644043, 0.7163086, -0.3813477, -13.4146347, -14.0853662, 3.0487804, 0.2281071
-0.6269531, 0.7226562, -0.4101562, -12.9878054, -13.9634151, 3.2317073, 0.1591211
-0.6289062, 0.7246094, -0.4165039, -13.6585369, -13.9024391, 2.7439024, 0.0720073
-0.6323242, 0.7285156, -0.4072266, -15.3048782, -13.4756098, 2.0731707, 0.0065461
-0.652832, 0.734375, -0.3862305, -15.4268293, -14.1463413, 1.7682927, -0.0377661
-0.6582031, 0.7412109, -0.3740234, -15.2439032, -14.8170738, 1.7073171, -0.0762036
-0.6479492, 0.7412109, -0.375, -14.6341467, -15.4268293, 1.8292683, -0.1049058
-0.6455078, 0.7353516, -0.3759766, -14.6341467, -15.6707325, 2.0121951, -0.1226978
-0.6381836, 0.7270508, -0.3647461, -14.8170738, -15.5487804, 2.195122, -0.1384756
-0.6342773, 0.7241211, -0.3549805, -15.3048782, -15.7317076, 2.0731707, -0.1393149
-0.6259766, 0.7060547, -0.3256836, -15.9146347, -15.4268293, 1.402439, -0.1237049
-0.6196289, 0.6938477, -0.2988281, -15.9756098, -15.060976, 1.402439, -0.0965133
-0.6157227, 0.6938477, -0.2905273, -14.8170738, -14.6951227, 1.5243902, -0.0854353
-0.5981445, 0.6855469, -0.2993164, -14.1463413, -14.1463413, 1.8902439, -0.0834211
-0.5917969, 0.6806641, -0.3071289, -13.5365858, -13.5365858, 2.6829269, -0.0861067
-0.5883789, 0.6723633, -0.3203125, -13.2926836, -12.1341467, 2.2560976, -0.1010452
-0.5957031, 0.6704102, -0.3173828, -13.2926836, -12.0731707, 1.8902439, -0.1169909
-0.609375, 0.6767578, -0.3125, -13.2926836, -11.6463413, 1.4634147, -0.1317617
-0.6186523, 0.6826172, -0.3144531, -13.3536587, -11.7073174, 1.4634147, -0.1277333
-0.6220703, 0.7045898, -0.3144531, -12.1951218, -12.4390249, 2.3780489, -0.0961776
-0.6186523, 0.7128906, -0.3105469, -11.8902445, -12.7439032, 2.195122, -0.0726787
-0.6157227, 0.7182617, -0.2890625, -12.0121956, -12.1341467, 1.0365853, -0.0706645
-0.6079102, 0.7182617, -0.2768555, -12.1341467, -11.4634151, 0.6097561, -0.0659648
-0.6113281, 0.7109375, -0.2856445, -11.0365858, -9.5121956, 1.097561, -0.0755322
-0.5986328, 0.703125, -0.3339844, -10.1829271, -9.1463413, 2.1341465, -0.0963455
-0.5883789, 0.6948242, -0.359375, -9.2073174, -9.0243902, 3.4756098, -0.1139696
-0.5961914, 0.6967773, -0.3925781, -10.4878054, -8.5365858, 2.5609756, -0.1169909
-0.6108398, 0.6967773, -0.3862305, -11.5243902, -8.4146347, 1.4634147, -0.1190051
-0.6567383, 0.7050781, -0.3535156, -12.3170738, -8.9634151, 0.2439024, -0.1106126
-0.6640625, 0.7104492, -0.3378906, -12.0121956, -10.3048782, 0.6097561, -0.0941634
-0.6699219, 0.7192383, -0.3129883, -9.6951218, -11.8902445, 1.7073171, -0.082414
-0.6586914, 0.7216797, -0.3168945, -8.3536587, -11.8902445, 2.3170731, -0.0787213
-0.640625, 0.7246094, -0.3369141, -7.9268293, -10.8536587, 2.9878049, -0.0632792
-0.6303711, 0.7211914, -0.3637695, -8.1097565, -9.5731707, 2.9268293, -0.0397803
-0.6308594, 0.7275391, -0.3696289, -9.1463413, -7.7439027, 2.9268293, -0.0162814
-0.637207, 0.7299805, -0.3754883, -10.1219511, -7.1341467, 2.5, 0.0025177
-0.6494141, 0.7333984, -0.3686523, -11.219512, -7.0121951, 1.5243902, 0.0414588
-0.6635742, 0.7329102, -0.3730469, -10.4878054, -8.5975609, 1.5243902, 0.1082628
-0.6611328, 0.7358398, -0.3798828, -10.3658543, -9.5121956, 2.0121951, 0.1693599
-0.6523438, 0.7294922, -0.3862305, -10.060976, -10.2439022, 2.195122, 0.1770809
-0.6474609, 0.7299805, -0.3857422, -10.2439022, -10.3048782, 1.8902439, 0.1461967
-0.644043, 0.734375, -0.3706055, -11.280488, -10.9146347, 1.2804878, 0.1045701
-0.6430664, 0.7353516, -0.3554688, -11.4024391, -11.219512, 0.7926829, 0.079057
-0.6367188, 0.7324219, -0.3251953, -11.4024391, -11.5243902, 0.3048781, 0.0629435
-0.6313477, 0.7358398, -0.3081055, -11.0975609, -11.7682934, 0.3658537, 0.0428016
-0.6318359, 0.7392578, -0.3105469, -10.6097565, -10.9756098, 0.6097561, 0.0216526
-0.6333008, 0.7407227, -0.340332, -10.3658543, -10.3658543, 0.9756098, -0.0072175
-0.6298828, 0.7397461, -0.355957, -11.0365858, -8.841464, 1.2195122, -0.047837
-0.6396484, 0.7402344, -0.3862305, -12.560976, -7.6219516, 0.9146342, -0.0844282
-0.6494141, 0.7382812, -0.3857422, -12.9878054, -7.7439027, 0.3658537, -0.1049058
-0.6723633, 0.7421875, -0.3764648, -14.3902445, -8.719512, -0.1219512, -0.1284047
-0.6796875, 0.7441406, -0.3696289, -14.9390249, -9.6341467, -0.1829268, -0.139147
-0.675293, 0.7241211, -0.3535156, -15.3048782, -10.9756098, -0.6707317, -0.1431754
-0.6689453, 0.7167969, -0.3496094, -15.2439032, -11.1585369, -0.7926829, -0.1475395
-0.6699219, 0.7055664, -0.3549805, -14.6341467, -10.9146347, -0.6707317, -0.1431754
-0.6630859, 0.7241211, -0.3681641, -14.3292685, -10.9146347, -0.1829268, -0.1352865
-0.6591797, 0.7314453, -0.3793945, -13.841464, -11.1585369, 0.3658537, -0.1304189
-0.6547852, 0.7514648, -0.3862305, -14.0243902, -11.5243902, 0.6097561, -0.1233692
-0.652832, 0.7514648, -0.3803711, -15.4878054, -11.7073174, -0.1829268, -0.1129625
-0.6635742, 0.7436523, -0.3720703, -16.5853653, -11.5853662, -0.4878049, -0.0975204
-0.668457, 0.7294922, -0.3657227, -16.7682934, -11.5243902, -0.4878049, -0.0830854
-0.6699219, 0.7084961, -0.3520508, -16.8292694, -11.219512, 0, -0.0706645
-0.6733398, 0.7021484, -0.3510742, -16.280489, -10.9756098, 0.3048781, -0.0673075
-0.6738281, 0.6982422, -0.3515625, -15.4878054, -11.6463413, 1.5243902, -0.0652934
-0.668457, 0.7045898, -0.3496094, -15.1219511, -12.0731707, 1.8902439, -0.0575723
-0.6635742, 0.7041016, -0.3364258, -15.1219511, -12.8658543, 2.3170731, -0.0466621
-0.6582031, 0.6962891, -0.3237305, -15.060976, -12.8048782, 2.2560976, -0.0337377
-0.6616211, 0.7001953, -0.3242188, -14.7560978, -11.7682934, 1.7682927, -0.0256809
-0.6635742, 0.7045898, -0.3242188, -14.1463413, -11.341464, 1.7073171, -0.018967
-0.6586914, 0.7089844, -0.3286133, -12.9878054, -11.6463413, 3.2926829, -0.0082246
-0.640625, 0.7094727, -0.3388672, -12.1341467, -12.1951218, 3.9024391, 0.005539
-0.6357422, 0.7128906, -0.3374023, -12.0121956, -12.1951218, 3.5365853, 0.0057069
-0.6337891, 0.7163086, -0.331543, -12.6219511, -11.7073174, 3.0487804, 0.0038605
-0.6342773, 0.7246094, -0.3193359, -12.2560978, -11.7682934, 2.6829269, 0.01561
-0.6235352, 0.7373047, -0.3115234, -11.4634151, -11.6463413, 2.9268293, 0.0260166
-0.6157227, 0.7392578, -0.3164062, -11.0975609, -11.5853662, 2.804878, 0.0428016
-0.609375, 0.7480469, -0.3251953, -10.9146347, -10.5487804, 2.2560976, 0.0582437
-0.6108398, 0.7578125, -0.3349609, -10.9756098, -9.6951218, 2.1341465, 0.0800641
-0.6088867, 0.7583008, -0.3393555, -11.7073174, -8.2926826, 1.6463414, 0.111284
-0.612793, 0.7480469, -0.3364258, -12.5, -7.8048782, 1.5853659, 0.1334401
-0.6162109, 0.746582, -0.3325195, -13.4146347, -6.4634147, 1.0365853, 0.1374685
-0.6147461, 0.7338867, -0.3251953, -13.2926836, -5.8536587, 0.6707317, 0.1233692
-0.6162109, 0.7324219, -0.3242188, -12.9878054, -5.9756098, 0.7317073, 0.0983597
-0.6123047, 0.7358398, -0.3266602, -12.8658543, -5.5487804, 0.6707317, 0.0716716
-0.6142578, 0.7387695, -0.3300781, -12.6829271, -5.2439027, 0.3658537, 0.0548867
-0.6240234, 0.7460938, -0.3481445, -12.6219511, -4.1463413, -0.1219512, 0.0344091
-0.6279297, 0.7460938, -0.3569336, -12.7439032, -3.9024391, -0.2439024, 0.0149386
-0.640625, 0.7524414, -0.3730469, -13.2926836, -3.2317073, 0, 0.0018463
-0.6494141, 0.7480469, -0.3720703, -13.9024391, -2.804878, -0.0609756, -0.0065461
-0.6508789, 0.7431641, -0.3725586, -15.1219511, -2.804878, -0.7317073, -0.0142672
-0.6601562, 0.7333984, -0.3608398, -15.4268293, -3.1097562, -1.1585366, -0.0184634
-0.6640625, 0.7250977, -0.3554688, -15.1219511, -3.4756098, -1.2804878, -0.0209812
-0.6640625, 0.722168, -0.347168, -14.2682934, -4.5731707, -0.8536586, -0.0287022
-0.659668, 0.7270508, -0.347168, -13.9024391, -5, -0.3048781, -0.0344091
-0.6513672, 0.7216797, -0.3613281, -13.5365858, -5.7926831, 0.1219512, -0.0357519
-0.644043, 0.7158203, -0.3642578, -13.2926836, -5.670732, 0.1219512, -0.0360876
-0.6489258, 0.7084961, -0.3608398, -14.4512196, -5.670732, -0.2439024, -0.0337377
-0.6538086, 0.7036133, -0.3603516, -14.5731707, -5.8536587, -0.4878049, -0.0354162
-0.6665039, 0.6904297, -0.3579102, -14.5731707, -6.5853658, -0.2439024, -0.0409552
-0.6621094, 0.6948242, -0.3583984, -14.0853662, -7.6219516, 0.3048781, -0.0542153
-0.652832, 0.7021484, -0.3554688, -13.6585369, -9.1463413, 0.8536586, -0.0679789
-0.640625, 0.7202148, -0.3520508, -13.7195129, -9.7560978, 0.7926829, -0.0602579
-0.6328125, 0.7280273, -0.3549805, -13.9024391, -10.4878054, 0.9756098, -0.0317235
-0.6220703, 0.7294922, -0.3554688, -15.1219511, -10.060976, 0.9146342, -0.0218204
-0.6166992, 0.7177734, -0.3564453, -15.5487804, -9.7560978, 0.6097561, -0.0008392
-0.6157227, 0.6938477, -0.3535156, -16.4634151, -8.6585369, 0.3658537, 0.023331
-0.6240234, 0.6899414, -0.3486328, -16.7682934, -8.6585369, 0, 0.024506
-0.6259766, 0.6904297, -0.3320312, -16.9512196, -9.7560978, 0.4268293, 0.0092317
-0.6269531, 0.6899414, -0.3237305, -17.0121956, -10.7317076, 0.7926829, -0.0035248
-0.6201172, 0.6894531, -0.3149414, -16.1585369, -11.219512, 0.6707317, -0.0104067
-0.6201172, 0.6918945, -0.3120117, -16.2195129, -10.9756098, 0.5487805, -0.0193027
-0.6191406, 0.6977539, -0.3139648, -15.4878054, -10.4268293, 1.097561, -0.0287022
-0.6147461, 0.7089844, -0.3291016, -15.3658543, -9.8780489, 1.402439, -0.0350805
-0.6176758, 0.7104492, -0.3398438, -15.3658543, -8.841464, 1.9512196, -0.0374304
-0.6328125, 0.7148438, -0.3681641, -15.3658543, -8.4146347, 1.9512196, -0.0391089
-0.6381836, 0.7143555, -0.3842773, -15.6707325, -8.1097565, 1.8902439, -0.0384375
-0.6616211, 0.7075195, -0.3925781, -16.3414631, -9.3292685, 1.402439, -0.018967
-0.6762695, 0.7055664, -0.3867188, -16.3414631, -9.9390249, 0.8536586, -0.0072175
-0.6918945, 0.7075195, -0.3613281, -16.2195129, -11.280488, 0.8536586, -0.0063783
-0.6972656, 0.7104492, -0.3466797, -15.6707325, -11.9512196, 1.1585366, 0.0129244
-0.6806641, 0.7148438, -0.3193359, -14.2073174, -13.4756098, 2.3780489, 0.0315557
-0.6430664, 0.7128906, -0.3139648, -13.1707315, -13.780488, 3.0487804, 0.0263523
-0.6220703, 0.7070312, -0.3168945, -12.7439032, -13.1707315, 3.2926829, 0.0082246
-0.6054688, 0.6987305, -0.3134766, -12.560976, -12.3780489, 3.0487804, -0.0129244
-0.6010742, 0.6977539, -0.3139648, -12.4390249, -10.6097565, 2.3780489, -0.0317235
-0.609375, 0.7060547, -0.3212891, -11.9512196, -9.7560978, 2.4390244, -0.0062104
-0.612793, 0.7133789, -0.328125, -11.4634151, -9.6951218, 2.7439024, 0.0199741
-0.6176758, 0.7167969, -0.3461914, -10.7317076, -10.060976, 2.9268293, -0.0090639
-0.6259766, 0.7207031, -0.3505859, -11.0975609, -9.8170738, 2.7439024, -0.0428016
-0.6357422, 0.71875, -0.3466797, -12.0121956, -9.2073174, 1.8292683, -0.0569009
-0.6474609, 0.71875, -0.3408203, -12.3780489, -9.0243902, 1.2804878, -0.0592508
-0.6542969, 0.7211914, -0.3266602, -11.5853662, -9.1463413, 2.0121951, -0.0417945
-0.640625, 0.7260742, -0.3217773, -10.8536587, -9.7560978, 2.2560976, -0.018967
-0.6264648, 0.7294922, -0.3232422, -10.060976, -10.1829271, 3.0487804, 0.0011749
-0.5986328, 0.7333984, -0.3266602, -9.8170738, -9.8170738, 3.0487804, 0.0206455
-0.5927734, 0.7324219, -0.331543, -10.6707315, -8.2317076, 2.6219513, 0.0253452
-0.5893555, 0.7299805, -0.3413086, -12.3780489, -5.8536587, 1.9512196, 0.0152743
-0.5908203, 0.7250977, -0.3432617, -13.1097565, -4.9390244, 1.8292683, 0.0031891
-0.6098633, 0.7177734, -0.3476562, -14.3902445, -4.0853658, 1.5853659, -0.0109102
-0.6157227, 0.7089844, -0.3496094, -15.060976, -4.3292685, 1.5853659, -0.018967
-0.628418, 0.6904297, -0.355957, -15.6707325, -4.5731707, 0.6707317, -0.0298772
-0.6381836, 0.6801758, -0.3535156, -15.6097565, -4.7560978, 0.3658537, -0.0384375
-0.6616211, 0.6713867, -0.3452148, -15.6707325, -5.609756, -0.0609756, -0.0433051
-0.668457, 0.6791992, -0.3359375, -15.2439032, -6.0975609, 0.2439024, -0.0406195
-0.6669922, 0.6865234, -0.3354492, -13.9634151, -7.5609756, 1.2195122, -0.0276951
-0.6362305, 0.6972656, -0.3549805, -13.5365858, -8.5365858, 2.0121951, -0.011078
-0.6259766, 0.699707, -0.3666992, -12.9878054, -9.0243902, 3.1707318, -0.0010071
-0.6118164, 0.7060547, -0.3979492, -14.0243902, -8.4756098, 2.9268293, -0.0082246
-0.6088867, 0.7055664, -0.4018555, -14.8170738, -8.4756098, 2.5609756, -0.0112459
-0.6254883, 0.703125, -0.3964844, -17.3170738, -8.6585369, 1.1585366, -0.0112459
-0.6459961, 0.6992188, -0.3881836, -17.5, -9.2073174, 0.3048781, -0.0360876
-0.6743164, 0.7001953, -0.3671875, -17.6829281, -10.6097565, 0.6707317, -0.0679789
-0.6831055, 0.7021484, -0.3588867, -17.0121956, -11.5853662, 0.7926829, -0.0809033
-0.6826172, 0.7006836, -0.355957, -15.4268293, -12.7439032, 1.7682927, -0.0783856
-0.6738281, 0.6987305, -0.3564453, -14.9390249, -13.1097565, 1.9512196, -0.0730144
-0.668457, 0.7016602, -0.3515625, -14.5731707, -13.780488, 2.4390244, -0.0693217
-0.6523438, 0.6962891, -0.3491211, -14.6341467, -13.5365858, 2.6829269, -0.0607614
-0.6386719, 0.6918945, -0.34375, -14.3902445, -13.6585369, 3.1707318, -0.0491798
-0.6269531, 0.684082, -0.3422852, -13.4146347, -13.780488, 3.4756098, -0.0394446
-0.6147461, 0.6850586, -0.3374023, -12.9268293, -13.4756098, 3.4146342, -0.0384375
-0.6113281, 0.6933594, -0.3398438, -12.6829271, -13.0487804, 3.1707318, -0.0169528
-0.6123047, 0.6967773, -0.3447266, -12.560976, -12.9268293, 3.1707318, 0.0078889
-0.6157227, 0.7036133, -0.3452148, -12.5, -12.560976, 3.4146342, -0.0176242
-0.6137695, 0.703125, -0.34375, -12.6219511, -12.6829271, 3.4146342, -0.0548867
-0.6166992, 0.7045898, -0.347168, -12.6829271, -12.4390249, 2.9878049, -0.0795605
-0.6342773, 0.7001953, -0.3447266, -12.6829271, -12.1341467, 2.9268293, -0.0928206
-0.6381836, 0.7016602, -0.3417969, -12.0121956, -11.4024391, 2.4390244, -0.0861067
-0.6459961, 0.7094727, -0.3378906, -11.341464, -10.9756098, 2.195122, -0.0721752
-0.644043, 0.7182617, -0.3447266, -10.7926836, -10.8536587, 2.3170731, -0.0827497
-0.6411133, 0.7246094, -0.3623047, -10.2439022, -10.7926836, 2.804878, -0.0877852
-0.6342773, 0.7246094, -0.3681641, -10.1219511, -10.8536587, 3.0487804, -0.0733501
-0.6254883, 0.7109375, -0.3754883, -10.5487804, -10.8536587, 2.7439024, -0.0565652
-0.6225586, 0.699707, -0.3720703, -11.0365858, -10.3658543, 2.5, -0.0406195
-0.6269531, 0.6835938, -0.3588867, -11.341464, -9.6341467, 1.3414634, -0.0330663
-0.6386719, 0.6831055, -0.3339844, -11.0365858, -9.5731707, 1.2195122, -0.0303807
-0.6411133, 0.684082, -0.3276367, -9.3292685, -10.2439022, 1.7682927, -0.0263523
-0.6342773, 0.6806641, -0.3349609, -8.3536587, -10.6097565, 2.3170731, -0.0179599
-0.6259766, 0.6801758, -0.347168, -6.8292685, -10.8536587, 2.804878, -0.0090639
-0.628418, 0.6894531, -0.3686523, -5.4268293, -9.5121956, 2.5609756, 0.0062104
-0.6352539, 0.6962891, -0.3813477, -5, -8.9634151, 2.195122, 0.0194705
-0.6621094, 0.7041016, -0.3828125, -5.1219511, -8.5365858, 2.5609756, 0.023331
-0.6630859, 0.7050781, -0.3818359, -4.3292685, -8.780488, 2.8658538, 0.0223239
-0.671875, 0.7011719, -0.375, -2.7439024, -9.8170738, 2.9878049, 0.0344091
-0.6728516, 0.6977539, -0.3745117, -2.3170731, -10.4878054, 3.1097562, 0.0542153
-0.6640625, 0.6914062, -0.3613281, -1.1585366, -10.8536587, 3.0487804, 0.0585794
-0.6601562, 0.6977539, -0.3481445, -0.3048781, -10.4268293, 2.9268293, 0.1616388
-0.65625, 0.703125, -0.3374023, 1.0365853, -9.8170738, 3.2317073, 0.2754406
-0.6411133, 0.7211914, -0.3320312, 1.8902439, -9.3902445, 3.9634147, 0.342916
-0.6328125, 0.7270508, -0.3330078, 2.9878049, -8.2926826, 4.8170733, 0.3355306
-0.6137695, 0.7236328, -0.3647461, 2.6829269, -5.670732, 5.4268293, 0.2697337
-0.6113281, 0.7192383, -0.3862305, 2.195122, -4.0243902, 5.2439027, 0.1864805
-0.6240234, 0.7124023, -0.4169922, 1.8292683, -1.5853659, 4.6951222, 0.110277
-0.6376953, 0.7094727, -0.4267578, 1.2195122, -1.1585366, 4.5121951, 0.0438087
-0.6616211, 0.7182617, -0.4145508, 1.2804878, -2.1341465, 4.3292685, -0.012253
-0.6743164, 0.7241211, -0.4042969, 1.4634147, -2.6829269, 3.7195122, -0.061265
-0.6918945, 0.7280273, -0.3764648, 2.9878049, -3.8414636, 3.2317073, -0.1049058
-0.6962891, 0.7246094, -0.3442383, 3.9634147, -4.5121951, 3.2926829, -0.1317617
-0.6894531, 0.7192383, -0.3325195, 6.3414636, -4.6951222, 4.0243902, -0.1478752
-0.6694336, 0.6943359, -0.3334961, 7.1951222, -4.0243902, 4.4512196, -0.1562676
-0.6582031, 0.6767578, -0.3427734, 8.5365858, -2.0731707, 5.5487804, -0.1566033
-0.6459961, 0.6542969, -0.3847656, 9.5121956, 0.0609756, 7.1951222, -0.1599603
-0.6411133, 0.6494141, -0.4082031, 9.7560978, 0.6707317, 8.2926826, -0.1748989
-0.6391602, 0.6542969, -0.440918, 10.3658543, 0.1829268, 9.6341467, -0.1868162
-0.6416016, 0.6674805, -0.4487305, 10.4268293, -0.6097561, 9.4512196, -0.1995727
-0.6567383, 0.7080078, -0.4443359, 10.4878054, -1.8292683, 8.4146347, -0.2022583
-0.6625977, 0.7255859, -0.4448242, 10.9756098, -2.3170731, 7.6219516, -0.1901732
-0.6772461, 0.7470703, -0.4501953, 11.6463413, -3.2926829, 7.5609756, -0.1747311
-0.6782227, 0.7451172, -0.4829102, 12.0731707, -3.1097562, 7.9268293, -0.1549248
-0.684082, 0.7363281, -0.5004883, 12.4390249, -2.6829269, 9.0853662, -0.1304189
-0.6811523, 0.7207031, -0.5258789, 11.9512196, -2.7439024, 9.6341467, -0.1163195
-0.6845703, 0.7138672, -0.5244141, 10.7317076, -2.7439024, 9.6951218, -0.1077592
-0.6914062, 0.7041016, -0.4985352, 9.7560978, -3.9024391, 8.841464, -0.1089342
-0.6992188, 0.7060547, -0.4750977, 9.8780489, -4.7560978, 8.780488, -0.0981918
-0.6967773, 0.7128906, -0.4301758, 12.0121956, -6.6463418, 9.2073174, -0.0679789
-0.6870117, 0.7192383, -0.4165039, 13.4146347, -6.8292685, 9.6341467, -0.0522011
-0.65625, 0.730957, -0.4091797, 15.7317076, -6.2195125, 10.9146347, -0.047837
-0.6455078, 0.7290039, -0.418457, 16.7682934, -4.8780489, 11.4634151, -0.0193027
-0.6333008, 0.7226562, -0.4321289, 17.0731716, -2.1341465, 11.7073174, 0.0253452
-0.6401367, 0.7124023, -0.4262695, 17.3170738, -1.0365853, 11.5243902, 0.0513619
-0.6430664, 0.7099609, -0.4213867, 18.0487804, 0.4878049, 10.7926836, 0.0505226
-0.6567383, 0.7080078, -0.40625, 19.3292694, 1.1585366, 10.7926836, 0.0384375
-0.659668, 0.7167969, -0.3999023, 22.0731716, 1.3414634, 10.7926836, 0.0186313
-0.6362305, 0.7373047, -0.409668, 24.3292694, 1.7682927, 12.3780489, -0.0135958
-0.6210938, 0.7402344, -0.425293, 25, 2.5, 13.2317076, -0.0357519
-0.578125, 0.7392578, -0.4716797, 25.3048782, 4.8170733, 13.2926836, -0.0458228
-0.5683594, 0.7329102, -0.4985352, 25.1219521, 6.4634147, 12.7439032, -0.0357519
-0.5703125, 0.7358398, -0.5214844, 24.3902435, 8.2926826, 11.219512, -0.0146029
-0.5795898, 0.7456055, -0.5263672, 24.0243912, 8.2317076, 10.6097565, 0.0035248
-0.5961914, 0.7749023, -0.5112305, 24.2682934, 6.9512196, 9.7560978, 0.0146029
-0.5932617, 0.7861328, -0.4770508, 24.6951218, 6.2195125, 9.3292685, 0.0248417
-0.5908203, 0.7802734, -0.4633789, 25.2439022, 5.7317076, 8.0487804, 0.0139315
-0.5849609, 0.7524414, -0.4453125, 25.3048782, 6.5243902, 7.3780489, -0.0028534
-0.5864258, 0.737793, -0.4418945, 26.0975609, 10.1829271, 6.5243902, -0.0256809
-0.6005859, 0.7016602, -0.4707031, 27.3170738, 14.3902445, 7.3170733, -0.0488441
-0.6108398, 0.6982422, -0.4960938, 28.6585369, 15.7317076, 8.0487804, -0.0669718
-0.6303711, 0.7192383, -0.5385742, 30.1829281, 15.6097565, 9.3292685, -0.0795605
-0.6386719, 0.7280273, -0.550293, 30.5487804, 14.5731707, 9.6951218, -0.0866102
-0.659668, 0.7348633, -0.5566406, 31.0365868, 13.5365858, 8.780488, -0.0928206
-0.6640625, 0.7265625, -0.5483398, 30.7926846, 13.4756098, 7.9878049, -0.0938277
-0.6743164, 0.7070312, -0.512207, 31.0365868, 13.6585369, 8.3536587, -0.0894636
-0.6479492, 0.6831055, -0.4858398, 31.5853672, 14.0853662, 9.1463413, -0.0809033
-0.6254883, 0.675293, -0.4863281, 33.9024391, 14.3292685, 11.219512, -0.0767071
-0.590332, 0.6674805, -0.5053711, 34.9390259, 14.5731707, 11.8292685, -0.0688182
-0.5795898, 0.6708984, -0.5244141, 36.9512215, 16.280489, 12.4390249, -0.0627756
-0.5771484, 0.6953125, -0.5751953, 37.6829262, 17.6219521, 12.5, -0.0569009
-0.5893555, 0.7143555, -0.5952148, 36.8902435, 18.1097565, 12.0121956, -0.0471656
-0.6191406, 0.75, -0.6201172, 35.7926826, 18.4756107, 11.341464, -0.0441444
-0.6357422, 0.7607422, -0.6210938, 35.3048782, 18.1097565, 11.219512, -0.0354162
-0.6572266, 0.7705078, -0.605957, 34.9390259, 17.6219521, 11.0365858, -0.0243381
-0.668457, 0.7729492, -0.5957031, 35.4878044, 16.9512196, 11.0365858, -0.012253
-0.6777344, 0.7714844, -0.5922852, 38.0487823, 14.7560978, 12.3780489, 0.0008392
-0.6333008, 0.7900391, -0.59375, 38.9634171, 14.3292685, 13.9024391, 0.0135958
-0.6005859, 0.7836914, -0.5947266, 38.5365868, 15.7317076, 14.5731707, 0.0149386
-0.5893555, 0.7724609, -0.574707, 36.8292694, 18.0487804, 13.5975609, 0.0287022
-0.6015625, 0.7475586, -0.5766602, 34.5121956, 22.1951218, 11.7073174, 0.0528725
-0.6108398, 0.7026367, -0.6162109, 36.4024391, 24.3292694, 14.2073174, 0.0706645
-0.6044922, 0.7050781, -0.6411133, 38.1707344, 24.3292694, 15.6097565, 0.0575723
-0.6132812, 0.7382812, -0.6572266, 39.0853653, 22.0121956, 16.0365849, 0.0394446
-0.6181641, 0.737793, -0.6494141, 38.2317085, 20.7317085, 15.7926836, 0.0253452
-0.6181641, 0.7270508, -0.6005859, 35.9756088, 21.1585369, 14.4512196, 0.0206455
-0.6269531, 0.7182617, -0.5664062, 35.7926826, 22.1951218, 13.9024391, 0.0253452
-0.6318359, 0.7060547, -0.5024414, 37.9878044, 24.7560978, 14.6341467, 0.0428016
-0.6103516, 0.7041016, -0.4697266, 39.8170738, 25.6097565, 15.6097565, 0.0730144
-0.5864258, 0.7080078, -0.4775391, 44.4512215, 27.7439022, 17.3780499, 0.0891279
-0.5400391, 0.6918945, -0.53125, 46.4024391, 29.6341476, 18.2317085, 0.0963455
-0.5341797, 0.6811523, -0.5634766, 49.4512215, 33.7195129, 18.5975609, 0.1193408
-0.5625, 0.6811523, -0.6279297, 50.6707344, 36.7073174, 18.6585369, 0.1807736
-0.5844727, 0.6855469, -0.6606445, 51.0365868, 37.2560997, 19.2073174, 0.1831235
-0.6313477, 0.7119141, -0.6977539, 51.5853653, 36.7682953, 19.6341476, 0.131426
-0.6469727, 0.7387695, -0.7036133, 51.6463432, 36.2804871, 19.6341476, 0.0454871
-0.6816406, 0.7900391, -0.6899414, 51.4634171, 35, 20.4268303, -0.0417945
-0.6826172, 0.8061523, -0.6787109, 51.341465, 34.2682953, 21.3414631, -0.0871138
-0.6396484, 0.7983398, -0.6503906, 50.7926826, 34.5121956, 23.1097565, -0.0941634
-0.5864258, 0.7700195, -0.6474609, 50.3048782, 35.6707344, 22.7439022, -0.0829175
-0.5644531, 0.7514648, -0.6611328, 50.3658562, 39.2073174, 22.3780499, -0.0757
-0.5356445, 0.7280273, -0.703125, 50.4268303, 40.6707344, 22.3780499, -0.0673075
-0.5263672, 0.7290039, -0.7236328, 50.5487823, 41.5853653, 23.2317085, -0.0498512
-0.5307617, 0.7485352, -0.7358398, 49.3902435, 41.2195129, 22.439024, -0.0431373
-0.5400391, 0.7558594, -0.7211914, 48.1707344, 41.0365868, 21.5853672, -0.0438087
-0.5732422, 0.7607422, -0.6811523, 46.5853653, 41.2804871, 19.8170738, -0.0627756
-0.5800781, 0.7456055, -0.6713867, 46.6463432, 41.7073174, 19.7560978, -0.0726787
-0.5898438, 0.7416992, -0.6791992, 48.5975609, 43.4146347, 20.6707325, -0.0674754
-0.5878906, 0.7436523, -0.6948242, 49.8170738, 43.841465, 21.6463413, -0.068986
-0.5517578, 0.7480469, -0.6923828, 49.6341476, 45.1829262, 22.6219521, -0.0706645
-0.5297852, 0.7729492, -0.6459961, 48.2317085, 45.8536606, 21.5243912, -0.0686503
-0.5224609, 0.7724609, -0.6313477, 47.3780518, 47.7439041, 20.3658543, -0.0679789
-0.4848633, 0.7192383, -0.6381836, 47.7439041, 49.0243912, 20.2439022, -0.0552224
-0.4760742, 0.690918, -0.6547852, 49.5731735, 52.6219521, 20.6097565, -0.0193027
-0.4926758, 0.6567383, -0.6704102, 51.341465, 55.2439041, 19.6341476, -0.0070497
-0.5102539, 0.6479492, -0.6650391, 51.341465, 56.0365868, 19.2682934, -0.0115816
-0.5678711, 0.6503906, -0.6303711, 52.2560997, 56.0365868, 18.3536587, -0.0223239
-0.5888672, 0.6621094, -0.6152344, 53.7804909, 56.0975609, 18.780489, -0.0417945
-0.5810547, 0.6806641, -0.628418, 57.6219521, 57.1341476, 21.4634151, -0.0505226
-0.5668945, 0.6894531, -0.65625, 59.6951218, 58.1097565, 22.3780499, -0.0323949
-0.5410156, 0.7006836, -0.7172852, 62.5609779, 60.4268303, 23.4146347, -0.0075532
-0.5454102, 0.7016602, -0.753418, 62.68293, 61.2804909, 23.1097565, 0.0072175
-0.5561523, 0.6948242, -0.762207, 62.6219521, 61.1585388, 22.6829281, 0.0152743
-0.5854492, 0.6879883, -0.7714844, 62.7439041, 60.7926826, 22.1951218, 0.0171206
-0.6000977, 0.6948242, -0.765625, 63.7804909, 59.6951218, 22.5, 0.0172885
-0.6015625, 0.7094727, -0.7514648, 65.1219559, 58.9024391, 23.1707325, 0.0162814
-0.59375, 0.7211914, -0.7485352, 65.4878082, 58.7195129, 23.8414631, 0.0070497
-0.5532227, 0.737793, -0.7495117, 65.9146347, 59.2073174, 25.2439022, -0.0119173
-0.53125, 0.7373047, -0.7587891, 65.8536606, 60.3658562, 26.1585369, -0.030045
-0.4863281, 0.715332, -0.7788086, 64.7560959, 63.2926826, 26.5853672, -0.0461585
-0.4741211, 0.7045898, -0.7705078, 64.2073212, 64.7560959, 25.7317085, -0.0565652
-0.4873047, 0.6972656, -0.7333984, 63.6585388, 66.7073212, 24.0853672, -0.0807355
-0.4990234, 0.6992188, -0.7314453, 64.2682953, 67.2560959, 23.8414631, -0.1132982
-0.4936523, 0.6884766, -0.7548828, 66.5853653, 67.2560959, 24.6951218, -0.1233692
-0.5019531, 0.6606445, -0.8300781, 67.5, 68.1707306, 25.1219521, -0.1132982
-0.5253906, 0.6508789, -0.8623047, 67.9268341, 69.0853653, 24.4512196, -0.0770428
-0.5932617, 0.6523438, -0.8701172, 67.7439041, 67.5609741, 24.6951218, -0.0313878
-0.6240234, 0.6621094, -0.8505859, 67.5609741, 65.5487823, 25.1829281, 0.0186313
-0.6450195, 0.6845703, -0.8022461, 68.4146347, 61.7073174, 26.6463413, 0.0528725
-0.6352539, 0.6977539, -0.7851562, 69.3902435, 60.9146347, 27.6219521, 0.0555581
-0.5742188, 0.7172852, -0.7895508, 70.6097565, 61.8902435, 30.4268303, 0.027863
-0.5283203, 0.7177734, -0.8061523, 70.6707306, 63.4146347, 31.7682934, -0.0135958
-0.4501953, 0.6992188, -0.8398438, 69.3292694, 67.8658524, 31.8902454, -0.0105745
-0.4462891, 0.6777344, -0.847168, 68.1707306, 69.4512177, 31.1585369, 0.0052033
-0.4594727, 0.6728516, -0.8339844, 67.8048782, 69.4512177, 29.0853672, 0.0124208
-0.5014648, 0.6708984, -0.8095703, 68.8414688, 68.5975647, 28.2317085, 0.0753643
-0.5229492, 0.6679688, -0.8061523, 71.7682953, 65.7317123, 26.2195129, 0.1186694
-0.5415039, 0.6538086, -0.7993164, 74.3292694, 64.0853653, 25.9146347, 0.0884565
-0.546875, 0.6513672, -0.7910156, 75.18293, 63.9634171, 25.7926826, 0.0495155
-0.5366211, 0.6479492, -0.7856445, 75.9146347, 64.5731735, 27.3170738, -0.0198062
-0.5166016, 0.6503906, -0.7841797, 76.8292694, 65.8536606, 27.9878063, -0.0800641
-0.4873047, 0.6674805, -0.8125, 78.2317123, 68.2317123, 29.4512196, -0.1092699
-0.465332, 0.6889648, -0.8276367, 78.4756088, 69.8170776, 30, -0.1210193
-0.4296875, 0.7172852, -0.8544922, 77.68293, 72.0731735, 30.4878063, -0.1211872
-0.4223633, 0.7075195, -0.8686523, 76.4634171, 73.0487823, 29.5121956, -0.1129625
-0.4370117, 0.6977539, -0.8662109, 74.6951218, 74.8170776, 27.0121956, -0.1055772
-0.4726562, 0.6875, -0.8520508, 74.5731735, 75.0609741, 25.9756107, -0.0827497
-0.4853516, 0.6860352, -0.8500977, 75.2439041, 74.3292694, 25, -0.0424659
-0.5, 0.659668, -0.8662109, 76.0365906, 73.4756088, 24.8780499, -0.0058747
-0.5058594, 0.6416016, -0.8745117, 76.0365906, 73.3536606, 25.060976, 0.0461585
-0.515625, 0.6123047, -0.8833008, 76.0365906, 74.3292694, 25.4268303, 0.090135
-0.5234375, 0.6152344, -0.8896484, 76.5243912, 74.6341476, 26.0365868, 0.1099413
-0.5200195, 0.6479492, -0.9155273, 77.4390259, 73.8414688, 28.6585369, 0.1055772
-0.5063477, 0.668457, -0.934082, 78.2317123, 73.8414688, 29.7560978, 0.1042344
-0.4858398, 0.6723633, -0.9599609, 77.3170776, 74.0243912, 30.3658543, 0.0542153
-0.4931641, 0.6518555, -0.9511719, 76.3414688, 74.6341476, 29.6341476, -0.0159457
-0.5068359, 0.6420898, -0.9238281, 75.1219559, 73.8414688, 28.780489, -0.0914778
-0.5039062, 0.6347656, -0.8847656, 76.4634171, 71.3414688, 29.7560978, -0.1478752
-0.4853516, 0.628418, -0.8911133, 77.8048782, 70.7317123, 30.3658543, -0.1797665
-0.4399414, 0.6166992, -0.9238281, 78.6585388, 72.0731735, 31.0975609, -0.181445
-0.4287109, 0.6162109, -0.940918, 78.2317123, 73.5975647, 31.6463413, -0.1760739
-0.4238281, 0.6245117, -0.949707, 76.3414688, 75.7317123, 31.7073174, -0.1707027
-0.4306641, 0.6328125, -0.9448242, 75.9146347, 75.9146347, 31.4024391, -0.1587854
-0.440918, 0.6630859, -0.9399414, 75.5487823, 75.4878082, 32.0731697, -0.1467002
-0.4296875, 0.6704102, -0.9521484, 75.3048782, 75.2439041, 32.5609779, -0.1203479
-0.4262695, 0.6630859, -0.9550781, 74.2073212, 75.6097565, 31.7073174, -0.0814069
-0.4228516, 0.6381836, -0.9399414, 73.2926865, 75.8536606, 31.341465, -0.0626078
-0.4223633, 0.6176758, -0.9257812, 72.0121994, 75.6707306, 30.8536587, -0.0528725
-0.4072266, 0.5874023, -0.9135742, 73.2926865, 74.5121994, 31.4634151, -0.0283665
-0.3959961, 0.5800781, -0.9223633, 74.3292694, 74.2073212, 31.7682934, -0.0414588
-0.3808594, 0.5844727, -0.9516602, 75.3048782, 75, 32.1341476, -0.0726787
-0.3847656, 0.5942383, -0.9550781, 75.7926865, 75.5487823, 32.0731697, -0.0854353
-0.4013672, 0.6054688, -0.9428711, 75.8536606, 75.3658524, 30.9756107, -0.0924849
-0.4121094, 0.5961914, -0.9335938, 76.4634171, 74.8170776, 30.2439022, -0.0928206
-0.4335938, 0.5625, -0.9208984, 78.7195129, 72.8048782, 30.4268303, -0.0686503
-0.421875, 0.5209961, -0.9267578, 79.7560959, 71.8292694, 30.6707325, -0.0350805
-0.4165039, 0.5097656, -0.9345703, 82.1341476, 71.4634171, 31.341465, -0.0043641
-0.4091797, 0.5263672, -0.9443359, 82.7439041, 71.7073212, 31.9512196, 0.0240024
-0.40625, 0.5498047, -0.9536133, 84.146347, 71.8902435, 33.841465, 0.0605936
-0.3706055, 0.605957, -0.9604492, 84.6951218, 72.5, 35.7317085, 0.0911421
-0.3496094, 0.6220703, -0.9624023, 83.9024429, 73.8414688, 35.9756088, 0.1018845
-0.3237305, 0.6088867, -0.9755859, 82.3780518, 76.0975647, 35.1829262, 0.0941634
-0.3227539, 0.5834961, -0.9897461, 81.8292694, 76.646347, 34.6341476, 0.0743572
-0.3334961, 0.5410156, -1.0166016, 81.646347, 76.8292694, 33.841465, 0.0897993
-0.3476562, 0.5327148, -1.0195312, 82.3780518, 76.2804871, 33.4146347, 0.1233692
-0.3813477, 0.5439453, -1.0087891, 83.2317123, 73.3536606, 32.1341476, 0.0944991
-0.394043, 0.578125, -0.9873047, 83.6585388, 71.9512177, 32.1341476, 0.0441444
-0.3803711, 0.5883789, -0.9814453, 83.9634171, 70.5487823, 33.2926826, -0.0062104
-0.331543, 0.5952148, -1.0073242, 83.5365906, 71.3414688, 34.1463432, -0.0448157
-0.3076172, 0.5869141, -1.0253906, 81.7073212, 74.9390259, 35.2439041, -0.0726787
-0.2861328, 0.5878906, -1.0268555, 79.5731735, 77.68293, 34.9390259, -0.0814069
-0.2836914, 0.5917969, -1.0166016, 78.7195129, 78.1707306, 34.5731697, -0.0760357
-0.2832031, 0.5615234, -0.9926758, 77.0731735, 77.8048782, 33.7804871, -0.072343
-0.2851562, 0.5361328, -0.9902344, 76.9512177, 77.5609741, 32.8658562, -0.0683146
-0.300293, 0.4731445, -0.9794922, 77.7439041, 77.8658524, 30.9146347, -0.064622
-0.3193359, 0.4633789, -0.9746094, 79.2073212, 77.9878082, 30.5487804, -0.0575723
-0.3510742, 0.484375, -0.9775391, 81.646347, 77.3170776, 31.0975609, -0.0525368
-0.3408203, 0.5229492, -1.0063477, 82.6219559, 76.5853653, 32.2560997, -0.0446479
-0.3168945, 0.534668, -1.0268555, 82.7439041, 76.7682953, 35, -0.0337377
-0.2768555, 0.5141602, -1.0356445, 81.8292694, 77.5, 35.4878044, -0.018967
-0.2797852, 0.5083008, -1.0141602, 79.6951218, 79.3292694, 34.4512215, -0.011078
-0.2856445, 0.4975586, -0.9624023, 80.4268341, 78.7195129, 34.1463432, -0.0048676
-0.2695312, 0.4951172, -0.953125, 81.5853653, 78.1707306, 34.4512215, 0.0102388
-0.2231445, 0.4887695, -0.9643555, 82.7439041, 79.2682953, 34.6951218, 0.0411231
-0.1977539, 0.4804688, -0.9765625, 82.4390259, 80.3658524, 34.6951218, 0.0897993
-0.1850586, 0.4541016, -0.9741211, 81.5243912, 83.3536606, 33.1707306, 0.0897993
-0.2080078, 0.4404297, -0.9672852, 81.4634171, 83.4756088, 32.2560997, 0.0438087
-0.2368164, 0.4560547, -0.9628906, 84.0243912, 82.8658524, 31.7682934, -0.0142672
-0.2363281, 0.4946289, -1.0356445, 85.3658524, 82.68293, 32.5609779, -0.0495155
-0.2319336, 0.5107422, -1.074707, 85.9756088, 83.9634171, 34.0243912, -0.0686503
-0.2382812, 0.5253906, -1.1113281, 84.5121994, 85.1219559, 33.7804871, -0.0666361
-0.2583008, 0.5224609, -1.1000977, 80.6097565, 86.0365906, 32.9878044, -0.0525368
-0.2783203, 0.5019531, -1.065918, 78.9024429, 84.0243912, 32.7439041, -0.0399481
-0.2700195, 0.4990234, -1.0454102, 79.0243912, 83.2317123, 33.0487823, -0.0323949
-0.2338867, 0.4833984, -1.0209961, 79.146347, 82.3780518, 33.7804871, -0.0236667
-0.2036133, 0.4633789, -1.0214844, 78.5365906, 82.6219559, 33.7804871, -0.0198062
-0.1777344, 0.4130859, -1.0322266, 77.9878082, 84.2682953, 32.9268303, -0.0176242
-0.1870117, 0.4042969, -1.0375977, 78.0487823, 85.18293, 32.8658562, -0.0162814
-0.2148438, 0.4443359, -1.0336914, 79.146347, 84.9390259, 33.6585388, -0.0142672
-0.2177734, 0.4824219, -1.034668, 79.7560959, 84.3292694, 33.9634171, -0.0216526
-0.2094727, 0.4770508, -1.0371094, 78.4756088, 83.8414688, 34.3902435, -0.0287022
-0.1918945, 0.440918, -1.0415039, 77.3780518, 84.5731735, 34.3902435, -0.0317235
-0.190918, 0.4233398, -1.0336914, 74.8780518, 86.8902435, 35.0609779, -0.0370947
-0.1772461, 0.4257812, -1.0273438, 74.2073212, 87.68293, 36.0365868, -0.0384375
-0.1674805, 0.4287109, -1.0297852, 74.2682953, 87.3170776, 36.5243912, -0.0203098
-0.1591797, 0.4335938, -1.0483398, 75.4878082, 86.4634171, 36.5243912, 0.0102388
-0.1606445, 0.4277344, -1.0473633, 75.6707306, 85.8536606, 35.6097565, 0.0199741
-0.1713867, 0.4155273, -1.0151367, 75.6707306, 85.1219559, 33.6585388, 0.0394446
-0.1791992, 0.40625, -1, 75.9146347, 84.5731735, 33.2317085, 0.0609293
-0.168457, 0.3862305, -1.015625, 77.4390259, 83.8414688, 33.5975609, 0.0763714
-0.1479492, 0.3808594, -1.0893555, 78.3536606, 84.2073212, 34.5731697, 0.0810712
-0.1450195, 0.3754883, -1.121582, 78.4756088, 85.9146347, 35.1829262, 0.0676432
-0.1948242, 0.3911133, -1.105957, 78.3536606, 86.7073212, 34.5731697, 0.0461585
-0.2568359, 0.4189453, -1.0585938, 79.0243912, 84.4512253, 34.3292694, 0.0213169
-0.2207031, 0.4438477, -1.0258789, 80.7926865, 74.0853653, 34.7560997, -0.0203098
-0.1743164, 0.4428711, -1.0219727, 81.2804871, 72.0731735, 34.0853653, -0.0525368
-0.0761719, 0.421875, -1.0087891, 80.6707306, 75.3658524, 34.2073174, -0.0572366
-0.0395508, 0.4033203, -1.0117188, 79.9390259, 78.4756088, 33.9024391, -0.0475013
-0.0302734, 0.3613281, -1.0229492, 78.8414688, 83.1707306, 32.3780479, -0.0381018
-0.0458984, 0.3496094, -1.0327148, 79.3292694, 83.6585388, 31.8292694, -0.0256809
-0.0854492, 0.3662109, -1.0668945, 80.6707306, 82.9878082, 31.1585369, -0.018967
-0.1430664, 0.3774414, -1.1020508, 80.5487823, 82.4390259, 30.060976, -0.0011749
-0.1679688, 0.3852539, -1.1044922, 80.0609741, 80.7926865, 29.2073174, 0.0139315
-0.1933594, 0.3959961, -1.1079102, 79.5121994, 80, 29.0243912, 0.0115816
-0.1894531, 0.3901367, -1.0947266, 78.9024429, 77.8658524, 29.8780499, 0.0011749
-0.1381836, 0.3867188, -1.0566406, 77.8658524, 75.8536606, 30.7926846, -0.0115816
-0.0991211, 0.3735352, -1.0454102, 77.5, 75.6097565, 30.9756107, -0.0203098
-0.0283203, 0.3491211, -1.0351562, 76.4024429, 77.8048782, 30.8536587, -0.0246738
-0.0073242, 0.3432617, -1.0361328, 75.8536606, 79.8170776, 30.7317085, -0.0260166
0.0004883, 0.3330078, -1.0483398, 74.6341476, 82.1951218, 29.4512196, -0.0287022
-0.0180664, 0.3266602, -1.0644531, 74.3902435, 82.5609741, 28.5975609, -0.0354162
-0.0722656, 0.3183594, -1.090332, 75.3048782, 82.5609741, 26.8292694, -0.0424659
-0.1264648, 0.3198242, -1.0732422, 75.7926865, 81.5243912, 26.2195129, -0.043473
-0.1420898, 0.3134766, -1.0454102, 76.1585388, 77.8048782, 25.1219521, -0.0303807
-0.1225586, 0.3022461, -1.0053711, 76.5243912, 76.4024429, 24.8780499, -0.0109102
-0.0932617, 0.3012695, -1.0126953, 78.2317123, 75.9146347, 27.0121956, 0.0179599
-0.0185547, 0.296875, -1.0688477, 78.2317123, 79.6951218, 28.5975609, 0.0448157
-0.0068359, 0.2978516, -1.0927734, 77.5609741, 82.3170776, 28.6585369, 0.0412909
-0.0375977, 0.3056641, -1.0966797, 75.1219559, 84.2073212, 27.3170738, 0.0250095
-0.0620117, 0.3115234, -1.081543, 74.7560959, 83.3536606, 26.4024391, 0.0018463
-0.0864258, 0.3295898, -1.065918, 75, 79.8780518, 26.3414631, -0.0186313
-0.0712891, 0.3325195, -1.0639648, 74.8170776, 78.9634171, 26.5243912, -0.0290379
-0.0185547, 0.3076172, -1.0727539, 72.8048782, 80.18293, 26.3414631, -0.0206455
-0.0078125, 0.2910156, -1.0776367, 71.4634171, 81.8292694, 26.2195129, 0.0381018
-0.0043945, 0.296875, -1.0883789, 69.8170776, 84.146347, 26.9512196, 0.0961776
-0.0068359, 0.3149414, -1.105957, 69.4512177, 85, 26.7682934, 0.0683146
-0.0161133, 0.3149414, -1.1142578, 68.1097565, 84.6341476, 25.8536587, 0.0226596
-0.0419922, 0.2885742, -1.1196289, 67.5609741, 82.9268341, 24.0243912, -0.0340734
-0.059082, 0.2675781, -1.1049805, 67.8048782, 81.646347, 22.8658543, -0.0743572
-0.0966797, 0.2421875, -1.0454102, 69.5121994, 78.2317123, 21.3414631, -0.051194
-0.1015625, 0.2363281, -1.019043, 70.4268341, 76.4634171, 21.7073174, -0.0062104
-0.0375977, 0.2421875, -1.0126953, 71.9512177, 75.7926865, 24.2073174, 0.0166171
0.0102539, 0.2421875, -1.0292969, 71.6463394, 77.6219559, 25.3658543, 0.0105745
0.081543, 0.2319336, -1.0561523, 69.7560959, 82.8658524, 26.5853672, -0.0159457
0.0703125, 0.21875, -1.0385742, 68.7195129, 85, 25.9756107, -0.0505226
0.0405273, 0.2163086, -1.0229492, 68.5365906, 85.5487823, 23.7195129, -0.0807355
0.0029297, 0.2080078, -1.0092773, 69.7560959, 84.3292694, 22.9878063, -0.100206
0.003418, 0.2001953, -1.0092773, 72.9878082, 81.8902435, 22.0731716, -0.1218585
0.012207, 0.1777344, -0.9814453, 73.7804871, 81.8292694, 21.1585369, -0.1418326
0.0170898, 0.1694336, -0.9741211, 73.8414688, 82.5, 21.2195129, -0.149218
0.0385742, 0.175293, -1.012207, 73.9634171, 85.6707306, 24.3902435, -0.145861
0.0561523, 0.1791992, -1.0454102, 74.0853653, 87.9878082, 25.6707325, -0.1495537
0.0585938, 0.1777344, -1.097168, 71.8902435, 91.3414688, 25.6097565, -0.1663386
0.0297852, 0.1796875, -1.0927734, 71.0365906, 91.2195129, 24.8780499, -0.1775845
-0.0219727, 0.2080078, -1.0732422, 71.5243912, 88.0487823, 24.7560978, -0.1760739
-0.0097656, 0.2382812, -1.0551758, 72.1341476, 85.7926865, 24.5731716, -0.1626459
0.0058594, 0.2338867, -1.0454102, 72.8048782, 83.5365906, 23.3536587, -0.1438468
0.0556641, 0.1777344, -1.0307617, 72.5609741, 83.2317123, 23.0487804, -0.1237049
0.0732422, 0.140625, -1.0332031, 71.8902435, 83.5975647, 22.7439022, -0.0908064
0.0844727, 0.1259766, -1.059082, 72.2560959, 86.1585388, 23.2926826, -0.051194
0.0771484, 0.1518555, -1.0820312, 72.9268341, 87.3170776, 24.0853672, -0.0149386
0.050293, 0.2084961, -1.1108398, 72.8048782, 88.5975647, 24.3902435, 0.0199741
0.0322266, 0.2207031, -1.1142578, 72.2560959, 88.3536606, 23.7195129, 0.0694896
0.0063477, 0.1982422, -1.1147461, 71.2195129, 86.0365906, 22.3780499, 0.1233692
0.0078125, 0.1782227, -1.1088867, 71.1585388, 84.3902435, 21.8292694, 0.1512322
0.0205078, 0.1347656, -1.0664062, 71.4634171, 82.0731735, 20.9756107, 0.1696956
0.0532227, 0.1186523, -0.9707031, 71.2804871, 81.2804871, 21.0365868, 0.1700313
0.0869141, 0.1181641, -0.9321289, 71.4024429, 80.6097565, 21.8902435, 0.2039368
0.1845703, 0.0893555, -0.9360352, 71.6463394, 81.646347, 22.9878063, 0.3207599
0.2255859, 0.0693359, -0.984375, 72.0121994, 87.3780518, 24.3292694, 0.3865568
0.2089844, 0.0654297, -1.0825195, 71.4634171, 95.4268341, 24.2682934, 0.3093462
0.1577148, 0.0859375, -1.1010742, 71.3414688, 97.5, 23.780489, 0.1710384
0.0410156, 0.1289062, -1.0864258, 70.7926865, 94.3902435, 22.5, 0.0522011
0.0004883, 0.1357422, -1.0678711, 70.9756088, 90.4878082, 22.1341476, -0.0307164
-0.0029297, 0.1015625, -1.0517578, 72.4390259, 84.146347, 22.3780499, -0.0767071
0.019043, 0.0727539, -1.0522461, 73.2317123, 82.8658524, 22.6829281, -0.0948348
0.0571289, 0.0458984, -1.0478516, 74.0243912, 83.7804871, 24.5731716, -0.1049058
0.1186523, 0.0849609, -1.0224609, 74.1463394, 84.2682953, 25.4268303, -0.1230335
0.1484375, 0.109375, -1.0219727, 73.4146347, 85.6707306, 27.4390259, -0.1441825
0.2021484, 0.1088867, -1.0615234, 72.4390259, 86.8902435, 28.3536587, -0.1579461
0.21875, 0.0830078, -1.081543, 70.2439041, 90.2439041, 28.0487804, -0.1633173
0.1889648, 0.0205078, -1.0605469, 69.6341476, 91.8292694, 25, -0.1592889
0.1450195, 0.0048828, -1.019043, 69.9390259, 90.6097565, 23.8414631, -0.1257191
0.1015625, 0.0053711, -0.934082, 73.9634171, 85.18293, 23.0487804, -0.0820783
0.1157227, 0.0063477, -0.9125977, 76.0365906, 83.2317123, 23.5365868, -0.0350805
0.1923828, -0.0048828, -0.9311523, 78.5975647, 83.8414688, 24.6951218, -0.021149
0.2299805, -0.0239258, -0.9624023, 78.7804871, 86.4024429, 25.3658543, -0.051194
0.2641602, -0.027832, -1.0517578, 78.3536606, 91.7682953, 27.1341476, -0.0911421
0.2275391, 0.0263672, -1.1206055, 77.9268341, 93.5365906, 27.4390259, -0.1230335
0.1904297, 0.0551758, -1.1289062, 77.3170776, 93.7804871, 27.1341476, -0.1532464
0.1157227, 0.0834961, -1.1147461, 76.4024429, 89.7560959, 25.1829281, -0.1928588
0.0917969, 0.065918, -1.0878906, 76.1585388, 87.0731735, 23.9634151, -0.2042725
0.0913086, 0.0219727, -1.0410156, 76.5853653, 81.3414688, 23.6585369, -0.1854734
0.121582, 0, -1.0288086, 76.8902435, 79.4512177, 24.5731716, -0.1743954
0.2055664, -0.0297852, -1.0317383, 77.4390259, 79.2073212, 26.0975609, -0.1837949
0.2416992, -0.0356445, -1.0400391, 77.0121994, 80.2439041, 26.4634151, -0.1613031
0.2597656, -0.034668, -1.0688477, 75.8536606, 82.1951218, 26.4024391, -0.1404898
0.2231445, -0.0014648, -1.0908203, 75.6707306, 82.6219559, 25.9756107, -0.1193408
0.1962891, 0.0302734, -1.090332, 75.1219559, 81.4634171, 25.3048782, -0.0822461
0.168457, 0.0566406, -1.0600586, 75.18293, 80.3048782, 25.1219521, -0.0558938
0.1708984, 0.043457, -1.0380859, 75.1219559, 77.1951218, 24.1463413, -0.0486763
0.1875, -0.0244141, -1.0219727, 74.9390259, 74.6341476, 23.2317085, -0.0498512
0.199707, -0.0507812, -1.0180664, 75.3658524, 73.7195129, 23.4146347, -0.0525368
0.2250977, -0.0688477, -1.0024414, 76.7073212, 73.1707306, 23.780489, -0.051194
0.2294922, -0.0610352, -0.980957, 76.7682953, 72.8048782, 23.0487804, -0.0498512
0.2270508, -0.027832, -0.9204102, 77.0731735, 71.5243912, 21.5243912, -0.0525368
0.2421875, -0.0219727, -0.9130859, 77.1951218, 70.5487823, 21.7682934, -0.0555581
0.3149414, -0.0415039, -0.9750977, 76.7073212, 70.2439041, 23.1097565, -0.0582437
0.3618164, -0.0668945, -1.0185547, 75.6097565, 71.6463394, 23.2317085, -0.0547189
0.3466797, -0.0654297, -1, 72.5609741, 75.1219559, 20.8536587, -0.0475013
0.2749023, -0.0297852, -0.9106445, 71.7073212, 75.3048782, 19.0243912, -0.0421302
0.2597656, -0.0195312, -0.8764648, 71.3414688, 72.5, 18.2926826, -0.0340734
0.3066406, -0.0532227, -0.8867188, 72.0121994, 71.4024429, 18.1097565, -0.0283665
0.3330078, -0.0893555, -0.9165039, 71.8902435, 72.1951218, 18.0487804, -0.0290379
0.3623047, -0.1220703, -0.9492188, 71.5853653, 75.5487823, 16.7682934, -0.0260166
0.3525391, -0.1113281, -0.9550781, 71.7073212, 76.2804871, 16.5243912, -0.0223239
0.2993164, -0.0737305, -0.9692383, 72.3170776, 75.9146347, 16.5853653, -0.0139315
0.2763672, -0.0620117, -0.9736328, 72.6219559, 75.8536606, 16.4024391, -0.0063783
0.2456055, -0.0942383, -0.949707, 72.8048782, 75.7926865, 15.4878054, 0.0092317
0.2163086, -0.137207, -0.9072266, 73.2926865, 74.8780518, 14.6341467, 0.0231632
0.2236328, -0.1455078, -0.8945312, 75.18293, 71.4024429, 15.7926836, 0.0414588
0.2832031, -0.1245117, -0.9189453, 76.2804871, 70.3048782, 17.1341476, 0.0532082
0.3193359, -0.1069336, -0.9487305, 77.3780518, 71.7073212, 19.939024, 0.0565652
0.347168, -0.0864258, -1.0141602, 75.6097565, 75.8536606, 20.4878044, 0.0542153
0.3354492, -0.0786133, -1.0336914, 74.3902435, 77.3780518, 20.1829281, 0.0501869
0.2734375, -0.0805664, -1.0375977, 72.3780518, 76.646347, 19.0243912, 0.0459907
0.2460938, -0.0927734, -1.0258789, 71.8902435, 74.2073212, 18.2317085, 0.0387732
0.2114258, -0.1171875, -1.0102539, 72.5609741, 67.5609741, 17.1341476, 0.0347448
0.2070312, -0.1176758, -1.0048828, 73.2926865, 64.6951218, 17.3780499, 0.0287022
0.2363281, -0.1103516, -0.9975586, 74.1463394, 61.0365868, 18.1097565, 0.0260166
0.2832031, -0.097168, -0.9633789, 73.2926865, 59.8780518, 18.6585369, 0.0276951
0.3144531, -0.1010742, -0.9287109, 70.2439041, 59.0243912, 18.780489, 0.0250095
0.3710938, -0.1264648, -0.8110352, 68.9024429, 58.6585388, 17.9878044, 0.0226596
0.4008789, -0.1538086, -0.7612305, 67.7439041, 57.1951218, 16.7682934, 0.0194705
0.4912109, -0.2353516, -0.7573242, 68.7804871, 57.1951218, 17.2560978, -0.0119173
0.5219727, -0.2802734, -0.7924805, 70.18293, 59.2682953, 17.5, -0.0260166
0.5004883, -0.2944336, -0.8701172, 71.9512177, 66.5243912, 16.3414631, -0.0179599
0.4482422, -0.2568359, -0.8823242, 72.9878082, 68.7804871, 15.6097565, -0.002182
0.3291016, -0.1713867, -0.8710938, 73.6585388, 67.3170776, 15.1829271, 0.0172885
0.2963867, -0.137207, -0.8500977, 73.5365906, 64.2073212, 14.9390249, 0.0320592
0.2954102, -0.137207, -0.7998047, 73.6585388, 58.7804909, 13.7195129, 0.0508583
0.3530273, -0.2041016, -0.7470703, 73.7804871, 56.9512215, 13.5365858, 0.0679789
0.3930664, -0.2426758, -0.7495117, 74.6341476, 56.9512215, 14.6951227, 0.0693217
0.4711914, -0.2797852, -0.7973633, 75.0609741, 58.1707344, 16.6463413, 0.068986
0.4907227, -0.2714844, -0.8256836, 75.0609741, 63.9024391, 19.0853672, 0.0666361
0.4711914, -0.2333984, -0.8574219, 74.0853653, 70, 19.3292694, 0.0830854
0.4350586, -0.2192383, -0.8554688, 73.2317123, 71.4024429, 18.5975609, 0.1109483
0.359375, -0.2207031, -0.8261719, 73.2317123, 68.4756088, 16.4634151, 0.1211872
0.3310547, -0.2285156, -0.8134766, 74.4512177, 65.9756088, 15.7926836, 0.1287404
0.3164062, -0.2485352, -0.8154297, 76.8902435, 61.4024391, 15.1829271, 0.1169909
0.3242188, -0.2480469, -0.8374023, 77.68293, 60.3048782, 16.3414631, 0.0844282
0.3549805, -0.2001953, -0.9135742, 76.7682953, 61.5243912, 19.3292694, 0.0522011
0.3920898, -0.1269531, -0.9790039, 74.6951218, 63.2926826, 20.8536587, 0.0246738
0.40625, -0.1044922, -0.9814453, 68.0487823, 66.4024429, 21.4634151, 0.0005035
0.4003906, -0.1254883, -0.9335938, 64.2682953, 65.7926865, 20.4268303, -0.0125887
0.3999023, -0.1635742, -0.8959961, 60.1219521, 60.7926826, 17.3780499, -0.0052033
0.3886719, -0.2363281, -0.8393555, 60.8536606, 55.3048782, 14.4512196, 0.0028534
0.3803711, -0.2480469, -0.8227539, 62.3780518, 53.4756126, 13.9024391, -0.0062104
0.3793945, -0.253418, -0.8168945, 64.4512177, 51.8902435, 14.0243902, -0.0276951
0.3876953, -0.2460938, -0.8222656, 64.6951218, 51.8902435, 14.3292685, -0.0473335
0.3989258, -0.2451172, -0.7963867, 63.5975609, 52.3170738, 14.1463413, -0.0626078
0.40625, -0.237793, -0.7573242, 63.1707344, 52.0121956, 13.6585369, -0.0760357
0.4384766, -0.2358398, -0.6767578, 62.5, 50.1829262, 12.8048782, -0.0746929
0.5083008, -0.2675781, -0.6738281, 62.8048782, 49.5121956, 12.8048782, -0.0475013
0.5458984, -0.2910156, -0.7026367, 63.5975609, 52.6829262, 14.2073174, -0.0229953
0.5664062, -0.3266602, -0.7382812, 63.4146347, 55.6707344, 14.1463413, -0.0162814
0.5361328, -0.3305664, -0.7373047, 62.9878082, 61.0975609, 12.4390249, -0.0172885
0.4492188, -0.3066406, -0.7158203, 63.9634171, 60, 11.341464, -0.0176242
0.4223633, -0.2958984, -0.7158203, 65, 58.1707344, 11.219512, -0.0193027
0.4052734, -0.2827148, -0.7387695, 66.9512177, 55.18293, 11.0975609, -0.0283665
0.4116211, -0.2817383, -0.7299805, 67.1341476, 54.0853653, 10.6707315, -0.0453193
0.4238281, -0.2875977, -0.684082, 66.3414612, 51.9512215, 9.8780489, -0.0535439
0.4331055, -0.2983398, -0.6777344, 66.5243912, 50.9146347, 10, -0.0543832
0.4677734, -0.3110352, -0.7319336, 67.3170776, 51.7073174, 12.560976, -0.0515297
0.4951172, -0.2885742, -0.8266602, 66.8902435, 53.5975609, 13.841464, -0.0538796
0.4838867, -0.2734375, -0.8588867, 63.9634171, 57.7439041, 14.6341467, -0.0505226
0.4287109, -0.2421875, -0.8129883, 61.7682953, 58.3536606, 13.9634151, -0.0359197
0.4042969, -0.2333984, -0.7490234, 57.6219521, 52.9268303, 11.4634151, -0.0109102
0.4169922, -0.2573242, -0.6166992, 57.3780518, 44.3902435, 9.2682924, 0.0031891
0.4501953, -0.3032227, -0.5908203, 58.2317085, 41.7682953, 8.841464, 0.0016785
0.5224609, -0.3935547, -0.6401367, 61.1585388, 43.1097565, 9.3292685, -0.0070497
0.5449219, -0.4160156, -0.6826172, 62.4390259, 46.4634171, 10.060976, -0.0219883
0.5341797, -0.378418, -0.7133789, 63.2926826, 52.0731735, 11.0365858, -0.0364233
0.5053711, -0.3378906, -0.7026367, 62.68293, 52.8658562, 10.8536587, -0.0414588
0.4672852, -0.2739258, -0.6728516, 61.8292694, 50, 10.2439022, -0.0412909
0.4755859, -0.2875977, -0.6645508, 61.7073174, 48.4756126, 10, -0.0407874
0.4838867, -0.3178711, -0.6601562, 61.1585388, 47.3170738, 8.3536587, -0.0370947
0.4785156, -0.3793945, -0.6542969, 61.0975609, 47.5, 7.6829271, -0.0112459
0.4716797, -0.3959961, -0.6601562, 61.9512215, 46.4634171, 7.5609756, 0.0555581
0.4736328, -0.3886719, -0.7114258, 64.0243912, 45.5487823, 9.7560978, 0.0773785
0.4707031, -0.3701172, -0.7421875, 64.1463394, 45.4878044, 10.6707315, 0.0448157
0.4545898, -0.3295898, -0.7729492, 62.68293, 45.7926826, 11.4024391, -0.0001678
0.4350586, -0.3134766, -0.7597656, 61.0975609, 44.7560997, 11.1585369, -0.0062104
0.4077148, -0.3071289, -0.7202148, 58.9634171, 40.1219521, 10.3658543, 0.0092317
0.4077148, -0.3208008, -0.715332, 58.7804909, 37.5, 10.4878054, -0.0151064
0.4316406, -0.3554688, -0.7241211, 57.5, 34.5731697, 10.3658543, -0.0495155
0.4516602, -0.3701172, -0.7075195, 56.8902435, 34.0853653, 10.4878054, -0.0814069
0.4589844, -0.3623047, -0.6865234, 53.7804909, 32.6829262, 11.0975609, -0.1079271
0.4921875, -0.3554688, -0.6474609, 52.5609779, 31.7682934, 11.8292685, -0.1290761
0.512207, -0.362793, -0.6416016, 50.2439041, 30.2439022, 12.560976, -0.1344472
0.5361328, -0.3847656, -0.625, 48.9634171, 30.6707325, 11.7073174, -0.1317617
0.5395508, -0.3950195, -0.6069336, 48.5975609, 30.6097565, 10.9756098, -0.1304189
0.5322266, -0.4047852, -0.5322266, 47.7439041, 29.4512196, 9.2682924, -0.1351186
0.5336914, -0.409668, -0.5078125, 48.2926826, 27.8658543, 8.719512, -0.1277333
0.5541992, -0.4121094, -0.5205078, 49.6341476, 26.7073174, 9.6951218, -0.1163195
0.5771484, -0.4057617, -0.5507812, 49.8170738, 27.6219521, 10.3658543, -0.0995346
0.5986328, -0.3876953, -0.6064453, 48.1707344, 31.8902454, 10.6707315, -0.090135
0.5600586, -0.375, -0.6225586, 47.0731735, 33.0487823, 10.060976, -0.0800641
0.5395508, -0.355957, -0.6157227, 44.0243912, 32.5, 8.719512, -0.0726787
0.519043, -0.331543, -0.5952148, 43.3536606, 31.1585369, 7.8658538, -0.0641184
0.5195312, -0.3393555, -0.5947266, 42.0731735, 28.1097565, 6.4024391, -0.0548867
0.5195312, -0.378418, -0.6054688, 41.5853653, 26.2195129, 5.1219511, -0.0518654
0.515625, -0.3999023, -0.6142578, 41.6463432, 25.6707325, 4.3292685, -0.0441444
0.5043945, -0.3950195, -0.6191406, 41.4024391, 24.5121956, 3.4756098, -0.0330663
0.4980469, -0.3808594, -0.6108398, 41.0365868, 24.3902435, 3.2926829, -0.018967
0.4936523, -0.3549805, -0.5820312, 39.4512215, 21.8902435, 2.195122, 0.0142672
0.4995117, -0.3588867, -0.5727539, 38.5975609, 21.0365868, 2.0121951, 0.0381018
0.5229492, -0.3901367, -0.565918, 37.2560997, 19.6341476, 1.7682927, 0.0364233
0.5249023, -0.4379883, -0.5585938, 36.7073174, 19.939024, 1.2195122, 0.0377661
0.5185547, -0.4501953, -0.5629883, 37.2560997, 20.2439022, 0.6097561, 0.0340734
0.5009766, -0.4243164, -0.5922852, 38.2317085, 20, 1.1585366, 0.0320592
0.4956055, -0.3989258, -0.6049805, 38.9024391, 19.5121956, 2.6219513, 0.0488441
0.4960938, -0.3681641, -0.6049805, 36.7682953, 18.2317085, 1.9512196, 0.0654612
0.4853516, -0.3764648, -0.5981445, 35.5487823, 17.0731716, 1.2804878, 0.0683146
0.4726562, -0.4106445, -0.5996094, 35.0609779, 13.780488, 0.6707317, 0.0750286
0.4692383, -0.421875, -0.6010742, 35, 12.3780489, 0.8536586, 0.0800641
0.4755859, -0.4208984, -0.6000977, 34.3292694, 10.2439022, 1.3414634, 0.068986
0.4765625, -0.3994141, -0.6005859, 33.7804871, 9.1463413, 1.7073171, 0.0454871
0.5004883, -0.3574219, -0.6210938, 30.6097565, 8.841464, 3.7195122, 0.0186313
0.5273438, -0.3569336, -0.625, 28.7195129, 9.2073174, 4.3292685, -0.033402
0.5268555, -0.3818359, -0.6166992, 24.0243912, 9.7560978, 3.2926829, -0.0840925
0.5117188, -0.4150391, -0.5942383, 23.1707325, 8.5365858, 2.6219513, -0.0971847
0.5073242, -0.4057617, -0.590332, 22.1951218, 4.2682929, 2.195122, -0.096849
0.5273438, -0.3764648, -0.5756836, 20, 2.1341465, 2.804878, -0.061265
0.5361328, -0.3740234, -0.5546875, 18.2317085, 2.0121951, 2.3170731, -0.0162814
0.5527344, -0.4091797, -0.4785156, 14.5731707, 0.8536586, 0.9146342, -0.0256809
0.559082, -0.4384766, -0.4399414, 13.6585369, -0.3048781, 0.1829268, -0.0538796
0.5800781, -0.4707031, -0.4023438, 14.0853662, -0.3048781, 0.4268293, -0.0844282
0.6044922, -0.4707031, -0.4091797, 14.7560978, 0.7317073, 0.6097561, -0.1116197
0.6396484, -0.4477539, -0.4482422, 13.780488, 3.5365853, 1.9512196, -0.1279011
0.6582031, -0.4291992, -0.4931641, 12.7439032, 5.4878049, 2.0731707, -0.1237049
0.644043, -0.4296875, -0.5063477, 10.060976, 8.1097565, 0.9756098, -0.1149767
0.5844727, -0.4472656, -0.5117188, 9.2682924, 8.5365858, 0, -0.1129625
0.5498047, -0.4526367, -0.503418, 8.6585369, 6.5243902, -2.0731707, -0.1089342
0.4975586, -0.4355469, -0.4887695, 8.9024391, 2.9878049, -2.2560976, -0.0991989
0.4882812, -0.4243164, -0.4819336, 8.780488, 1.7073171, -1.9512196, -0.0835889
0.5019531, -0.4199219, -0.4614258, 8.2317076, -0.1219512, -1.4634147, -0.0669718
0.5141602, -0.4370117, -0.4526367, 7.5, -0.7317073, -1.402439, -0.0740215
0.5292969, -0.4770508, -0.4707031, 8.5365858, -1.5853659, -1.4634147, -0.0928206
0.5361328, -0.4833984, -0.4819336, 9.3292685, -1.7682927, -1.0365853, -0.0820783
0.5405273, -0.4516602, -0.5048828, 10.1829271, -2.0121951, 0, -0.054551
0.5478516, -0.4140625, -0.4975586, 9.5121956, -2.2560976, 0.1829268, -0.0313878
0.5454102, -0.4116211, -0.487793, 7.7439027, -3.1097562, -0.4878049, -0.0099031
0.5439453, -0.4311523, -0.4765625, 6.3414636, -5.3048782, -1.3414634, 0.0146029
0.543457, -0.4462891, -0.4643555, 5.9146342, -6.6463418, -1.8292683, 0.04448
0.5439453, -0.4609375, -0.4267578, 5.670732, -9.1463413, -2.9878049, 0.0867781
0.5454102, -0.4643555, -0.4135742, 5.3658538, -10.060976, -3.3536587, 0.1250477
0.5644531, -0.4628906, -0.4394531, 6.0975609, -10.5487804, -2.8658538, 0.1438468
0.5751953, -0.4555664, -0.4775391, 5.7317076, -9.8170738, -2.4390244, 0.1300832
0.5893555, -0.4316406, -0.5463867, 2.9878049, -6.7682929, -1.2195122, 0.1064164
0.5644531, -0.4008789, -0.5043945, 0.5487805, -5.8536587, -1.2804878, 0.0763714
0.5571289, -0.3925781, -0.4555664, -4.4512196, -8.841464, -2.9878049, 0.0528725
0.5761719, -0.4169922, -0.4091797, -5.2439027, -11.7073174, -4.1463413, 0.0397803
0.5888672, -0.4423828, -0.4291992, -4.5731707, -14.3902445, -5.7317076, 0.026688
0.581543, -0.4702148, -0.5322266, -3.5365853, -12.560976, -5.4268293, -0.0203098
0.5678711, -0.4560547, -0.5703125, -4.6341462, -11.0975609, -4.9390244, -0.0543832
0.5454102, -0.4106445, -0.5541992, -10.060976, -11.1585369, -4.2682929, -0.0535439
0.53125, -0.4091797, -0.5024414, -13.1707315, -12.8048782, -5.2439027, -0.0171206
0.5283203, -0.4291992, -0.3911133, -16.280489, -17.1951218, -7.0121951, -0.0008392
0.5385742, -0.4487305, -0.3725586, -16.0365849, -18.9024391, -7.1341467, -0.0052033
0.5986328, -0.4799805, -0.4223633, -14.3292685, -18.0487804, -5.5487804, -0.0095674
0.6264648, -0.4931641, -0.4755859, -14.6341467, -15.9756098, -4.8780489, -0.0135958
0.6132812, -0.4829102, -0.4677734, -17.439024, -12.6829271, -4.5121951, -0.0248417
0.5786133, -0.4584961, -0.4199219, -18.8414631, -12.9878054, -4.390244, -0.0485084
0.5727539, -0.4604492, -0.4067383, -19.8170738, -15.6707325, -4.7560978, -0.0666361
0.5732422, -0.4804688, -0.4287109, -18.1707325, -18.1097565, -5.9756098, -0.0807355
0.5698242, -0.487793, -0.4511719, -17.6829281, -18.1707325, -5.8536587, -0.0928206
0.5473633, -0.4853516, -0.4951172, -17.9268303, -18.3536587, -4.7560978, -0.0963455
0.5395508, -0.4750977, -0.5166016, -18.1097565, -18.7195129, -3.8414636, -0.0938277
0.5341797, -0.449707, -0.5405273, -20.1829281, -20.4268303, -2.2560976, -0.090135
0.5356445, -0.4375, -0.5219727, -21.280489, -21.8292694, -2.3780489, -0.0948348
0.5478516, -0.4311523, -0.4492188, -23.7195129, -25, -3.4146342, -0.0834211
0.5869141, -0.4609375, -0.3916016, -23.9634151, -26.4634151, -4.1463413, -0.0659648
0.6054688, -0.4819336, -0.3930664, -22.8658543, -27.9268303, -5.2439027, -0.0495155
0.6420898, -0.5043945, -0.4418945, -22.1951218, -27.6829281, -4.8780489, -0.0297093
0.6445312, -0.4956055, -0.4619141, -22.3780499, -24.1463413, -3.7195122, -0.0317235
0.6210938, -0.4624023, -0.46875, -25, -21.5853672, -2.9878049, -0.0364233
0.6035156, -0.449707, -0.4667969, -26.3414631, -21.6463413, -2.5609756, -0.0411231
0.5859375, -0.4389648, -0.4755859, -29.3902454, -22.6829281, -2.5609756, -0.0411231
0.5761719, -0.4414062, -0.4790039, -30.3658543, -23.1707325, -2.6219513, -0.0310521
0.5693359, -0.4467773, -0.4750977, -32.5, -24.1463413, -3.7195122, -0.0243381
0.5678711, -0.4462891, -0.4726562, -33.9024391, -24.4512196, -3.7804878, 0.0119173
0.5859375, -0.4316406, -0.4785156, -36.1585388, -25, -3.4146342, 0.093492
0.6064453, -0.4125977, -0.4970703, -37.1341476, -24.8780499, -2.7439024, 0.1660029
0.6186523, -0.4106445, -0.5043945, -40.7317085, -23.5975609, -1.9512196, 0.2274357
0.6166992, -0.4521484, -0.5, -42.9878044, -22.8048782, -2.3780489, 0.2123293
0.6025391, -0.4746094, -0.4902344, -45.8536606, -23.5975609, -3.7195122, 0.2307927
0.5634766, -0.4936523, -0.4741211, -45.5487823, -26.8292694, -4.5731707, 0.2287785
0.5546875, -0.4853516, -0.4682617, -44.6951218, -28.841465, -4.8780489, 0.1945373
0.543457, -0.4516602, -0.4516602, -45.1219521, -30.7926846, -5.3658538, 0.1230335
0.5449219, -0.4311523, -0.4526367, -45.6707344, -31.2195129, -5.1829271, 0.0441444
0.559082, -0.4257812, -0.5043945, -46.6463432, -30.5487804, -4.1463413, -0.0099031
0.5678711, -0.4262695, -0.5454102, -47.6219521, -29.4512196, -3.6585367, -0.0468299
0.5708008, -0.418457, -0.5771484, -51.0365868, -28.4146347, -2.6829269, -0.0716716
0.5649414, -0.4106445, -0.5078125, -53.7195129, -28.7195129, -2.9268293, -0.0975204
0.559082, -0.4204102, -0.4604492, -57.5, -31.9512196, -4.4512196, -0.114641
0.5732422, -0.4614258, -0.4301758, -58.0487823, -34.0853653, -5.2439027, -0.1205158
0.5859375, -0.4770508, -0.449707, -56.0975609, -35.6707344, -5.4878049, -0.1230335
0.6005859, -0.4780273, -0.515625, -55.1219521, -34.2682953, -3.9634147, -0.1237049
0.597168, -0.4741211, -0.5322266, -56.341465, -33.3536606, -3.5975611, -0.1153124
0.5698242, -0.4677734, -0.5058594, -59.9390259, -33.9634171, -3.9024391, -0.1183337
0.5537109, -0.4716797, -0.4814453, -60.8536606, -35.7317085, -4.5731707, -0.1299153
0.5356445, -0.472168, -0.4770508, -59.4512215, -40.3048782, -4.6951222, -0.1374685
0.543457, -0.465332, -0.487793, -57.9268303, -41.5243912, -4.2073174, -0.1404898
0.5532227, -0.4487305, -0.5043945, -57.9268303, -41.8292694, -4.2682929, -0.1428397
0.5449219, -0.4375, -0.4926758, -58.9634171, -41.2804871, -4.2682929, -0.1411612
0.5473633, -0.4360352, -0.4902344, -61.4024391, -40.7926826, -3.4146342, -0.1351186
0.5605469, -0.4404297, -0.4985352, -61.9512215, -40.6097565, -3.1707318, -0.1190051
0.5610352, -0.4492188, -0.5170898, -62.3780518, -40.3658562, -3.1097562, -0.0921492
0.550293, -0.4550781, -0.5581055, -62.0121956, -41.2195129, -3.5975611, -0.0619364
0.5405273, -0.453125, -0.5742188, -62.0121956, -42.6219521, -4.0243902, -0.0330663
0.5185547, -0.4433594, -0.5844727, -62.1951218, -46.341465, -4.8170733, -0.0243381
0.5097656, -0.4321289, -0.5742188, -62.3170738, -47.7439041, -5.4268293, -0.0370947
0.5043945, -0.4082031, -0.5341797, -62.9878082, -50.0609779, -5.609756, -0.057908
0.5117188, -0.390625, -0.5146484, -63.4756126, -50.6097565, -5.4268293, -0.0753643
0.5366211, -0.3759766, -0.5234375, -63.6585388, -49.3292694, -4.2682929, -0.0827497
0.5644531, -0.3867188, -0.5800781, -64.2682953, -48.1707344, -3.3536587, -0.0944991
0.5737305, -0.3984375, -0.6074219, -66.5243912, -44.7560997, -1.9512196, -0.1067521
0.5629883, -0.4316406, -0.6499023, -68.5365906, -43.6585388, -1.8902439, -0.1307546
0.5424805, -0.4379883, -0.6689453, -71.7073212, -44.5731735, -1.8902439, -0.1512322
0.5087891, -0.4155273, -0.6884766, -74.0243912, -47.1951218, -1.8902439, -0.1317617
0.4956055, -0.3959961, -0.6879883, -74.6341476, -48.2317085, -1.6463414, -0.0906386
0.4726562, -0.3637695, -0.6611328, -76.7073212, -51.2804909, -2.0731707, -0.0552224
0.4716797, -0.3574219, -0.6333008, -77.8048782, -52.9878044, -2.3780489, -0.0213169
0.4731445, -0.3847656, -0.5947266, -79.146347, -55.7317085, -3.1097562, 0.0099031
0.4760742, -0.4135742, -0.5961914, -78.9024429, -56.2804909, -3.4756098, 0.0320592
0.4853516, -0.4555664, -0.6303711, -76.646347, -57.0731735, -2.5, 0.0464942
0.4892578, -0.4438477, -0.6591797, -75.8536606, -57.3780518, -1.9512196, 0.051194
0.487793, -0.4160156, -0.6611328, -76.646347, -57.0121956, 0.0609756, 0.0428016
0.4990234, -0.3598633, -0.6650391, -77.7439041, -57.0731735, 1.0365853, 0.0387732
0.5078125, -0.3540039, -0.6791992, -80.4268341, -57.9268303, 2.0731707, 0.0407874
0.5151367, -0.3754883, -0.703125, -82.0731735, -58.0487823, 1.8902439, 0.036759
0.5117188, -0.3852539, -0.6953125, -82.6219559, -58.0487823, 1.1585366, 0.0317235
0.4853516, -0.3896484, -0.6152344, -83.5365906, -60.0609779, -0.8536586, 0.021149
0.4824219, -0.3886719, -0.5688477, -83.7804871, -61.8902435, -1.4634147, 0.0105745
0.5068359, -0.4121094, -0.5102539, -81.4024429, -64.6951218, -1.1585366, 0.0052033
0.5415039, -0.4208984, -0.5073242, -80, -64.5121994, -1.1585366, -0.0031891
0.5874023, -0.4277344, -0.550293, -76.8292694, -61.6463432, -0.9146342, -0.0065461
0.6005859, -0.40625, -0.5888672, -76.1585388, -59.0853691, -1.2195122, -0.0095674
0.5947266, -0.3886719, -0.5908203, -76.4634171, -55.3658562, -1.7073171, -0.0139315
0.5917969, -0.347168, -0.5664062, -77.1951218, -54.0853653, -2.195122, 0.0062104
0.5883789, -0.331543, -0.5537109, -79.0853653, -52.2560997, -3.9634147, 0.0582437
0.5942383, -0.3120117, -0.5356445, -80.18293, -49.4512215, -6.8292685, 0.0622721
0.5888672, -0.3149414, -0.5620117, -80.0609741, -47.6829262, -7.9878049, 0.0407874
0.5644531, -0.3208008, -0.7119141, -78.7195129, -44.6341476, -7.5, 0.0119173
0.5385742, -0.3271484, -0.8203125, -78.1707306, -43.7804871, -6.2195125, -0.0149386
0.4746094, -0.3198242, -0.9765625, -81.7682953, -43.4146347, -4.5121951, -0.0310521
0.4291992, -0.3105469, -0.9853516, -85.8536606, -44.5121956, -5.1219511, -0.0374304
0.3149414, -0.3076172, -0.8862305, -94.8780518, -51.7073174, -7.3780489, -0.0485084
0.2495117, -0.3496094, -0.7651367, -97.3170776, -57.6219521, -7.8658538, -0.047837
0.2519531, -0.3774414, -0.7285156, -95, -70.0609741, -6.280488, -0.0491798
0.3193359, -0.3740234, -0.7104492, -91.646347, -73.9634171, -5.1829271, -0.0464942
0.3608398, -0.3496094, -0.7202148, -86.5243912, -76.1585388, -2.1341465, -0.0159457
0.4472656, -0.2827148, -0.7402344, -86.5243912, -72.68293, 1.2804878, 0.0078889
0.484375, -0.2607422, -0.7573242, -88.2317123, -70.18293, 2.7439024, 0.0307164
0.5351562, -0.2797852, -0.815918, -91.9512253, -65.9146347, 4.3292685, 0.0780499
0.5424805, -0.3144531, -0.8344727, -93.5365906, -64.6951218, 3.8414636, 0.111284
0.5136719, -0.3520508, -0.8232422, -95.18293, -65.3048782, 1.2195122, 0.1502251
0.4848633, -0.3486328, -0.7924805, -95.3048782, -66.7682953, -0.7317073, 0.2019226
0.4248047, -0.3125, -0.7490234, -93.7804871, -71.4024429, -2.1341465, 0.2267643
0.4174805, -0.2783203, -0.7705078, -91.9512253, -73.3536606, -2.195122, 0.2170291
0.4272461, -0.2734375, -0.7929688, -88.5975647, -74.5731735, -2.195122, 0.1864805
0.4458008, -0.2802734, -0.8037109, -88.5365906, -74.2073212, -2.4390244, 0.1461967
0.4487305, -0.2856445, -0.7792969, -90.1219559, -73.3536606, -5.0609756, 0.0938277
0.4584961, -0.2851562, -0.7026367, -91.5243912, -73.4756088, -6.280488, 0.0407874
0.4799805, -0.2817383, -0.6728516, -90.9146347, -73.7804871, -6.4024391, -0.0162814
0.5419922, -0.2827148, -0.6508789, -89.146347, -72.8658524, -6.6463418, -0.0599222
0.5761719, -0.2861328, -0.6557617, -88.5975647, -71.1585388, -6.890244, -0.0975204
0.6191406, -0.2954102, -0.6694336, -89.0243912, -66.8292694, -7.6219516, -0.1232013
0.6274414, -0.293457, -0.6757812, -89.8170776, -64.6341476, -8.1707315, -0.1320974
0.6176758, -0.296875, -0.6987305, -91.0365906, -60.4268303, -9.6341467, -0.140322
0.565918, -0.3037109, -0.7519531, -90.8536606, -58.9634171, -10.6097565, -0.1411612
0.5288086, -0.3022461, -0.7875977, -89.9390259, -57.68293, -11.341464, -0.1465324
0.4404297, -0.2885742, -0.8881836, -89.5121994, -57.9268303, -11.6463413, -0.1495537
0.3989258, -0.2729492, -0.9282227, -89.3902435, -60.18293, -10.4268293, -0.1629816
0.3183594, -0.2397461, -0.9619141, -91.7682953, -63.4756126, -9.0853662, -0.1883268
0.293457, -0.2231445, -0.953125, -93.2926865, -65.5487823, -8.780488, -0.1965515
0.2700195, -0.2080078, -0.925293, -97.3170776, -71.3414688, -7.3170733, -0.1649958
0.2753906, -0.2080078, -0.9106445, -98.4146347, -74.2682953, -6.2195125, -0.1351186
0.3208008, -0.2089844, -0.8935547, -99.0853653, -77.3780518, -3.6585367, -0.1440146
0.3530273, -0.2109375, -0.8891602, -98.7804871, -77.8658524, -2.9268293, -0.1795987
0.40625, -0.2026367, -0.8876953, -98.7804871, -77.8048782, -2.4390244, -0.1911803
0.4360352, -0.2246094, -0.909668, -98.9024429, -78.0487823, -2.6219513, -0.2010834
0.4335938, -0.2451172, -0.9243164, -99.0243912, -79.0243912, -3.7804878, -0.1898375
0.4125977, -0.2607422, -0.9282227, -98.4146347, -79.5731735, -4.8780489, -0.1639887
0.3930664, -0.2431641, -0.9003906, -97.7439041, -82.1341476, -7.0731707, -0.1381399
0.3623047, -0.1948242, -0.8012695, -96.8902435, -85.4268341, -8.1097565, -0.1079271
0.3720703, -0.1821289, -0.7524414, -96.4024429, -86.7073212, -7.9268293, -0.0807355
0.421875, -0.1772461, -0.7211914, -93.8414688, -86.646347, -7.1341467, -0.0592508
0.4589844, -0.1889648, -0.7456055, -92.1951218, -84.6951218, -6.4634147, -0.0458228
0.5126953, -0.2055664, -0.8413086, -90.3048782, -78.9634171, -5.9146342, -0.0350805
0.5195312, -0.1977539, -0.8964844, -90.8536606, -75.9756088, -5.670732, -0.01561
0.4921875, -0.1782227, -0.9477539, -94.5731735, -73.4756088, -6.8292685, 0.0072175
0.4536133, -0.1298828, -0.9082031, -97.2561035, -73.9024429, -8.2317076, 0.0253452
0.4389648, -0.1098633, -0.8652344, -100.7317123, -76.646347, -11.280488, 0.0387732
0.421875, -0.1010742, -0.7915039, -101.5853653, -77.5, -13.2317076, 0.0589151
0.4223633, -0.1132812, -0.777832, -101.9512253, -77.2560959, -16.4634151, 0.0629435
0.4321289, -0.1601562, -0.8227539, -100.7317123, -73.5975647, -16.5853653, 0.0683146
0.4316406, -0.1835938, -0.8647461, -100.0609818, -71.5853653, -15.7926836, 0.0669718
0.3994141, -0.230957, -0.9790039, -97.0731735, -70.3658524, -14.1463413, 0.0569009
0.3720703, -0.237793, -1.0380859, -95.2439041, -71.8902435, -13.6585369, 0.0481727
0.2900391, -0.2182617, -1.0991211, -93.5975647, -78.6585388, -14.2073174, 0.0877852
0.2480469, -0.2041016, -1.0839844, -93.7804871, -83.6585388, -15.6707325, 0.0988632
0.1772461, -0.1577148, -0.9731445, -93.8414688, -95.0609741, -18.9634151, 0.072343
0.1757812, -0.0986328, -0.8491211, -92.1951218, -99.8780518, -19.0853672, 0.036759
0.2167969, -0.0791016, -0.8110352, -86.4634171, -104.3902435, -15.9756098, 0.0020142
0.3427734, -0.0893555, -0.8144531, -83.9024429, -103.0487823, -13.7195129, -0.0135958
0.4057617, -0.1113281, -0.8330078, -82.9878082, -95.5487823, -10.7317076, -0.0095674
0.4951172, -0.1777344, -0.8867188, -86.8292694, -86.7073212, -9.0243902, -0.0142672
0.5146484, -0.1958008, -0.9199219, -89.0853653, -83.0487823, -7.8048782, -0.0191348
0.5131836, -0.1889648, -0.9848633, -91.646347, -79.6951218, -6.4024391, -0.0203098
0.4916992, -0.1542969, -1.0092773, -92.3780518, -79.5121994, -6.9512196, -0.0132601
0.4169922, -0.0571289, -1.027832, -94.4512253, -82.2560959, -10.3048782, 0.0008392
0.3691406, -0.0112305, -1.0234375, -95.4878082, -84.0853653, -12.6219511, 0.0052033
0.2900391, 0.0205078, -0.9990234, -97.1341476, -87.9268341, -17.560976, -0.0072175
0.2553711, -0.0209961, -0.9589844, -97.5609741, -89.3902435, -19.4512196, -0.0057069
0.2460938, -0.059082, -0.9477539, -97.8658524, -90.2439041, -22.2560978, -0.0035248
0.2456055, -0.1240234, -0.9506836, -97.5, -89.7560959, -20.4878044, -0.0075532
0.2597656, -0.128418, -0.9526367, -96.7682953, -89.2073212, -18.3536587, -0.0078889
0.3149414, -0.0849609, -0.9423828, -96.7073212, -87.8658524, -14.4512196, -0.0082246
0.3442383, -0.0478516, -0.9267578, -97.2561035, -87.2560959, -13.4146347, -0.0068818
0.3935547, -0.0161133, -0.9331055, -99.4512253, -86.8292694, -12.6829271, -0.0082246
0.4204102, -0.0336914, -0.9511719, -100.0609818, -86.0975647, -13.5975609, -0.0112459
0.4296875, -0.109375, -0.9746094, -101.2195129, -83.9634171, -17.560976, -0.0085603
0.3588867, -0.1674805, -0.9516602, -101.5853653, -83.4146347, -20.9756107, -0.0062104
0.3037109, -0.1669922, -0.9267578, -100.2439041, -85.18293, -26.8292694, -0.0085603
0.2104492, -0.1166992, -0.8989258, -97.68293, -87.9878082, -27.9268303, -0.0099031
0.1938477, -0.0722656, -0.9003906, -90.18293, -93.1707306, -25.1829281, -0.0095674
0.2060547, -0.0092773, -0.9326172, -84.6341476, -94.8780518, -22.3170738, -0.0132601
0.2231445, 0.0014648, -0.9448242, -83.5975647, -94.2682953, -21.5853672, 0.0078889
0.2319336, -0.0380859, -0.9643555, -83.7804871, -90.9756088, -21.5853672, 0.0387732
0.2260742, -0.0644531, -0.9726562, -84.3902435, -89.6341476, -20.9756107, 0.1018845
0.2226562, -0.1323242, -0.9833984, -84.5121994, -89.3292694, -18.2926826, 0.1341115
0.2280273, -0.152832, -0.9887695, -84.4512253, -90.6707306, -16.7073174, 0.1126268
0.2299805, -0.1484375, -0.9946289, -81.4634171, -95, -14.8780489, 0.1059129
0.2275391, -0.0703125, -1.0136719, -79.6951218, -96.9512253, -14.3902445, 0.0951705
0.2148438, -0.0273438, -1.0283203, -76.0365906, -100.1219559, -14.2073174, 0.0599222
0.1914062, 0.0507812, -1.0766602, -75.1219559, -101.3414688, -14.3292685, 0.033402
0.171875, 0.0820312, -1.1044922, -75.6097565, -102.0121994, -14.8780489, 0.0307164
0.1508789, 0.1381836, -1.1264648, -78.9024429, -101.0975647, -14.7560978, 0.0293736
0.1538086, 0.1669922, -1.1235352, -81.0975647, -100.4268341, -13.780488, 0.021149
0.1923828, 0.1679688, -1.0913086, -87.5, -99.0243912, -13.0487804, 0.0159457
0.2192383, 0.1430664, -1.0576172, -91.0365906, -98.4146347, -13.5975609, 0.0092317
0.2822266, 0.0629883, -0.9829102, -97.1341476, -95.8536606, -15.7317076, -0.005539
0.3120117, 0.0234375, -0.9536133, -98.7804871, -94.9390259, -16.6463413, -0.0219883
0.3569336, -0.0268555, -0.9550781, -98.2926865, -92.9268341, -17.5, -0.0374304
0.3608398, -0.0078125, -1.015625, -97.2561035, -91.9512253, -17.1341476, -0.0515297
0.3500977, 0.0185547, -1.0380859, -96.646347, -90.1219559, -18.6585369, -0.0632792
0.2963867, 0.0791016, -1.0219727, -97.8658524, -89.2073212, -20.6097565, -0.0757
0.2563477, 0.0947266, -0.9931641, -102.7439041, -87.9268341, -25.4268303, -0.0881209
0.1977539, 0.0869141, -0.9287109, -105.9146347, -86.4024429, -27.8048782, -0.0929885
0.1777344, 0.059082, -0.9248047, -105.6097565, -85.4878082, -27.5, -0.0983597
0.1572266, 0.0043945, -0.9990234, -102.5, -83.2317123, -25.060976, -0.103563
0.1464844, -0.0117188, -1.0634766, -99.8780518, -82.5609741, -23.5975609, -0.1072557
0.0864258, 0.0043945, -1.2016602, -95.6707306, -84.5731735, -22.0121956, -0.111284
0.0449219, 0.0224609, -1.2407227, -94.6341476, -87.9878082, -22.1951218, -0.1173266
-0.0458984, 0.0839844, -1.2348633, -94.5121994, -97.5609741, -23.5365868, -0.149218
-0.1074219, 0.1264648, -1.1171875, -94.7561035, -103.2926865, -24.6341476, -0.1559319
-0.1137695, 0.1210938, -1.0473633, -93.4146347, -112.68293, -25.4268303, -0.1344472
-0.0708008, 0.0717773, -0.9418945, -90.7317123, -115.1219559, -25.2439022, -0.1193408
-0.0219727, 0.03125, -0.9165039, -83.0487823, -115.8536606, -23.2926826, -0.0948348
0.0766602, -0.0473633, -0.8969727, -75.4268341, -114.5731735, -19.3902435, -0.06009
0.1289062, -0.0771484, -0.9013672, -72.5609741, -113.9634171, -17.6219521, -0.0263523
0.2158203, -0.0864258, -0.9379883, -69.8780518, -112.1341476, -14.8170738, -0.018967
0.2402344, -0.0615234, -0.9794922, -68.5975647, -110.5487823, -13.4146347, -0.0216526
0.2470703, 0.074707, -1.0888672, -67.8048782, -106.8902435, -10.5487804, -0.0077211
0.2392578, 0.1625977, -1.1323242, -68.8414688, -105.2439041, -9.5731707, -0.0125887
0.2109375, 0.3164062, -1.1606445, -75.9146347, -102.5609818, -10.6707315, 0.0124208
0.1967773, 0.3525391, -1.1020508, -81.1585388, -101.8292694, -12.2560978, 0.0454871
0.1977539, 0.3115234, -1.0605469, -91.4024429, -100.2439041, -17.6219521, 0.0387732
0.1918945, 0.15625, -1.0297852, -94.9390259, -98.4756088, -20.2439022, 0.0407874
0.1787109, 0.0820312, -1.0395508, -96.5243912, -94.3292694, -23.6585369, 0.03122
0.1337891, 0.0283203, -1.1118164, -93.1707306, -94.3902435, -23.1097565, 0.0342412
0.1049805, 0.0507812, -1.1533203, -91.8292694, -96.5853653, -22.560976, 0.0592508
0.0419922, 0.1738281, -1.1870117, -92.3780518, -101.8902435, -21.5853672, 0.0654612
0.0214844, 0.2392578, -1.171875, -94.2073212, -104.3292694, -21.280489, 0.0495155
0.0097656, 0.3061523, -1.0942383, -100.4878082, -105.18293, -21.280489, 0.023331
0.0219727, 0.2983398, -1.0395508, -104.0243912, -102.9268341, -21.4634151, 0.0015106
0.074707, 0.2011719, -0.9287109, -108.8414688, -95.6097565, -22.3170738, -0.0095674
0.121582, 0.0576172, -0.8608398, -109.2682953, -91.8292694, -22.5, -0.0370947
0.1347656, -0.0170898, -0.8676758, -105.4268341, -86.4634171, -22.0121956, -0.0592508
0.1137695, -0.1152344, -0.9482422, -101.3414688, -85.9756088, -22.0121956, -0.0775463
0.0766602, -0.128418, -1.0083008, -91.0975647, -89.6341476, -22.0121956, -0.0924849
-0.0175781, -0.0654297, -1.074707, -81.8902435, -98.1707306, -22.8658543, -0.0958419
-0.0786133, -0.0014648, -1.0688477, -78.7195129, -103.2926865, -23.5365868, -0.0904707
-0.1630859, 0.1499023, -0.9985352, -74.4512177, -111.1585388, -23.5365868, -0.0800641
-0.1708984, 0.199707, -0.9633789, -72.3170776, -113.0487823, -22.7439022, -0.0676432
-0.1337891, 0.2280273, -0.9750977, -68.1707306, -111.646347, -20.1219521, -0.0313878
-0.0981445, 0.2094727, -1.0302734, -66.4634171, -109.8780518, -18.5975609, 0.0078889
-0.0429688, 0.1699219, -1.1601562, -65.18293, -107.0731735, -15.1829271, 0.0441444
-0.0229492, 0.1694336, -1.1850586, -65.9756088, -107.6219559, -14.2073174, 0.0659648
-0.0126953, 0.1796875, -1.144043, -69.9390259, -112.9878082, -14.5731707, 0.0602579
0.0053711, 0.2001953, -1.0292969, -71.5853653, -116.8292694, -16.4024391, 0.0602579
0.0209961, 0.1958008, -1.0019531, -71.8292694, -122.3170776, -19.2682934, 0.0810712
0.0454102, 0.1865234, -1.0473633, -68.5975647, -122.9268341, -20.3048782, 0.0971847
0.0561523, 0.1860352, -1.097168, -67.0121994, -121.5853653, -19.939024, 0.1122911
0.0444336, 0.2246094, -1.1689453, -68.7804871, -119.9390259, -20.060976, 0.1045701
0.0229492, 0.253418, -1.1767578, -72.3170776, -119.5731735, -20.9146347, 0.0975204
-0.0244141, 0.3051758, -1.1582031, -80.1219559, -121.2195129, -22.3780499, 0.0471656
-0.0454102, 0.3227539, -1.1459961, -82.8658524, -121.646347, -22.2560978, -0.0270237
-0.0371094, 0.3745117, -1.1401367, -85.4268341, -120.6097565, -19.7560978, -0.0726787
-0.0083008, 0.4165039, -1.0952148, -87.0121994, -119.3902435, -18.9634151, -0.096849
0.0151367, 0.4169922, -1.0664062, -93.5975647, -116.5243912, -20.1829281, -0.1082628
0.0380859, 0.3256836, -1.081543, -97.0121994, -114.3292694, -21.8902435, -0.110277
0.0273438, 0.2543945, -1.1303711, -101.4634171, -110.6097565, -24.3902435, -0.1122911
-0.03125, 0.1201172, -1.2197266, -101.0975647, -110.9146347, -25.9756107, -0.1131304
-0.0932617, 0.097168, -1.2207031, -100.7317123, -114.0853653, -27.1341476, -0.1351186
-0.2270508, 0.1196289, -1.0932617, -98.9024429, -124.7561035, -30.4268303, -0.2029297
-0.2797852, 0.1621094, -0.9780273, -96.8292694, -131.0975647, -30.8536587, -0.2364996
-0.2753906, 0.2392578, -0.7612305, -89.3292694, -135.7317047, -28.2317085, -0.2230716
-0.2197266, 0.2441406, -0.6943359, -84.2073212, -133.0487823, -25.1219521, -0.1381399
-0.0473633, 0.1772461, -0.6772461, -76.646347, -117.9878082, -18.8414631, -0.0622721
0.0678711, 0.0395508, -0.7753906, -75.3658524, -108.2317123, -16.5243912, -0.0451514
0.0761719, -0.0185547, -0.8461914, -74.2682953, -91.5243912, -13.9024391, -0.0325628
-0.0078125, -0.0478516, -0.9897461, -72.8658524, -87.2560959, -12.2560978, 0.0052033
-0.0766602, 0.0073242, -1.0410156, -66.2804871, -88.5975647, -8.5975609, 0.0555581
-0.2094727, 0.2021484, -1.0751953, -59.3292694, -99.2073212, -5.9146342, 0.111284
-0.2583008, 0.3012695, -1.0576172, -57.68293, -104.2682953, -6.280488, 0.1347829
-0.2954102, 0.4169922, -0.996582, -58.4146347, -108.5365906, -9.6341467, 0.1364614
-0.2915039, 0.4169922, -0.9736328, -59.4512215, -106.4634171, -11.5243902, 0.1092699
-0.2543945, 0.3325195, -0.980957, -59.1463432, -97.2561035, -14.6341467, 0.0683146
-0.2363281, 0.2856445, -1.019043, -58.2926826, -92.8658524, -14.2682934, 0.0253452
-0.2089844, 0.2587891, -1.1396484, -55.7926826, -90.0609741, -9.6951218, -0.0159457
-0.1757812, 0.3305664, -1.2583008, -55.3658562, -91.646347, -6.280488, -0.04448
-0.1572266, 0.3881836, -1.2929688, -57.8658562, -98.8414688, -1.8292683, -0.0411231
-0.1245117, 0.4824219, -1.2866211, -61.341465, -102.3780518, -1.6463414, -0.0256809
-0.1142578, 0.4980469, -1.2441406, -71.5243912, -107.3170776, -7.0121951, -0.0332341
-0.1181641, 0.4526367, -1.1245117, -81.7682953, -106.4024429, -15.6707325, -0.0622721
-0.1264648, 0.3979492, -1.0673828, -84.5121994, -104.2682953, -18.9024391, -0.0891279
-0.128418, 0.284668, -1.0341797, -85.7926865, -101.2804871, -20.8536587, -0.1075914
-0.1171875, 0.2490234, -1.0419922, -85.3048782, -100.7926865, -19.8780499, -0.1096056
-0.1044922, 0.2358398, -1.0761719, -84.2682953, -101.3414688, -17.560976, -0.1015488
-0.1054688, 0.2617188, -1.0957031, -84.7560959, -102.0731735, -16.4024391, -0.0699931
-0.1225586, 0.3544922, -1.1303711, -86.2195129, -104.0243912, -15, -0.0458228
-0.1435547, 0.402832, -1.1552734, -87.8658524, -104.5731735, -14.2682934, -0.0135958
-0.1650391, 0.3857422, -1.1494141, -92.4390259, -106.5853653, -15.4878054, 0.0038605
-0.2177734, 0.2963867, -1.0742188, -95.18293, -106.7682953, -17.9268303, -0.0209812
-0.2587891, 0.2495117, -1.0063477, -97.1951218, -107.0121994, -23.8414631, -0.0370947
-0.3300781, 0.1860352, -0.8720703, -92.1951218, -108.5365906, -26.2195129, -0.0360876
-0.3447266, 0.1762695, -0.8486328, -86.9512253, -110.3048782, -24.8780499, -0.0313878
-0.3007812, 0.1972656, -0.8999023, -73.9634171, -112.8048782, -18.0487804, -0.0287022
-0.2661133, 0.2270508, -0.9506836, -68.9634171, -113.0487823, -14.8780489, -0.0303807
-0.2036133, 0.3051758, -0.9960938, -65.5487823, -111.0365906, -12.5, -0.0475013
-0.1928711, 0.3339844, -0.9702148, -66.5243912, -109.5731735, -13.1707315, -0.0750286
-0.1806641, 0.3442383, -0.840332, -70.5487823, -104.6951218, -15.5487804, -0.0981918
-0.1455078, 0.2817383, -0.7333984, -70.9756088, -101.646347, -15.9756098, -0.1156481
-0.1245117, 0.2358398, -0.7275391, -67.6219559, -94.3292694, -16.1585369, -0.1156481
-0.1054688, 0.1621094, -0.8261719, -64.3902435, -90.6097565, -15.5487804, -0.1065843
-0.1269531, 0.1542969, -0.8964844, -57.1951218, -86.8902435, -13.5975609, -0.0867781
-0.2084961, 0.2319336, -1.0356445, -52.3170738, -87.68293, -10.5487804, 0.0030213
-0.2607422, 0.3012695, -1.0791016, -50.9146347, -89.0853653, -9.0243902, 0.0871138
-0.3408203, 0.4516602, -1.1044922, -51.9512215, -92.5609741, -7.9878049, 0.0715038
-0.3623047, 0.4985352, -1.090332, -54.0853653, -94.0853653, -8.5365858, 0.0243381
-0.3686523, 0.519043, -1.0712891, -58.2317085, -94.4512253, -11.1585369, -0.0062104
-0.3583984, 0.4902344, -1.0751953, -59.6951218, -94.0853653, -12.6219511, -0.0182956
-0.3398438, 0.4106445, -1.1264648, -61.4024391, -92.7439041, -13.4146347, -0.0005035
-0.3256836, 0.3857422, -1.1777344, -61.8292694, -93.0487823, -13.1097565, 0.0229953
-0.3168945, 0.4072266, -1.1831055, -63.5365868, -96.9512253, -10.7926836, 0.0553902
-0.2851562, 0.46875, -1.1586914, -65.5487823, -99.8170776, -9.8780489, 0.0594186
-0.2626953, 0.487793, -1.128418, -71.6463394, -104.3292694, -9.2073174, 0.0381018
-0.2280273, 0.4897461, -1.0561523, -79.2682953, -103.3536606, -11.8292685, 0.0095674
-0.215332, 0.4589844, -1.0249023, -82.0121994, -101.3414688, -13.2926836, 0.0048676
-0.2148438, 0.3828125, -1.0019531, -85.6707306, -96.3414688, -15.060976, -0.0062104
-0.2265625, 0.3442383, -1.0161133, -86.0975647, -95.0609741, -14.8780489, -0.0256809
-0.2734375, 0.284668, -1.1010742, -85.5487823, -95.8536606, -13.7195129, -0.0471656
-0.3061523, 0.2880859, -1.1513672, -85, -98.3536606, -12.5, -0.0562295
-0.3969727, 0.3691406, -1.2099609, -83.9024429, -104.6951218, -10.060976, -0.0605936
-0.4599609, 0.4990234, -1.1767578, -84.4512253, -107.8658524, -8.9024391, -0.0669718
-0.4760742, 0.5463867, -1.1303711, -87.4390259, -113.2926865, -7.8658538, -0.0666361
-0.4379883, 0.5507812, -0.9790039, -89.146347, -115, -7.9268293, -0.0532082
-0.3862305, 0.5009766, -0.8759766, -92.6219559, -113.4756088, -10.4268293, -0.0320592
-0.2744141, 0.3530273, -0.6977539, -91.7682953, -106.9512253, -14.6951227, -0.0491798
-0.2270508, 0.2807617, -0.6557617, -89.6341476, -102.5, -15.6097565, -0.0726787
-0.1435547, 0.2001953, -0.7202148, -80.8536606, -96.0365906, -11.9512196, -0.0632792
-0.1142578, 0.2060547, -0.8193359, -75.9146347, -94.6951218, -8.2926826, -0.0441444
-0.1230469, 0.3105469, -1.0361328, -69.3292694, -94.9390259, -3.4146342, -0.0360876
-0.1699219, 0.3959961, -1.1040039, -69.7560959, -96.0975647, -3.6585367, -0.0404517
-0.3369141, 0.5615234, -1.1152344, -75.8536606, -98.4756088, -8.9634151, -0.04448
-0.4848633, 0.6347656, -1.0019531, -79.146347, -100.1219559, -12.0731707, -0.0397803
-0.5205078, 0.6181641, -0.9394531, -81.646347, -102.1341476, -16.8292694, -0.0149386
-0.5058594, 0.5087891, -0.8544922, -79.2073212, -100.1219559, -19.1463413, 0.0303807
-0.4731445, 0.4301758, -0.8413086, -76.8902435, -98.1707306, -19.2682934, 0.1030594
-0.4106445, 0.2890625, -0.8759766, -71.6463394, -95.2439041, -17.5, 0.1666743
-0.3891602, 0.2568359, -0.9174805, -68.6585388, -94.5121994, -15.6707325, 0.173724
-0.3696289, 0.2856445, -0.9990234, -63.1707344, -95.7317123, -10.2439022, 0.1495537
-0.3745117, 0.3427734, -1.0288086, -61.7073174, -97.0731735, -7.8658538, 0.1012131
-0.4013672, 0.4838867, -1.0166016, -62.8048782, -99.146347, -6.0975609, 0.043473
-0.4204102, 0.5742188, -0.9594727, -65.5487823, -99.3292694, -6.280488, -0.0075532
-0.4189453, 0.5810547, -0.9448242, -71.6463394, -95.7926865, -8.3536587, -0.0498512
-0.4086914, 0.5429688, -0.9594727, -74.0243912, -92.68293, -8.6585369, -0.0820783
-0.4057617, 0.5078125, -0.9853516, -75.7926865, -86.8902435, -8.719512, -0.0372625
-0.4116211, 0.4511719, -1.0332031, -77.1341476, -85.4268341, -8.1097565, 0.0159457
-0.4223633, 0.4418945, -1.0463867, -78.1097565, -86.0365906, -7.9268293, 0.0198062
-0.4462891, 0.4589844, -1.0327148, -81.2195129, -88.1097565, -7.8048782, 0.0072175
-0.4570312, 0.4794922, -1.0170898, -82.68293, -89.146347, -7.1341467, -0.0015106
-0.4584961, 0.5366211, -1.0043945, -85.4268341, -90.0609741, -5.4268293, -0.0169528
-0.4516602, 0.5541992, -1.0131836, -86.3414688, -89.3292694, -4.6341462, -0.0350805
-0.4360352, 0.5878906, -1.0327148, -87.68293, -87.68293, -4.3292685, -0.0347448
-0.4438477, 0.6098633, -1.0244141, -88.5365906, -87.4390259, -5.3658538, -0.0522011
-0.4526367, 0.6137695, -1.0024414, -91.7682953, -88.7195129, -8.1707315, -0.093492
-0.4707031, 0.5771484, -0.9702148, -93.2926865, -89.5121994, -9.5121956, -0.114641
-0.4667969, 0.5429688, -0.9584961, -96.0365906, -90.0609741, -11.0365858, -0.1373007
-0.4633789, 0.4619141, -0.9282227, -97.68293, -89.5731735, -11.5853662, -0.1495537
-0.4648438, 0.4262695, -0.8984375, -97.8658524, -88.9634171, -12.1341467, -0.1626459
-0.4912109, 0.3959961, -0.8232422, -95.7926865, -88.1707306, -12.3170738, -0.2271
-0.4995117, 0.3916016, -0.7978516, -93.3536606, -88.6585388, -11.8902445, -0.2546273
-0.4951172, 0.3950195, -0.7832031, -86.7682953, -88.5365906, -9.2682924, -0.2507668
-0.4838867, 0.3955078, -0.7895508, -83.7804871, -88.2317123, -7.8658538, -0.2505989
-0.4702148, 0.3925781, -0.8071289, -80.0609741, -86.0365906, -7.2560978, -0.2479133
-0.487793, 0.3847656, -0.7924805, -78.4756088, -84.8170776, -7.4390244, -0.2244144
-0.5039062, 0.3847656, -0.7807617, -75.0609741, -82.9268341, -8.3536587, -0.1720455
-0.5253906, 0.3828125, -0.7666016, -72.3780518, -82.3780518, -8.1707315, -0.0908064
-0.5268555, 0.3964844, -0.7792969, -65.6097565, -81.2804871, -7.0731707, -0.023331
-0.5214844, 0.4355469, -0.8276367, -60, -80.6707306, -5.5487804, 0.0149386
-0.5195312, 0.4697266, -0.8671875, -58.4146347, -80.2439041, -4.5121951, 0.0414588
-0.5151367, 0.5498047, -0.9819336, -57.6219521, -79.3292694, -2.0731707, 0.0313878
-0.5175781, 0.5932617, -1.0454102, -58.7804909, -79.0853653, -0.9756098, -0.0031891
-0.5263672, 0.6914062, -1.1391602, -62.9268303, -79.3902435, 0.0609756, -0.0273594
-0.534668, 0.7460938, -1.1542969, -66.0975647, -80.2439041, -0.6097561, -0.0219883
-0.5473633, 0.8349609, -1.1171875, -75.0609741, -82.9268341, -4.0853658, 0.0397803
-0.5400391, 0.8588867, -1.0400391, -79.8170776, -83.4146347, -6.5243902, 0.0770428
-0.5253906, 0.8369141, -1.0083008, -87.8048782, -82.1951218, -11.8292685, 0.079057
-0.4814453, 0.7456055, -0.9516602, -91.5243912, -80.4878082, -14.1463413, 0.0656291
-0.4643555, 0.684082, -0.9296875, -97.9268341, -75.8536606, -16.7682934, 0.0508583
-0.4394531, 0.5595703, -0.8813477, -104.2073212, -71.5853653, -17.2560978, 0.0461585
-0.434082, 0.5009766, -0.855957, -106.7682953, -69.6951218, -16.8902435, 0.0448157
-0.4619141, 0.4018555, -0.8237305, -109.8170776, -66.8292694, -15.6097565, 0.0555581
-0.4868164, 0.3666992, -0.8222656, -109.5121994, -65.7926865, -14.3902445, 0.0569009
-0.5405273, 0.3544922, -0.8325195, -105.5487823, -66.2195129, -11.4634151, 0.0998703
-0.5664062, 0.3706055, -0.8408203, -103.2926865, -67.4390259, -9.9390249, 0.205951
-0.6230469, 0.4418945, -0.8413086, -99.2073212, -69.6951218, -7.6829271, 0.2314641
-0.6518555, 0.5224609, -0.8095703, -98.0487823, -70.5487823, -7.4390244, 0.184802
-0.6474609, 0.5537109, -0.7895508, -96.4634171, -72.1951218, -5.4268293, 0.1193408
-0.6035156, 0.5654297, -0.7436523, -95.6707306, -72.0731735, -4.1463413, 0.0317235
-0.5693359, 0.5410156, -0.7207031, -95.18293, -70.8536606, -2.3780489, -0.0206455
-0.5097656, 0.4545898, -0.690918, -95.2439041, -67.8048782, -2.6219513, -0.0223239
-0.4975586, 0.4042969, -0.6870117, -94.2682953, -65.9756088, -3.5975611, 0.0206455
-0.5234375, 0.3452148, -0.6914062, -90.1219559, -64.0243912, -4.5121951, 0.0918135
-0.5463867, 0.3481445, -0.706543, -86.5853653, -64.9390259, -3.9024391, 0.1445182
-0.5834961, 0.4057617, -0.7294922, -78.5975647, -69.7560959, -1.9512196, 0.1562676
-0.5922852, 0.453125, -0.7324219, -75.4268341, -72.4390259, -1.2804878, 0.1173266
-0.5957031, 0.550293, -0.7290039, -71.5853653, -76.0975647, -1.0365853, 0.0676432
-0.5830078, 0.612793, -0.7236328, -70.7926865, -76.0365906, -1.2804878, 0.0226596
-0.5605469, 0.6196289, -0.7260742, -69.5731735, -74.2073212, -1.3414634, -0.0119173
-0.5117188, 0.5927734, -0.7548828, -68.9634171, -72.5609741, -1.1585366, -0.0062104
-0.5024414, 0.5742188, -0.7749023, -68.1097565, -69.3292694, -2.2560976, 0.0394446
-0.5004883, 0.5527344, -0.7998047, -68.2317123, -67.9878082, -3.6585367, 0.0864424
-0.5092773, 0.5478516, -0.8027344, -68.2317123, -68.4756088, -4.5731707, 0.1059129
-0.5444336, 0.5449219, -0.8071289, -68.0487823, -70.0609741, -5.670732, 0.0958419
-0.5610352, 0.5576172, -0.8041992, -67.1951218, -71.1585388, -6.2195125, 0.0763714
-0.5913086, 0.5908203, -0.7861328, -65.0609741, -73.2926865, -6.2195125, 0.0686503
-0.6000977, 0.6054688, -0.7802734, -64.4512177, -74.7560959, -6.4024391, 0.1253834
-0.6035156, 0.6230469, -0.7661133, -62.8658562, -75.6707306, -6.5243902, 0.1361257
-0.5957031, 0.6103516, -0.7719727, -62.5609779, -75.4878082, -6.890244, 0.0931563
-0.5883789, 0.5917969, -0.7802734, -62.8658562, -74.1463394, -7.0121951, 0.0035248
-0.5810547, 0.5664062, -0.7993164, -63.1097565, -73.1707306, -6.5243902, -0.0941634
-0.5810547, 0.5644531, -0.7939453, -63.5365868, -71.5243912, -5.4268293, -0.1733883
-0.5771484, 0.5751953, -0.7446289, -65.1219559, -70.9146347, -4.5121951, -0.2170291
-0.5722656, 0.5849609, -0.7060547, -66.2804871, -70.3658524, -4.5731707, -0.2354925
-0.5551758, 0.5874023, -0.6196289, -67.5609741, -68.4146347, -5, -0.2479133
-0.5463867, 0.5751953, -0.597168, -66.8902435, -66.4634171, -5.2439027, -0.2589914
-0.5219727, 0.559082, -0.5908203, -64.2073212, -61.4634171, -4.6341462, -0.2787976
-0.5180664, 0.5551758, -0.6108398, -62.7439041, -59.2073174, -3.9634147, -0.3210956
-0.5024414, 0.5615234, -0.6557617, -61.7682953, -55.8536606, -3.2317073, -0.3432517
-0.5063477, 0.5805664, -0.6796875, -62.4390259, -54.0243912, -3.2317073, -0.3335164
-0.5136719, 0.5908203, -0.6782227, -64.0243912, -50.9146347, -3.9024391, -0.3147173
-0.5244141, 0.6176758, -0.6748047, -65, -49.4512215, -3.9634147, -0.2942397
-0.5224609, 0.6206055, -0.6743164, -66.4024429, -47.3170738, -3.1707318, -0.266041
-0.5224609, 0.6206055, -0.6914062, -67.3170776, -45.4878044, -2.7439024, -0.2428779
-0.5249023, 0.612793, -0.7070312, -68.0487823, -44.5731735, -2.7439024, -0.2177005
-0.5620117, 0.5805664, -0.7646484, -70, -43.5365868, -3.9024391, -0.181445
-0.5844727, 0.5737305, -0.7905273, -70.5487823, -43.2926826, -4.2682929, -0.10692
-0.6484375, 0.5644531, -0.8354492, -70.3048782, -45.1829262, -5.4268293, -0.033402
-0.6850586, 0.5830078, -0.8442383, -70.0609741, -47.6219521, -5.4878049, 0.0142672
-0.7475586, 0.6303711, -0.8432617, -68.5365906, -53.7804909, -5.7926831, 0.0565652
-0.7685547, 0.6655273, -0.8354492, -67.8658524, -57.2560997, -5.8536587, 0.0874495
-0.7666016, 0.6699219, -0.8320312, -66.2804871, -63.4756126, -6.0975609, 0.0726787
-0.7426758, 0.6601562, -0.8232422, -65.6707306, -65.3048782, -6.3414636, 0.0246738
-0.7324219, 0.6416016, -0.8208008, -64.4512177, -68.1707306, -7.2560978, -0.0196384
-0.7211914, 0.605957, -0.8149414, -62.4390259, -70.7317123, -8.0487804, -0.0381018
-0.7182617, 0.5917969, -0.8110352, -61.4024391, -72.3780518, -8.0487804, -0.0476692
-0.7163086, 0.5917969, -0.7861328, -59.2073174, -75.0609741, -7.8048782, -0.0451514
-0.7114258, 0.6147461, -0.7666016, -58.5975609, -76.1585388, -7.9268293, -0.01561
-0.6918945, 0.6728516, -0.703125, -58.1097565, -77.3780518, -7.3780489, 0.0409552
-0.6743164, 0.6953125, -0.6689453, -58.2926826, -77.0731735, -7.3170733, 0.1166552
-0.6166992, 0.7241211, -0.5966797, -59.2682953, -73.2317123, -7.4390244, 0.145861
-0.5566406, 0.7172852, -0.5566406, -59.4512215, -70.4878082, -7.6829271, 0.1623102
-0.5317383, 0.7021484, -0.5483398, -59.6341476, -63.7804909, -7.2560978, 0.2383459
-0.5009766, 0.6381836, -0.5429688, -60, -60.3048782, -7.3780489, 0.2321355
-0.503418, 0.6025391, -0.5454102, -61.2804909, -53.5975609, -7.9268293, 0.1582818
-0.5395508, 0.5415039, -0.5483398, -61.4634171, -46.9512215, -9.3292685, 0.1683528
-0.5737305, 0.5307617, -0.5517578, -60.9146347, -43.7195129, -9.9390249, 0.1238727
-0.6489258, 0.5454102, -0.5874023, -57.5609779, -40.4878044, -9.4512196, 0.0384375
-0.6806641, 0.5678711, -0.6147461, -54.6951218, -40.2439041, -8.4146347, -0.0391089
-0.7182617, 0.6333008, -0.6738281, -50.8536606, -41.8902435, -6.7682929, -0.082414
-0.7275391, 0.6591797, -0.703125, -50.2439041, -42.9268303, -6.0975609, -0.0975204
-0.7290039, 0.7036133, -0.7373047, -49.8170738, -44.9390259, -6.0365853, -0.1079271
-0.715332, 0.7104492, -0.7250977, -50.7317085, -45.3048782, -6.280488, -0.1240406
-0.6992188, 0.699707, -0.7080078, -53.9024391, -45.5487823, -7.5609756, -0.1331044
-0.6723633, 0.6567383, -0.6767578, -55.0609779, -45.3048782, -7.6829271, -0.1364614
-0.6533203, 0.6298828, -0.6689453, -56.2195129, -43.9634171, -7.4390244, -0.131426
-0.6181641, 0.6030273, -0.6625977, -56.4634171, -43.2926826, -6.280488, -0.1210193
-0.6049805, 0.6025391, -0.6650391, -56.4024391, -42.8048782, -5.4268293, -0.1255512
-0.5854492, 0.6220703, -0.6704102, -57.5, -41.2195129, -5.0609756, -0.0981918
-0.5864258, 0.6391602, -0.6669922, -58.1707344, -40.5487823, -5.2439027, -0.0572366
-0.6054688, 0.6723633, -0.6586914, -60.2439041, -38.2926826, -6.3414636, 0.0025177
-0.6206055, 0.6845703, -0.6567383, -61.1585388, -37.8048782, -6.890244, 0.0730144
-0.6479492, 0.6879883, -0.6499023, -63.4756126, -36.5853653, -7.3170733, 0.0918135
-0.6743164, 0.6645508, -0.6503906, -63.7195129, -36.0365868, -7.3780489, 0.0508583
-0.6865234, 0.6518555, -0.6567383, -63.9634171, -35, -7.3170733, -0.0250095
-0.699707, 0.6196289, -0.6679688, -63.7804909, -34.8780479, -7.4390244, -0.0921492
-0.7163086, 0.6113281, -0.6762695, -62.2560997, -35.4268303, -6.890244, -0.1331044
-0.7329102, 0.5957031, -0.6962891, -60.3658562, -37.9268303, -5.9756098, -0.1384756
-0.7368164, 0.5942383, -0.699707, -59.2682953, -39.4512215, -5.4878049, -0.1337758
-0.7353516, 0.6020508, -0.6889648, -57.5609779, -43.1097565, -5.1219511, -0.0971847
-0.7319336, 0.6079102, -0.6728516, -57.3170738, -44.6341476, -5, -0.0391089
-0.7104492, 0.6206055, -0.6254883, -56.6463432, -45.9756126, -4.7560978, 0.0112459
-0.6875, 0.6176758, -0.6005859, -56.4634171, -46.0975609, -4.4512196, 0.0491798
-0.6479492, 0.5932617, -0.5712891, -56.0365868, -45.3658562, -3.4146342, 0.0777142
-0.6010742, 0.5673828, -0.5830078, -55.3658562, -44.7560997, -2.5, 0.0891279
-0.5869141, 0.5512695, -0.6020508, -53.7804909, -44.1463432, -1.3414634, 0.0787213
-0.5834961, 0.5620117, -0.6435547, -52.7439041, -43.6585388, -1.097561, 0.0407874
-0.5844727, 0.5795898, -0.6518555, -51.5853653, -44.7560997, -1.5853659, 0.0260166
-0.6054688, 0.6245117, -0.6298828, -52.5, -47.0731735, -3.2317073, 0.0320592
-0.6103516, 0.6469727, -0.6049805, -53.5365868, -48.0487823, -4.2682929, 0.021149
-0.6049805, 0.6694336, -0.5493164, -55.3048782, -47.6219521, -5.9756098, 0.017792
-0.5927734, 0.6708984, -0.5297852, -55.8536606, -46.5243912, -6.280488, 0.0213169
-0.5722656, 0.6489258, -0.5195312, -55.7317085, -43.5365868, -6.0365853, 0.0505226
-0.5576172, 0.6362305, -0.5288086, -55.3658562, -42.2560997, -5.1219511, 0.0840925
-0.5336914, 0.6166992, -0.5629883, -54.8780518, -40.0609779, -4.5121951, 0.0710002
-0.5317383, 0.6157227, -0.6132812, -54.7560997, -39.5731735, -4.6341462, 0.0688182
-0.543457, 0.6171875, -0.6279297, -54.9390259, -39.3292694, -5.9756098, 0.0730144
-0.5683594, 0.6518555, -0.6289062, -56.0975609, -39.8780479, -6.890244, 0.0703288
-0.5820312, 0.6728516, -0.609375, -57.4390259, -41.341465, -9.2682924, 0.0763714
-0.6040039, 0.6987305, -0.5415039, -59.6341476, -42.0121956, -11.8902445, 0.1005417
-0.6040039, 0.699707, -0.5029297, -60.2439041, -41.4634171, -12.6829271, 0.085771
-0.5917969, 0.6860352, -0.4526367, -60.7317085, -37.8658562, -13.0487804, 0.0587472
-0.5795898, 0.6777344, -0.4404297, -60.18293, -35.4268303, -12.6829271, 0.0555581
-0.5571289, 0.6621094, -0.4550781, -59.3902435, -31.1585369, -10.4268293, 0.0139315
-0.5507812, 0.6513672, -0.4804688, -59.2682953, -29.6341476, -8.9634151, -0.0431373
-0.5537109, 0.6289062, -0.5566406, -59.3292694, -27.1951218, -7.4390244, -0.0797284
-0.5908203, 0.6010742, -0.6240234, -59.9390259, -26.3414631, -7.6829271, -0.1096056
-0.6196289, 0.5966797, -0.6347656, -61.5853691, -26.3414631, -9.0243902, -0.1129625
-0.6938477, 0.6044922, -0.6147461, -62.8658562, -28.2317085, -11.341464, -0.0975204
-0.7333984, 0.612793, -0.5834961, -62.7439041, -29.7560978, -12.4390249, -0.0921492
-0.7768555, 0.6240234, -0.5087891, -60.7317085, -33.0487823, -12.9268293, -0.0741894
-0.7875977, 0.6171875, -0.4819336, -59.2682953, -34.8170738, -12.0121956, -0.0001678
-0.7578125, 0.5786133, -0.4580078, -55.2439041, -36.7073174, -8.4756098, 0.0985275
-0.7368164, 0.5571289, -0.4643555, -53.3536606, -36.8902435, -6.3414636, 0.114641
-0.6923828, 0.5146484, -0.5058594, -50.4268303, -35.6097565, -2.9878049, 0.0877852
-0.6762695, 0.4970703, -0.5595703, -49.1463432, -35.3048782, -1.7073171, 0.0555581
-0.6796875, 0.5024414, -0.574707, -47.6219521, -35.3048782, -0.4878049, 0.0320592
-0.6953125, 0.5415039, -0.5786133, -47.3170738, -36.0975609, -0.6097561, -0.0010071
-0.706543, 0.5683594, -0.5634766, -46.7682953, -38.3536606, -1.5853659, -0.051194
-0.7280273, 0.6176758, -0.5131836, -46.4634171, -41.0365868, -2.6219513, -0.0814069
-0.730957, 0.6308594, -0.4858398, -46.1585388, -41.7073174, -2.6829269, -0.1027237
-0.7202148, 0.6430664, -0.4506836, -45.2439041, -41.6463432, -1.8292683, -0.1206836
-0.7050781, 0.6323242, -0.4389648, -44.7560997, -41.0975609, -0.9756098, -0.1339437
-0.6782227, 0.6186523, -0.4350586, -43.5975609, -38.5975609, 0.3658537, -0.1364614
-0.6679688, 0.6166992, -0.4384766, -43.2317085, -37.0121956, 0.8536586, -0.1334401
-0.6694336, 0.621582, -0.4389648, -42.3170738, -34.3292694, 0.9146342, -0.1240406
-0.6811523, 0.6508789, -0.4648438, -41.4634171, -33.4146347, 1.097561, -0.0955062
-0.6899414, 0.6728516, -0.480957, -40.1829262, -32.1951218, 1.0365853, -0.0310521
-0.6967773, 0.7089844, -0.5161133, -39.5731735, -32.3780479, 1.2804878, 0.0293736
-0.6962891, 0.71875, -0.53125, -39.2682953, -32.3780479, 0.9146342, 0.0663005
-0.7011719, 0.7353516, -0.5424805, -40.0609779, -31.8902454, -0.4878049, 0.0864424
-0.706543, 0.7451172, -0.5400391, -40.7926826, -31.5853672, -0.9146342, 0.093492
-0.7138672, 0.7407227, -0.5249023, -42.0121956, -31.6463413, -2.0731707, 0.1723812
-0.7143555, 0.730957, -0.5180664, -42.5609779, -31.5853672, -2.5, 0.2683909
-0.7089844, 0.7143555, -0.5043945, -42.6829262, -31.1585369, -3.4756098, 0.266041
-0.7070312, 0.7148438, -0.5043945, -42.1341476, -30.9756107, -4.0243902, 0.1811093
-0.7089844, 0.7294922, -0.5200195, -40.7926826, -30.8536587, -3.8414636, 0.0807355
-0.7099609, 0.7524414, -0.5356445, -40.4268303, -30.7926846, -3.9024391, 0.0119173
-0.7089844, 0.7583008, -0.5419922, -40.7317085, -30.5487804, -4.5731707, -0.0250095
-0.7138672, 0.7646484, -0.5292969, -41.4024391, -30.3048782, -5.1829271, -0.0527047
-0.7177734, 0.7514648, -0.5097656, -44.3292694, -28.780489, -6.5853658, -0.093492
-0.7358398, 0.7148438, -0.4736328, -46.5853653, -27.7439022, -7.3170733, -0.1347829
-0.7431641, 0.6860352, -0.4619141, -47.0121956, -27.0121956, -7.2560978, -0.1676814
-0.7504883, 0.6367188, -0.4555664, -46.5243912, -25.7926826, -6.6463418, -0.1908446
-0.7563477, 0.6181641, -0.4575195, -45.9756126, -25.3658543, -5.8536587, -0.2009155
-0.7666016, 0.6079102, -0.4897461, -42.9878044, -25.3048782, -5, -0.1347829
-0.7719727, 0.6118164, -0.5083008, -41.2195129, -26.0365868, -4.390244, -0.0015106
-0.7709961, 0.6459961, -0.5405273, -38.0487823, -28.4146347, -3.9634147, 0.0374304
-0.7612305, 0.6860352, -0.5356445, -37.3170738, -29.6951218, -4.1463413, 0.0884565
-0.7539062, 0.7055664, -0.5209961, -36.8292694, -32.1951218, -5.4268293, 0.1690242
-0.7324219, 0.7070312, -0.4648438, -37.6219521, -33.2317085, -5.8536587, 0.1942016
-0.7163086, 0.6879883, -0.4384766, -39.6951218, -32.9268303, -6.0975609, 0.2695659
-0.6855469, 0.6445312, -0.3852539, -40.6707344, -29.8780499, -5.8536587, 0.1863127
-0.6738281, 0.6171875, -0.3769531, -40.5487823, -27.7439022, -5.3658538, -0.0008392
-0.6791992, 0.5854492, -0.3813477, -38.9634171, -24.2682934, -3.9634147, -0.1743954
-0.6845703, 0.5800781, -0.3896484, -38.1707344, -23.1707325, -3.1707318, -0.3063249
-0.7050781, 0.5927734, -0.4106445, -35.7926826, -22.3780499, -1.7682927, -0.3828641
-0.71875, 0.6083984, -0.4174805, -34.6951218, -22.0731716, -1.8902439, -0.4046845
-0.7460938, 0.6518555, -0.4311523, -33.2926826, -22.0731716, -2.9878049, -0.3419089
-0.7661133, 0.675293, -0.4433594, -32.7439041, -21.5853672, -3.1707318, -0.2153506
-0.7719727, 0.6801758, -0.4526367, -31.5853672, -21.4024391, -2.2560976, -0.0887922
-0.7509766, 0.6850586, -0.4892578, -30.7317085, -21.5853672, -1.5853659, 0.0703288
-0.7387695, 0.6733398, -0.5073242, -30.4268303, -22.1341476, 0.4878049, 0.0924849
-0.7124023, 0.6420898, -0.53125, -31.8902454, -22.560976, 0.6097561, 0.0193027
-0.7124023, 0.6264648, -0.534668, -32.8048782, -22.9268303, 0.1829268, -0.064622
-0.722168, 0.6245117, -0.5351562, -33.4146347, -23.0487804, -1.097561, -0.1319295
-0.7368164, 0.6293945, -0.5322266, -33.2317085, -23.4756107, -1.4634147, -0.1599603
-0.7553711, 0.6469727, -0.5366211, -31.7682934, -26.0975609, -1.8292683, -0.1895018
-0.7670898, 0.6552734, -0.5380859, -30.9146347, -27.9878063, -1.402439, -0.2314641
-0.7646484, 0.6694336, -0.5219727, -30.5487804, -32.0731697, -0.9146342, -0.2368353
-0.7583008, 0.6645508, -0.4916992, -30.5487804, -32.8048782, -1.4634147, -0.2232395
-0.7548828, 0.6591797, -0.4672852, -30.1219521, -33.2926826, -2.3170731, -0.1905089
-0.7402344, 0.659668, -0.4311523, -29.3902454, -32.8658562, -2.4390244, -0.1566033
-0.7285156, 0.6572266, -0.4155273, -27.3170738, -32.2560997, -1.5243902, -0.1378042
-0.699707, 0.6601562, -0.3979492, -25, -32.0121956, -0.1829268, -0.1282368
-0.6801758, 0.6650391, -0.3935547, -24.2073174, -31.7073174, 0, -0.1324331
-0.6582031, 0.6748047, -0.3789062, -23.0487804, -29.2073174, -0.1219512, -0.1317617
-0.6494141, 0.6762695, -0.3823242, -23.1707325, -27.3780499, -0.5487805, -0.0856031
-0.6503906, 0.6791992, -0.4013672, -22.8658543, -23.8414631, -0.4878049, -0.0451514
-0.6538086, 0.6782227, -0.4169922, -22.3170738, -22.6219521, 0.1219512, -0.0015106
-0.6572266, 0.6704102, -0.4448242, -21.7073174, -21.4634151, 1.097561, 0.073518
-0.6645508, 0.6401367, -0.4560547, -21.8902435, -21.2195129, 1.0365853, 0.1341115
-0.6679688, 0.621582, -0.4536133, -22.3170738, -20.5487804, -0.1829268, 0.1233692
-0.6875, 0.5986328, -0.4355469, -22.439024, -20.1829281, -1.1585366, 0.0743572
-0.6992188, 0.6000977, -0.4199219, -21.4634151, -19.5731716, -2.195122, 0.0407874
-0.7094727, 0.6123047, -0.3969727, -18.2926826, -20.1829281, -1.6463414, 0.0307164
-0.699707, 0.6196289, -0.3955078, -16.8292694, -20.7317085, -0.5487805, 0.0318914
-0.6767578, 0.6401367, -0.4116211, -13.5975609, -21.0365868, 0.6097561, 0.0025177
-0.6674805, 0.6474609, -0.4345703, -12.4390249, -20.2439022, 1.097561, -0.0515297
-0.6601562, 0.6625977, -0.4921875, -11.280488, -19.2682934, 1.7073171, -0.0528725
-0.6669922, 0.6650391, -0.5151367, -11.280488, -18.9024391, 1.7073171, -0.0569009
-0.6879883, 0.6645508, -0.5249023, -12.8658543, -19.3292694, 1.2804878, -0.0827497
-0.7177734, 0.6445312, -0.4858398, -13.9024391, -19.5731716, 0.3658537, -0.0983597
-0.7290039, 0.6386719, -0.4560547, -15.3048782, -19.2073174, -1.0365853, -0.0525368
-0.7426758, 0.6171875, -0.4033203, -14.7560978, -18.780489, -1.2195122, 0.0513619
-0.7460938, 0.6069336, -0.3901367, -11.9512196, -18.6585369, -0.4268293, 0.1884947
-0.722168, 0.6113281, -0.4003906, -7.2560978, -19.2682934, 2.5, 0.3160601
-0.7104492, 0.6147461, -0.4199219, -5.670732, -19.5121956, 3.5975611, 0.3053178
-0.6904297, 0.6303711, -0.4682617, -4.0853658, -18.4756107, 4.4512196, 0.2099794
-0.6938477, 0.6401367, -0.4873047, -3.7804878, -17.2560978, 4.1463413, 0.0931563
-0.7114258, 0.6572266, -0.5131836, -4.3292685, -15.3048782, 3.1707318, -0.0008392
-0.7226562, 0.659668, -0.5170898, -4.9390244, -15, 3.0487804, -0.0451514
-0.7373047, 0.6577148, -0.5126953, -4.8170733, -15.7926836, 3.1707318, -0.1079271
-0.7353516, 0.6513672, -0.5087891, -4.6951222, -16.5243912, 3.2317073, -0.1816129
-0.7368164, 0.6445312, -0.5083008, -2.8658538, -17.9268303, 3.3536587, -0.2475776
-0.734375, 0.6376953, -0.5180664, -2.0121951, -17.9878044, 3.1097562, -0.2400244
-0.7314453, 0.6386719, -0.5185547, -0.1829268, -18.8414631, 3.9024391, -0.1411612
-0.7182617, 0.6582031, -0.5151367, 0.9146342, -19.2073174, 3.7195122, -0.057908
-0.7133789, 0.6679688, -0.5102539, 1.2195122, -19.2073174, 3.5975611, -0.0374304
-0.6977539, 0.6894531, -0.4892578, 1.6463414, -19.5731716, 2.8658538, -0.0377661
-0.6914062, 0.6953125, -0.4750977, 1.5243902, -19.6341476, 2.8658538, -0.0256809
-0.6772461, 0.6977539, -0.4414062, 1.7682927, -18.2926826, 2.7439024, 0.0097353
-0.6699219, 0.6967773, -0.4243164, 1.8292683, -17.0731716, 2.4390244, 0.0488441
-0.6586914, 0.6943359, -0.3969727, 1.8902439, -12.8658543, 2.0121951, 0.072343
-0.6645508, 0.6962891, -0.3935547, 1.9512196, -10.4268293, 1.8902439, 0.0931563
-0.6665039, 0.6962891, -0.4008789, 2.0731707, -6.1585369, 2.7439024, 0.0770428
-0.6757812, 0.6782227, -0.4580078, 2.804878, -4.5731707, 3.3536587, 0.026688
-0.6811523, 0.6728516, -0.4916992, 4.1463413, -2.7439024, 5.2439027, -0.0317235
-0.6972656, 0.6635742, -0.5463867, 5.3658538, -3.6585367, 6.0975609, -0.0129244
-0.7104492, 0.6557617, -0.5600586, 5.4878049, -5.7317076, 5.9146342, 0.0958419
-0.7451172, 0.6411133, -0.5766602, 6.5853658, -10.3048782, 5.2439027, 0.072343
-0.7578125, 0.6313477, -0.5742188, 6.7073174, -12.3170738, 5.0609756, -0.0303807
-0.769043, 0.6064453, -0.5541992, 7.1951222, -14.3292685, 4.390244, -0.1519036
-0.7714844, 0.5917969, -0.5361328, 7.0121951, -14.6341467, 4.3292685, -0.2521096
-0.762207, 0.5600586, -0.487793, 7.8048782, -14.2682934, 5.1219511, -0.2626841
-0.7392578, 0.5527344, -0.4521484, 8.5975609, -13.9634151, 5.7317076, -0.233814
-0.7207031, 0.5576172, -0.4423828, 11.0365858, -12.9268293, 7.5609756, -0.2056153
-0.6850586, 0.5693359, -0.4453125, 11.8292685, -12.1341467, 8.2317076, -0.1740597
-0.6772461, 0.5805664, -0.453125, 13.9024391, -10.2439022, 8.780488, -0.1592889
-0.6655273, 0.6103516, -0.4775391, 14.1463413, -7.8048782, 9.6341467, -0.1643244
-0.6621094, 0.6269531, -0.484375, 13.5365858, -6.0975609, 9.5121956, -0.1710384
-0.6733398, 0.6396484, -0.4736328, 11.7682934, -2.3780489, 8.2317076, -0.1619745
-0.6855469, 0.6435547, -0.4570312, 10.8536587, -0.3658537, 7.5609756, -0.1089342
-0.7001953, 0.6669922, -0.4165039, 10.7926836, 3.2926829, 7.1341467, -0.0609293
-0.6977539, 0.6782227, -0.4033203, 12.0731707, 4.7560978, 7.6829271, -0.0206455
-0.6762695, 0.6875, -0.4194336, 14.6951227, 6.7682929, 8.719512, 0.0867781
-0.6425781, 0.6801758, -0.4960938, 16.1585369, 7.7439027, 9.3292685, 0.1770809
-0.6230469, 0.6782227, -0.5429688, 17.8658543, 8.9634151, 10.6097565, 0.2294499
-0.6157227, 0.6694336, -0.609375, 17.8658543, 9.2073174, 10.6097565, 0.2281071
-0.6230469, 0.6743164, -0.6235352, 15.6097565, 9.3902445, 8.4756098, 0.1889982
-0.6621094, 0.7124023, -0.590332, 13.1097565, 9.6951218, 5.2439027, 0.1344472
-0.684082, 0.7270508, -0.5581055, 11.8902445, 9.9390249, 3.9634147, 0.0736858
-0.7158203, 0.7246094, -0.4887695, 11.0365858, 10.8536587, 2.804878, 0.0105745
-0.7216797, 0.7163086, -0.465332, 11.8292685, 11.8902445, 2.6829269, -0.0226596
-0.7070312, 0.6884766, -0.4692383, 15.1829271, 13.5365858, 4.390244, -0.0370947
-0.6967773, 0.6767578, -0.484375, 17.0731716, 14.3902445, 5.670732, -0.0379339
-0.6640625, 0.6713867, -0.5136719, 20.060976, 16.4024391, 6.7682929, -0.0276951
-0.6499023, 0.6904297, -0.5083008, 20.060976, 17.6219521, 6.5853658, -0.0240024
-0.6464844, 0.6953125, -0.5029297, 18.5975609, 21.4024391, 5.7317076, -0.0229953
-0.6542969, 0.6728516, -0.4926758, 17.8658543, 23.7195129, 4.9390244, -0.0276951
-0.6640625, 0.6586914, -0.4868164, 16.8292694, 28.841465, 4.5121951, -0.0354162
-0.6767578, 0.6513672, -0.46875, 17.6219521, 32.1951218, 5.3048782, -0.0350805
-0.6782227, 0.6508789, -0.4716797, 19.1463413, 33.4146347, 5.609756, -0.0216526
-0.6762695, 0.6474609, -0.5097656, 22.1341476, 35.9146347, 6.4024391, 0.0119173
-0.6787109, 0.6479492, -0.5361328, 23.4756107, 37.0121956, 6.9512196, 0.0441444
-0.6748047, 0.6552734, -0.5800781, 25.060976, 39.3292694, 7.7439027, 0.0777142
-0.6767578, 0.6621094, -0.6005859, 24.9390259, 40.1829262, 7.7439027, 0.0847639
-0.6757812, 0.6674805, -0.6191406, 23.780489, 41.2804871, 7.8048782, 0.0753643
-0.6826172, 0.6723633, -0.59375, 23.1707325, 41.4634171, 7.7439027, 0.0877852
-0.6821289, 0.675293, -0.5727539, 23.4756107, 40.5487823, 8.4756098, 0.1200122
-0.6704102, 0.6728516, -0.5405273, 24.1463413, 39.6951218, 8.719512, 0.1290761
-0.6557617, 0.65625, -0.5244141, 25.9146347, 38.6585388, 9.4512196, 0.1206836
-0.628418, 0.6025391, -0.5004883, 27.6829281, 40.1829262, 9.3902445, 0.1401541
-0.6230469, 0.5825195, -0.4951172, 29.0243912, 41.4634171, 9.0243902, 0.19823
-0.6328125, 0.5644531, -0.5078125, 33.2317085, 43.5975609, 9.6341467, 0.1952087
-0.6479492, 0.5634766, -0.5297852, 35.6097565, 44.0243912, 10.6097565, 0.1804379
-0.6650391, 0.5878906, -0.5629883, 39.1463432, 44.4512215, 12.7439032, 0.2052796
-0.6767578, 0.6054688, -0.5615234, 40.1219521, 44.8780479, 12.7439032, 0.2401923
-0.703125, 0.6513672, -0.534668, 42.0121956, 45.7926826, 11.7682934, 0.1099413
-0.7011719, 0.6713867, -0.5288086, 43.2926826, 46.2195129, 12.0731707, -0.0733501
-0.6884766, 0.6655273, -0.5454102, 47.8048782, 46.5243912, 13.7195129, -0.2351568
-0.65625, 0.6572266, -0.5913086, 50, 46.2804871, 14.0243902, -0.3600366
-0.6503906, 0.6611328, -0.6083984, 52.7439041, 46.8902435, 13.7195129, -0.4023346
-0.6376953, 0.6743164, -0.6020508, 51.2195129, 48.9634171, 12.4390249, -0.3694362
-0.6381836, 0.6889648, -0.5883789, 50.1219521, 50.4878044, 11.8902445, -0.2848402
-0.6352539, 0.7050781, -0.5576172, 49.2682953, 53.841465, 11.6463413, -0.1572747
-0.6318359, 0.7055664, -0.5620117, 49.7560997, 55.3048782, 11.4024391, -0.0471656
-0.6455078, 0.6845703, -0.6069336, 51.4024391, 57.7439041, 11.4024391, 0.0005035
-0.6513672, 0.6728516, -0.6425781, 52.4390259, 58.4146347, 10.9146347, 0.0179599
-0.6855469, 0.6655273, -0.6943359, 53.0487823, 59.5121956, 10.1219511, 0.0193027
-0.7304688, 0.690918, -0.7045898, 52.6829262, 59.3292694, 9.6951218, 0.0438087
-0.7475586, 0.7045898, -0.6879883, 51.2195129, 58.9024391, 9.2073174, 0.1916838
-0.7548828, 0.7128906, -0.6396484, 50.6707344, 59.3902435, 10, 0.1515679
-0.7387695, 0.7109375, -0.6074219, 50.6097565, 59.9390259, 10.7317076, 0.0216526
-0.6933594, 0.6816406, -0.5625, 52.0121956, 62.5609779, 10.3658543, -0.1022202
-0.6669922, 0.6567383, -0.5742188, 53.2317085, 64.1463394, 10.8536587, -0.2083009
-0.6469727, 0.605957, -0.6586914, 57.3780518, 66.4634171, 11.6463413, -0.2668803
-0.6445312, 0.6010742, -0.7045898, 58.9634171, 66.7682953, 12.3170738, -0.254963
-0.6694336, 0.6323242, -0.7436523, 58.9634171, 66.3414612, 11.8292685, -0.1747311
-0.7114258, 0.671875, -0.7050781, 57.7439041, 66.0365906, 11.0365858, -0.0587472
-0.7294922, 0.6865234, -0.6708984, 56.2804909, 65.9756088, 10.060976, 0.0965133
-0.7314453, 0.7021484, -0.6206055, 56.5853653, 66.2804871, 10.3048782, 0.2596628
-0.7109375, 0.6958008, -0.6142578, 59.8170738, 68.0487823, 11.8902445, 0.3771572
-0.6650391, 0.6650391, -0.6850586, 63.6585388, 69.8780518, 12.9268293, 0.4758526
-0.6489258, 0.6494141, -0.7353516, 64.8780518, 70.4268341, 12.9878054, 0.5312428
-0.6547852, 0.6342773, -0.8139648, 64.9390259, 70.9756088, 11.8902445, 0.585626
-0.6738281, 0.6430664, -0.8212891, 63.7804909, 70.7926865, 10.6707315, 0.5933471
-0.7275391, 0.6748047, -0.7792969, 61.9512215, 69.6951218, 8.5365858, 0.4577249
-0.753418, 0.6870117, -0.7451172, 61.5243912, 69.3292694, 8.841464, 0.2469062
-0.7412109, 0.684082, -0.6777344, 62.8658562, 68.2926865, 9.7560978, 0.0891279
-0.6879883, 0.6552734, -0.6582031, 64.5731735, 69.0853653, 9.9390249, -0.0283665
-0.6606445, 0.640625, -0.6704102, 67.7439041, 72.0121994, 9.9390249, -0.1312581
-0.621582, 0.6342773, -0.734375, 69.0853653, 73.5365906, 9.8170738, -0.194873
-0.6079102, 0.6323242, -0.7592773, 70.1219559, 76.8902435, 10.2439022, -0.2277714
-0.6035156, 0.637207, -0.7949219, 68.5365906, 79.0853653, 10, -0.232639
-0.6201172, 0.6391602, -0.7973633, 67.0121994, 80, 8.9634151, -0.2411994
-0.6582031, 0.6367188, -0.7895508, 64.8170776, 82.0731735, 7.6829271, -0.2613413
-0.6757812, 0.6362305, -0.7783203, 64.0243912, 83.2317123, 7.1341467, -0.2845045
-0.6918945, 0.6264648, -0.7758789, 63.9634171, 85.18293, 8.1097565, -0.3083391
-0.6884766, 0.6186523, -0.7788086, 64.0853653, 85.6707306, 8.6585369, -0.3229419
-0.6811523, 0.6210938, -0.7939453, 64.2682953, 86.8292694, 9.5121956, -0.3163958
-0.6821289, 0.6240234, -0.8041992, 64.3292694, 85.9146347, 10.2439022, -0.2704051
-0.6811523, 0.6235352, -0.8266602, 64.8780518, 83.0487823, 11.219512, -0.0921492
-0.6806641, 0.6118164, -0.862793, 65.4878082, 81.8902435, 11.5243902, 0.1784237
-0.6811523, 0.6088867, -0.8779297, 66.3414612, 80.5487823, 11.280488, 0.2145113
-0.699707, 0.6035156, -0.8676758, 65.0609741, 79.8170776, 10.4878054, 0.0676432
-0.7045898, 0.6054688, -0.8393555, 64.3902435, 79.0853653, 10.4268293, -0.0102388
-0.6943359, 0.6005859, -0.7924805, 64.4512177, 77.68293, 11.4024391, 0.0891279
-0.6699219, 0.597168, -0.7851562, 65.8536606, 77.3170776, 12.6829271, 0.1938659
-0.6108398, 0.5878906, -0.7929688, 67.8048782, 77.9878082, 14.3902445, 0.1539178
-0.5839844, 0.5810547, -0.8071289, 68.4756088, 78.8414688, 14.5731707, -0.0310521
-0.5698242, 0.5844727, -0.8515625, 68.1707306, 81.4024429, 14.5121956, -0.1858091
-0.5820312, 0.5693359, -0.8935547, 67.7439041, 82.2560959, 14.7560978, -0.2381781
-0.59375, 0.559082, -0.9013672, 66.6463394, 82.68293, 14.3292685, -0.3761501
-0.6479492, 0.5605469, -0.8720703, 66.0975647, 82.68293, 13.7195129, -0.5554131
-0.6708984, 0.5708008, -0.8505859, 66.5243912, 81.4634171, 12.9878054, -0.6656901
-0.684082, 0.6020508, -0.8364258, 68.2926865, 79.8170776, 15, -0.7078202
-0.6645508, 0.612793, -0.8535156, 69.4512177, 79.4512177, 16.6463413, -0.6990921
-0.6010742, 0.6132812, -0.9057617, 70.2439041, 80.9756088, 18.5975609, -0.6269169
-0.5727539, 0.6074219, -0.9204102, 68.8414688, 82.3780518, 18.7195129, -0.5147936
-0.5429688, 0.5961914, -0.8911133, 64.8780518, 84.8170776, 17.0121956, -0.3781643
-0.5375977, 0.5908203, -0.8642578, 62.7439041, 85.3048782, 16.0365849, -0.2257572
-0.527832, 0.5751953, -0.8242188, 61.8902435, 85.7317123, 16.3414631, -0.0370947
-0.4990234, 0.5478516, -0.8369141, 63.0487823, 86.4634171, 16.0975609, 0.0649577
-0.4951172, 0.5405273, -0.8637695, 65.2439041, 88.7195129, 15.4878054, 0.0710002
-0.515625, 0.5415039, -0.909668, 66.1585388, 89.8170776, 14.8780489, 0.0394446
-0.5351562, 0.5566406, -0.9204102, 65.9146347, 90.5487823, 14.6951227, -0.0008392
-0.5649414, 0.5649414, -0.9228516, 64.5121994, 90.6707306, 14.4512196, -0.0303807
-0.5737305, 0.5668945, -0.9208984, 64.3902435, 90.6707306, 14.4512196, -0.0216526
-0.5957031, 0.5610352, -0.9326172, 63.7195129, 90.7926865, 15.7317076, 0.0041962
-0.597168, 0.5537109, -0.940918, 63.9634171, 90.8536606, 17.0731716, 0.0243381
-0.5805664, 0.5385742, -0.9384766, 64.3292694, 90.18293, 17.8658543, 0.0417945
-0.5678711, 0.5341797, -0.9228516, 64.3902435, 89.3292694, 17.7439022, 0.047837
-0.550293, 0.5332031, -0.9003906, 63.9024391, 89.0243912, 17.7439022, 0.0562295
-0.5283203, 0.5253906, -0.9125977, 64.1463394, 89.5121994, 18.1707325, 0.072343
-0.5175781, 0.5219727, -0.9321289, 65.6097565, 90.7926865, 20, 0.0931563
-0.503418, 0.5102539, -0.9711914, 65.9146347, 91.5243912, 20.5487804, 0.0944991
-0.5097656, 0.5024414, -0.9746094, 65.9756088, 92.3170776, 19.8780499, 0.0740215
-0.5561523, 0.4980469, -0.9516602, 65.7926865, 91.1585388, 18.3536587, 0.0582437
-0.5805664, 0.5, -0.9399414, 66.4024429, 90, 18.1097565, 0.0542153
-0.5952148, 0.5102539, -0.9335938, 68.9024429, 87.68293, 20.5487804, 0.0676432
-0.5805664, 0.5219727, -0.9438477, 69.8170776, 87.3170776, 22.1951218, 0.0609293
-0.534668, 0.5424805, -0.9755859, 70.7926865, 88.2926865, 24.0853672, 0.0253452
-0.5131836, 0.5512695, -0.980957, 69.6951218, 89.0853653, 24.2682934, 0.0169528
-0.4731445, 0.5585938, -0.9418945, 66.6463394, 90.6707306, 24.1463413, -0.047837
-0.4306641, 0.5258789, -0.918457, 65.7926865, 91.1585388, 24.1463413, -0.1089342
-0.4130859, 0.4990234, -0.9306641, 65.1219559, 92.3170776, 23.780489, -0.121355
-0.4033203, 0.4731445, -0.9794922, 65.8536606, 93.4756088, 23.2926826, -0.0830854
-0.4169922, 0.4833984, -0.9960938, 67.5609741, 95.18293, 22.1951218, -0.0058747
-0.4614258, 0.5249023, -0.9907227, 67.4390259, 94.5731735, 21.7073174, 0.0656291
-0.4750977, 0.5341797, -0.9804688, 66.7682953, 93.2926865, 21.6463413, 0.1404898
-0.4941406, 0.5200195, -0.9643555, 66.0975647, 92.0731735, 21.7682934, 0.2408637
-0.4946289, 0.5019531, -0.9755859, 66.4634171, 92.6219559, 21.8292694, 0.3257954
-0.4912109, 0.4868164, -1.0131836, 68.7195129, 94.3902435, 24.1463413, 0.3615473
-0.4887695, 0.5004883, -1.0239258, 69.6341476, 94.6341476, 25, 0.3472801
-0.4790039, 0.5449219, -1.0107422, 69.3292694, 93.9024429, 25.4878063, 0.2964218
-0.4506836, 0.5507812, -0.9858398, 68.7804871, 93.1707306, 25.4268303, 0.2109865
-0.4287109, 0.5341797, -0.9946289, 67.5, 93.4146347, 25.9146347, 0.1223621
-0.3896484, 0.4951172, -1.0395508, 67.9878082, 94.8170776, 26.1585369, 0.0542153
-0.3891602, 0.4882812, -1.0512695, 67.3170776, 98.6585388, 26.1585369, 0.0280308
-0.4042969, 0.4916992, -1.0361328, 65.8536606, 99.2073212, 24.9390259, 0.0918135
-0.4179688, 0.4960938, -1.0214844, 65.0609741, 98.4756088, 24.0853672, 0.1059129
-0.4389648, 0.5063477, -1.0048828, 65.3048782, 97.0121994, 23.4756107, 0.0193027
-0.4370117, 0.5068359, -1.0200195, 66.4634171, 97.0121994, 24.2073174, 0.0043641
-0.4208984, 0.519043, -1.0722656, 67.9878082, 98.3536606, 26.5853672, -0.0169528
-0.402832, 0.5263672, -1.0776367, 67.4390259, 99.2682953, 26.6463413, -0.0894636
-0.3989258, 0.527832, -1.0605469, 64.0853653, 100.0609818, 25.3048782, -0.1646601
-0.4047852, 0.5112305, -1.0410156, 62.8658562, 99.6341476, 24.3902435, -0.1592889
-0.4023438, 0.4990234, -1.043457, 62.4390259, 99.3292694, 24.7560978, -0.1028916
