Application:, Trigno Discover (1.6.5)
Date/Time:, 30/01/2025 09:32:17
Collection Length (seconds):, 29.0925
wrist (81457), , , , , , bicep (81139)
sensor mode: 609, , , , , , sensor mode: 40
ACC X (G), ACC Y (G), ACC Z (G), GYRO X (deg/s), GYRO Y (deg/s), GYRO Z (deg/s), EMG 1 (mV)
370.3704 Hz, 370.3704 Hz, 370.3704 Hz, 370.3704 Hz, 370.3704 Hz, 370.3704 Hz, 2148.1481 Hz
-0.984375, 0.2675781, -0.1806641, -8.5975609, -1.402439, -0.1219512, -0.0607614
-0.9887695, 0.2749023, -0.1782227, -8.5365858, -1.4634147, 0.0609756, -0.0587472
-0.9887695, 0.2773438, -0.171875, -8.2317076, -2.0731707, 0.4878049, -0.0473335
-0.9790039, 0.2807617, -0.1713867, -8.719512, -2.3780489, 0.9756098, -0.0271916
-0.9614258, 0.2817383, -0.1738281, -9.6341467, -2.7439024, 1.9512196, -0.0097353
-0.9526367, 0.2749023, -0.1772461, -9.7560978, -2.804878, 2.5, -0.0114137
-0.9458008, 0.2685547, -0.1845703, -10.060976, -2.6219513, 3.2926829, -0.0036927
-0.9462891, 0.265625, -0.1845703, -9.2682924, -2.3780489, 3.5365853, 0.0036927
-0.9487305, 0.2631836, -0.1918945, -8.780488, -2.3780489, 3.9634147, 0.0137636
-0.9555664, 0.2602539, -0.1938477, -8.4146347, -2.8658538, 4.2682929, 0.014435
-0.9487305, 0.2641602, -0.1811523, -8.2317076, -3.1097562, 4.5731707, 0.0073854
-0.949707, 0.2670898, -0.1704102, -7.6829271, -3.9024391, 4.7560978, -0.0010071
-0.9501953, 0.2680664, -0.1699219, -7.5, -4.2682929, 5.0609756, -0.0090639
-0.9384766, 0.2548828, -0.1733398, -7.5609756, -5, 5.5487804, -0.0292058
-0.9394531, 0.25, -0.171875, -7.3170733, -5.2439027, 5.7926831, -0.0473335
-0.9399414, 0.2338867, -0.1699219, -6.7682929, -5.7926831, 5.8536587, -0.0621042
-0.9438477, 0.230957, -0.1772461, -6.7682929, -5.7317076, 5.8536587, -0.0715038
-0.9575195, 0.2216797, -0.2011719, -6.280488, -5.7317076, 6.280488, -0.073518
-0.9594727, 0.2148438, -0.2084961, -6.8292685, -6.0975609, 6.7073174, -0.0748608
-0.984375, 0.2036133, -0.2104492, -6.890244, -5.9146342, 6.7682929, -0.070161
-0.9956055, 0.1972656, -0.2060547, -6.280488, -6.1585369, 7.0731707, -0.0661326
-1.0161133, 0.1860352, -0.1928711, -6.4024391, -6.3414636, 7.4390244, -0.0654612
-1.03125, 0.1777344, -0.1826172, -6.3414636, -6.9512196, 8.1707315, -0.0607614
-1.0400391, 0.175293, -0.1762695, -6.8292685, -7.4390244, 8.2317076, -0.0587472
-1.0498047, 0.1865234, -0.1757812, -7.6219516, -8.2926826, 8.9634151, -0.0621042
-1.0512695, 0.199707, -0.1762695, -7.7439027, -9.2682924, 9.3292685, -0.056733
-1.0405273, 0.2236328, -0.1831055, -8.3536587, -10.060976, 10.7926836, -0.0493477
-1.0253906, 0.2348633, -0.1855469, -8.6585369, -10.7926836, 11.1585369, -0.0540475
-1.0043945, 0.2416992, -0.1982422, -8.9024391, -11.341464, 11.8902445, -0.056733
-1.0014648, 0.2382812, -0.1948242, -8.3536587, -10.7317076, 12.3780489, -0.0607614
-1.0014648, 0.2373047, -0.1953125, -8.2926826, -10.4268293, 12.1951218, -0.0594186
-1.0058594, 0.2363281, -0.2060547, -7.4390244, -10.060976, 12.3780489, -0.056733
-1.0273438, 0.2451172, -0.2163086, -7.5, -10.4268293, 12.7439032, -0.0513619
-1.0400391, 0.2631836, -0.230957, -7.2560978, -10.7317076, 13.1097565, -0.0406195
-1.0380859, 0.2651367, -0.2382812, -6.9512196, -11.0365858, 13.5365858, -0.03122
-1.0395508, 0.269043, -0.2519531, -7.6219516, -12.0121956, 13.4146347, -0.0218204
-1.0449219, 0.2666016, -0.253418, -7.5609756, -12.4390249, 13.2926836, -0.0224918
-1.0395508, 0.2788086, -0.2578125, -8.1707315, -13.0487804, 13.6585369, -0.0198062
-1.0410156, 0.2895508, -0.2529297, -8.4756098, -13.2317076, 13.5975609, -0.03122
-1.0371094, 0.3037109, -0.2338867, -9.1463413, -13.5365858, 13.4756098, -0.0493477
-1.0410156, 0.3139648, -0.2163086, -10, -14.3292685, 13.2317076, -0.0681468
-1.0371094, 0.3232422, -0.1860352, -10.4878054, -15, 13.1707315, -0.076875
-1.0351562, 0.324707, -0.1645508, -10.4878054, -16.0365849, 13.0487804, -0.0775463
-1.0292969, 0.2880859, -0.1201172, -9.3902445, -16.6463413, 13.2317076, -0.0835889
-1.0097656, 0.2290039, -0.0869141, -7.5609756, -17.3780499, 14.1463413, -0.1027237
-1.0048828, 0.2026367, -0.0693359, -7.3170733, -17.3170738, 14.4512196, -0.109102
-1.019043, 0.1723633, -0.0483398, -6.2195125, -16.3414631, 13.6585369, -0.1077592
-1.0322266, 0.1777344, -0.0449219, -4.8780489, -15.8536587, 13.1097565, -0.105745
-1.0556641, 0.2197266, -0.0576172, -3.2317073, -15.1219511, 13.3536587, -0.0889601
-1.0595703, 0.2490234, -0.074707, -3.4756098, -15.5487804, 13.780488, -0.0708324
-1.0419922, 0.2929688, -0.0878906, -3.2926829, -16.280489, 14.5121956, -0.0486763
-1.0200195, 0.3129883, -0.0957031, -3.5975611, -16.280489, 15.1829271, -0.024506
-0.9941406, 0.3344727, -0.1113281, -4.1463413, -15.9146347, 15.1829271, -0.0204776
-0.9916992, 0.3408203, -0.1196289, -5.4268293, -14.6341467, 15.3048782, -0.0164492
-0.9912109, 0.3481445, -0.1464844, -5.8536587, -14.3902445, 15.4878054, -0.0003357
-0.9995117, 0.3295898, -0.1635742, -7.5, -14.6341467, 15.9146347, 0.0063783
-1.0014648, 0.309082, -0.1655273, -7.4390244, -14.8170738, 16.4024391, 0.0063783
-1.0043945, 0.2895508, -0.1611328, -8.1097565, -14.6951227, 16.3414631, 0.0104067
-1.0151367, 0.284668, -0.1552734, -8.2317076, -14.3292685, 16.4024391, 0.011078
-1.0219727, 0.2797852, -0.1435547, -8.1097565, -13.9634151, 16.1585369, -0.0016785
-1.0292969, 0.2861328, -0.1333008, -8.0487804, -14.2682934, 16.280489, -0.011078
-1.0395508, 0.309082, -0.1191406, -7.8048782, -14.2073174, 16.6463413, -0.0157778
-1.0371094, 0.3144531, -0.1118164, -8.719512, -15.2439032, 17.0121956, -0.0325628
-1.0336914, 0.3300781, -0.0976562, -9.3292685, -15.4878054, 17.1951218, -0.0426337
-1.0322266, 0.3344727, -0.1010742, -10.2439022, -16.5243912, 17.3170738, -0.0426337
-1.0224609, 0.3417969, -0.1157227, -10.7926836, -16.8902435, 16.8902435, -0.0553902
-1.0112305, 0.3334961, -0.1225586, -12.1951218, -17.7439022, 17.0731716, -0.0624399
-1.0039062, 0.3217773, -0.1210938, -12.6829271, -17.7439022, 16.9512196, -0.0678111
-0.9985352, 0.3095703, -0.1108398, -14.0853662, -16.8292694, 16.5243912, -0.063447
-1.0009766, 0.3081055, -0.1118164, -14.5731707, -16.7073174, 16.2195129, -0.0607614
-1.0102539, 0.3149414, -0.1308594, -15.060976, -17.0121956, 15.8536587, -0.0520333
-1.0078125, 0.3198242, -0.1396484, -15.6097565, -17.6219521, 15.8536587, -0.0359197
-0.9960938, 0.3261719, -0.1362305, -16.4024391, -18.2317085, 16.0975609, -0.014435
-0.9838867, 0.3344727, -0.1220703, -16.5853653, -18.1707325, 16.2195129, -0.0083925
-0.9692383, 0.3271484, -0.0888672, -16.1585369, -17.9878044, 16.1585369, -0.011078
-0.9667969, 0.3295898, -0.0810547, -14.8780489, -17.5, 15.9146347, -0.03122
-0.9619141, 0.3154297, -0.0791016, -14.7560978, -17.3170738, 15.8536587, -0.0473335
-0.9716797, 0.2973633, -0.0874023, -14.4512196, -16.9512196, 15, -0.0493477
-0.9804688, 0.296875, -0.0913086, -14.6951227, -16.7682934, 15, -0.0446479
-1.0048828, 0.2988281, -0.1118164, -15.2439032, -16.4634151, 15.9756098, -0.0486763
-1.0112305, 0.2944336, -0.1157227, -15.060976, -16.5243912, 16.4634151, -0.0386053
-0.9975586, 0.2661133, -0.1230469, -14.3902445, -18.0487804, 17.439024, -0.0339055
-0.9799805, 0.2578125, -0.128418, -14.3292685, -18.4756107, 17.7439022, -0.0352483
-0.9604492, 0.2460938, -0.1367188, -13.4146347, -17.8048782, 18.0487804, -0.0332341
-0.9589844, 0.2480469, -0.1396484, -13.1707315, -16.6463413, 17.6219521, -0.0372625
-0.96875, 0.2744141, -0.1318359, -12.7439032, -16.2195129, 17.5, -0.0459907
-0.9746094, 0.3105469, -0.1245117, -12.1341467, -16.2195129, 17.3170738, -0.0503548
-0.9692383, 0.3208008, -0.1298828, -11.9512196, -16.9512196, 17.9268303, -0.06009
-0.9550781, 0.3256836, -0.1240234, -12.5, -17.3780499, 18.2926826, -0.0553902
-0.949707, 0.3261719, -0.121582, -12.8658543, -17.439024, 18.0487804, -0.0433051
-0.9506836, 0.3203125, -0.1132812, -13.7195129, -16.7682934, 18.2317085, -0.042298
-0.956543, 0.3168945, -0.109375, -14.1463413, -16.4024391, 18.3536587, -0.0533761
-0.9589844, 0.3061523, -0.1005859, -15.4878054, -16.0975609, 18.2317085, -0.0889601
-0.9589844, 0.3012695, -0.097168, -16.2195129, -16.0365849, 17.9878044, -0.1292439
-0.9575195, 0.293457, -0.0917969, -17.2560978, -16.4024391, 17.9268303, -0.1373007
-0.9594727, 0.2895508, -0.0932617, -17.3170738, -16.0975609, 17.5, -0.1215229
-0.9545898, 0.2929688, -0.1079102, -17.439024, -16.2195129, 17.6219521, -0.0923171
-0.9536133, 0.2958984, -0.1074219, -17.7439022, -16.0975609, 17.9268303, -0.0728466
-0.9501953, 0.2973633, -0.105957, -17.560976, -15.9146347, 17.9878044, -0.0889601
-0.9423828, 0.296875, -0.0976562, -17.439024, -15.8536587, 17.8048782, -0.1030594
-0.9365234, 0.2958984, -0.0927734, -17.6219521, -15.6707325, 17.8658543, -0.1017166
-0.9423828, 0.2978516, -0.0947266, -18.1097565, -15.4268293, 17.7439022, -0.1003738
-0.9428711, 0.2993164, -0.0981445, -18.7195129, -15.4878054, 17.8048782, -0.0916457
-0.9472656, 0.2954102, -0.105957, -19.5731716, -15.9146347, 17.6219521, -0.073518
-0.9526367, 0.2929688, -0.1083984, -20.2439022, -16.5243912, 18.1707325, -0.0486763
-0.9516602, 0.2724609, -0.0849609, -18.7195129, -17.3170738, 18.5975609, -0.0124208
-0.9521484, 0.2539062, -0.0844727, -16.0365849, -17.8048782, 19.7560978, 0.0251774
-0.9389648, 0.2124023, -0.078125, -15.6707325, -18.0487804, 20.4268303, 0.0540475
-0.9438477, 0.1884766, -0.0664062, -15.4268293, -17.560976, 19.6951218, 0.0688182
-0.9545898, 0.1870117, -0.0625, -15.3048782, -17.5, 19.4512196, 0.0721752
-0.972168, 0.2084961, -0.0703125, -14.2682934, -17.9268303, 19.0853672, 0.066804
-0.9746094, 0.2275391, -0.090332, -14.3292685, -18.5365849, 19.3292694, 0.052369
-0.9672852, 0.2695312, -0.109375, -15.4268293, -19.6341476, 20.1219521, 0.0305486
-0.9599609, 0.2866211, -0.1132812, -15.9146347, -20.1219521, 19.939024, 0.0130922
-0.9589844, 0.3071289, -0.1206055, -17.0731716, -20.4878044, 20.5487804, -0.011078
-0.9536133, 0.3178711, -0.1245117, -18.1097565, -20.8536587, 20.4878044, -0.03122
-0.9370117, 0.315918, -0.1210938, -18.9024391, -21.0975609, 20.3658543, -0.0473335
-0.940918, 0.3149414, -0.1147461, -19.4512196, -21.4024391, 20.2439022, -0.0513619
-0.9438477, 0.2988281, -0.0952148, -18.5975609, -21.8292694, 19.939024, -0.056733
-0.9404297, 0.2861328, -0.1035156, -15.060976, -22.439024, 19.939024, -0.070161
-0.9438477, 0.2783203, -0.1103516, -14.0853662, -22.0731716, 20, -0.0607614
-0.9482422, 0.2709961, -0.1054688, -12.9268293, -21.5243912, 19.3902435, -0.056733
-0.953125, 0.2783203, -0.1049805, -12.8658543, -21.5243912, 19.2073174, -0.0433051
-0.9628906, 0.2944336, -0.1132812, -12.560976, -21.7073174, 19.6951218, -0.0409552
-0.9643555, 0.2978516, -0.1210938, -12.7439032, -22.0731716, 19.6951218, -0.0369268
-0.9492188, 0.2954102, -0.128418, -13.5975609, -23.1707325, 20.5487804, -0.0285344
-0.9428711, 0.2929688, -0.1264648, -14.3292685, -23.2926826, 20.7317085, -0.0221561
-0.9335938, 0.277832, -0.1079102, -13.7195129, -22.9878063, 20.6097565, -0.0184634
-0.9291992, 0.2700195, -0.097168, -12.4390249, -22.1341476, 20.4878044, -0.0298772
-0.9287109, 0.2548828, -0.0927734, -12.3780489, -22.0121956, 20.6097565, -0.0594186
-0.9267578, 0.2543945, -0.0830078, -12.9878054, -22.9878063, 20.1829281, -0.0916457
-0.9287109, 0.2553711, -0.0722656, -13.7195129, -23.8414631, 19.7560978, -0.1295796
-0.9365234, 0.2397461, -0.050293, -13.9024391, -25.5487804, 19.1463413, -0.1520714
-0.9350586, 0.2211914, -0.046875, -12.9878054, -26.5853672, 19.3292694, -0.158114
-0.9174805, 0.2021484, -0.0551758, -12.6829271, -27.7439022, 19.6951218, -0.1487144
-0.9169922, 0.1904297, -0.0449219, -13.1097565, -28.1097565, 19.3902435, -0.1198444
-0.9257812, 0.1928711, -0.0146484, -12.3170738, -27.3780499, 17.6219521, -0.0906386
-0.9394531, 0.2202148, -0.0136719, -10.1219511, -26.7073174, 16.5243912, -0.0574044
-0.9589844, 0.2763672, -0.0478516, -10.3048782, -26.9512196, 16.7073174, -0.0234989
-0.9667969, 0.3022461, -0.065918, -12.7439032, -28.1707325, 17.0731716, -0.0043641
-0.9638672, 0.3305664, -0.0834961, -14.5731707, -29.2682934, 17.0731716, 0.0050355
-0.956543, 0.3544922, -0.0952148, -17.7439022, -30.6707325, 17.0731716, 0.0140993
-0.9487305, 0.3544922, -0.1025391, -19.5731716, -30.7926846, 16.9512196, 0.0090639
-0.9360352, 0.3569336, -0.1132812, -23.1707325, -30.5487804, 16.5243912, -0.0057069
-0.9389648, 0.3544922, -0.1079102, -24.9390259, -30.6097565, 16.280489, -0.0151064
-0.940918, 0.3432617, -0.0888672, -27.0121956, -30, 15.3048782, -0.021149
-0.9443359, 0.3310547, -0.0756836, -27.7439022, -29.5121956, 14.8170738, -0.0231632
-0.9643555, 0.3232422, -0.0395508, -29.5731716, -28.6585369, 14.0243902, -0.0137636
-0.9711914, 0.3203125, -0.0229492, -30.6707325, -28.1097565, 13.4756098, -0.0057069
-0.9833984, 0.3120117, 0.0039062, -30.3658543, -28.2317085, 13.3536587, -0.0124208
-0.9863281, 0.3012695, 0.0043945, -30, -27.9878063, 13.9024391, -0.0231632
-0.9785156, 0.2841797, -0.0107422, -30.1219521, -27.7439022, 13.9024391, -0.0271916
-0.9780273, 0.265625, -0.0268555, -31.4634151, -27.9268303, 13.4756098, -0.0325628
-0.980957, 0.262207, -0.0322266, -32.3780479, -27.4390259, 13.1707315, -0.0365911
-0.9956055, 0.2729492, -0.0380859, -34.0243912, -26.5853672, 12.9878054, -0.0439765
-1.0009766, 0.2802734, -0.0375977, -34.1463432, -26.4634151, 13.1097565, -0.0433051
-1.0068359, 0.296875, -0.0380859, -35.1829262, -26.1585369, 12.7439032, -0.0399481
-1.0161133, 0.2944336, -0.0292969, -35.7926826, -25.9756107, 12.560976, -0.0493477
-1.003418, 0.2866211, -0.0371094, -34.7560997, -26.7682934, 13.0487804, -0.0594186
-0.996582, 0.2963867, -0.0361328, -34.8780479, -26.2195129, 11.5243902, -0.0647898
-1.0039062, 0.3227539, -0.0419922, -36.4024391, -25.5487804, 10.9756098, -0.0728466
-1.0083008, 0.3320312, -0.0649414, -38.9024391, -25.5487804, 11.6463413, -0.0809033
-0.9936523, 0.3359375, -0.0893555, -40.3048782, -25.9756107, 12.0121956, -0.0815747
-0.9760742, 0.3276367, -0.0737305, -41.8902435, -25.3658543, 12.1951218, -0.0688182
-0.96875, 0.3222656, -0.0629883, -41.8292694, -24.6341476, 11.7682934, -0.0433051
-0.9667969, 0.3154297, -0.0678711, -42.4390259, -23.8414631, 10.3658543, -0.024506
-0.9711914, 0.3173828, -0.0717773, -43.2317085, -23.2926826, 10, -0.0104067
-0.9863281, 0.309082, -0.0859375, -45.3048782, -22.1341476, 10.2439022, 0.0127565
-0.9824219, 0.3017578, -0.0849609, -46.5853653, -21.6463413, 10.5487804, 0.021149
-0.9702148, 0.2768555, -0.0703125, -46.8902435, -21.4024391, 11.1585369, 0.021149
-0.9702148, 0.2617188, -0.0566406, -44.2682953, -21.5853672, 10.9756098, 0.0218204
-0.9624023, 0.2373047, -0.0449219, -42.1951218, -21.1585369, 10.4878054, 0.0238346
-0.9628906, 0.2299805, -0.0424805, -38.2926826, -20.1219521, 10.060976, 0.014435
-0.9711914, 0.237793, -0.0249023, -36.9512215, -19.4512196, 9.7560978, 0.0104067
-0.9853516, 0.2573242, -0.0244141, -34.4512215, -19.3902435, 9.2682924, 0.0043641
-0.9887695, 0.2607422, -0.0292969, -34.0853653, -19.5121956, 9.8170738, -0.0023499
-0.9682617, 0.2670898, -0.0483398, -34.5731697, -19.8780499, 10.3658543, -0.011078
-0.9575195, 0.2685547, -0.0522461, -35.4878044, -19.8780499, 10.1829271, -0.0204776
-0.9492188, 0.2744141, -0.0683594, -36.9512215, -18.5975609, 9.8170738, -0.0305486
-0.9487305, 0.2832031, -0.0795898, -37.7439041, -18.1097565, 9.2682924, -0.0365911
-0.9526367, 0.2963867, -0.0917969, -39.3902435, -17.7439022, 8.6585369, -0.0406195
-0.9604492, 0.3046875, -0.0913086, -40.7317085, -17.9878044, 8.1097565, -0.0449836
-0.9604492, 0.2949219, -0.0664062, -40.4878044, -18.4146347, 7.7439027, -0.0459907
-0.9624023, 0.28125, -0.0527344, -38.4756088, -19.4512196, 7.0121951, -0.0446479
-0.9501953, 0.2475586, -0.0429688, -37.9268303, -19.6951218, 6.3414636, -0.0459907
-0.9521484, 0.2270508, -0.0356445, -36.8902435, -19.0853672, 5.1219511, -0.0533761
-0.9648438, 0.234375, -0.0356445, -36.4634171, -18.2317085, 4.8780489, -0.0560616
-0.9863281, 0.2416992, -0.0297852, -35.7317085, -17.0731716, 5.1219511, -0.0614328
-0.9916992, 0.246582, -0.0322266, -34.5731697, -17.0121956, 5.609756, -0.0688182
-0.984375, 0.2602539, -0.0551758, -33.1097565, -17.0731716, 5.7317076, -0.0772107
-0.9790039, 0.2641602, -0.0664062, -33.1097565, -17.2560978, 5.609756, -0.0903029
-0.9682617, 0.2744141, -0.0791016, -34.4512215, -17.0121956, 5.670732, -0.0916457
-0.9594727, 0.2807617, -0.0820312, -35.1829262, -16.4024391, 6.1585369, -0.0929885
-0.9443359, 0.3012695, -0.0834961, -35.8536606, -16.0975609, 5.9756098, -0.0929885
-0.9370117, 0.3032227, -0.0898438, -38.0487823, -16.4634151, 5.609756, -0.0929885
-0.9238281, 0.2973633, -0.0908203, -39.2682953, -16.3414631, 5.609756, -0.0889601
-0.9160156, 0.2802734, -0.0551758, -39.5731735, -15.6707325, 5.1219511, -0.0785534
-0.9111328, 0.2583008, -0.0283203, -37.9268303, -15.4878054, 5.1829271, -0.0788891
-0.9003906, 0.21875, -0.0078125, -33.1707306, -15.3658543, 4.5121951, -0.0788891
-0.9033203, 0.2050781, -0.0083008, -31.6463413, -15.2439032, 3.6585367, -0.0718395
-0.9179688, 0.1938477, -0.0029297, -29.4512196, -13.5975609, 2.5, -0.0731823
-0.9316406, 0.2011719, -0.0117188, -28.841465, -12.6219511, 2.6219513, -0.073518
-0.9389648, 0.2241211, -0.0410156, -29.2073174, -10.9146347, 3.9024391, -0.0647898
-0.9287109, 0.2280273, -0.0444336, -31.5243912, -10.8536587, 5.3048782, -0.0621042
-0.9101562, 0.2353516, -0.0385742, -32.2560997, -10.9756098, 5.2439027, -0.0547189
-0.8969727, 0.2421875, -0.0375977, -33.1097565, -10.9146347, 4.8780489, -0.0486763
-0.8803711, 0.2612305, -0.0532227, -34.0853653, -10.4268293, 4.2073174, -0.0419623
-0.8847656, 0.2866211, -0.0537109, -35.8536606, -8.9024391, 2.9268293, -0.0386053
-0.8920898, 0.2978516, -0.0541992, -36.8292694, -8.2926826, 2.195122, -0.0372625
-0.9023438, 0.3261719, -0.0581055, -39.3292694, -7.6829271, 1.1585366, -0.0352483
-0.9140625, 0.3261719, -0.0532227, -40.3048782, -7.3170733, 0.9146342, -0.0406195
-0.9213867, 0.3105469, -0.0366211, -41.341465, -7.0731707, 0.2439024, -0.0553902
-0.925293, 0.2910156, -0.0332031, -41.1585388, -7.0731707, 0.2439024, -0.0607614
-0.925293, 0.2426758, -0.0092773, -39.0853653, -6.8292685, -0.5487805, -0.063447
-0.9287109, 0.2265625, -0.0039062, -35.9756088, -6.1585369, -0.7317073, -0.0835889
-0.9355469, 0.2094727, -0.0258789, -34.7560997, -5.7926831, -1.2804878, -0.0929885
-0.9472656, 0.2124023, -0.0415039, -33.9024391, -4.8170733, -1.4634147, -0.1117876
-0.9682617, 0.2348633, -0.0644531, -33.9024391, -4.5731707, -1.0365853, -0.1560998
-0.9707031, 0.2675781, -0.0878906, -34.0853653, -4.5121951, 0.2439024, -0.1708705
-0.9624023, 0.2758789, -0.0976562, -34.5731697, -4.9390244, 0.3658537, -0.1916838
-0.9418945, 0.2875977, -0.0981445, -35.4878044, -5.670732, 0.4268293, -0.2007477
-0.9355469, 0.2880859, -0.09375, -35.9146347, -6.0975609, 0, -0.1782559
-0.9287109, 0.2827148, -0.0854492, -35.7926826, -6.0975609, -1.4634147, -0.1359579
-0.9291992, 0.2817383, -0.078125, -35.4878044, -6.280488, -2.1341465, -0.0889601
-0.9355469, 0.2617188, -0.0776367, -35.9146347, -6.8292685, -3.1097562, -0.0218204
-0.9350586, 0.2460938, -0.0830078, -36.1585388, -7.3780489, -3.4146342, 0.0466621
-0.9418945, 0.2290039, -0.0957031, -36.341465, -7.5, -3.5975611, 0.105745
-0.9394531, 0.2270508, -0.1064453, -36.7073174, -7.9268293, -3.8414636, 0.1467002
-0.9501953, 0.230957, -0.112793, -37.0121956, -8.1097565, -3.9024391, 0.1678492
-0.9545898, 0.2441406, -0.1166992, -37.8658562, -8.719512, -3.9024391, 0.1473716
-0.9506836, 0.2553711, -0.1166992, -38.4146347, -9.0853662, -3.8414636, 0.1111162
-0.9453125, 0.2763672, -0.0976562, -40.3048782, -9.6341467, -3.9024391, 0.06009
-0.9414062, 0.2866211, -0.0966797, -41.8292694, -9.7560978, -4.390244, -0.0063783
-0.9355469, 0.293457, -0.0751953, -43.6585388, -10.1829271, -4.5731707, -0.0597543
-0.9267578, 0.2924805, -0.059082, -43.9634171, -10.1829271, -4.9390244, -0.0815747
-0.9130859, 0.2617188, -0.0073242, -40.4268303, -9.9390249, -5.670732, -0.0856031
-0.9018555, 0.2338867, 0.0063477, -32.7439041, -10.1829271, -6.9512196, -0.0762036
-0.8964844, 0.1938477, -0.0058594, -29.4512196, -10.2439022, -7.9268293, -0.0574044
-0.9003906, 0.1831055, -0.0141602, -26.9512196, -8.6585369, -10.060976, -0.0258488
-0.9365234, 0.203125, -0.0263672, -26.3414631, -7.3780489, -10.4878054, -0.0023499
-0.9638672, 0.2514648, -0.059082, -25.3658543, -6.5243902, -9.0243902, 0.014435
-0.9560547, 0.2783203, -0.0756836, -26.0365868, -6.890244, -8.2926826, 0.021149
-0.9194336, 0.3051758, -0.097168, -28.2926826, -8.0487804, -7.7439027, 0.0288701
-0.9008789, 0.3149414, -0.097168, -29.8170738, -8.5365858, -8.1097565, 0.0154421
-0.8666992, 0.3300781, -0.109375, -31.8292694, -8.4146347, -9.5731707, -0.0030213
-0.8652344, 0.3349609, -0.1118164, -33.1707306, -7.8658538, -10.2439022, -0.0218204
-0.8671875, 0.3442383, -0.1118164, -35.4268303, -6.8292685, -11.7682934, -0.0271916
-0.8681641, 0.3393555, -0.1069336, -37.1951218, -6.3414636, -13.1097565, -0.0305486
-0.8789062, 0.3134766, -0.1049805, -37.6219521, -6.7073174, -13.5975609, -0.0288701
-0.8891602, 0.2905273, -0.1010742, -37.7439041, -7.1951222, -14.6951227, -0.024506
-0.8950195, 0.2382812, -0.0996094, -36.8902435, -7.3170733, -15.3048782, -0.017792
-0.9160156, 0.1879883, -0.0966797, -35.2439041, -7.0121951, -15.9756098, -0.0070497
-0.9277344, 0.1826172, -0.0981445, -34.0853653, -6.5853658, -16.0975609, -0.0036927
-0.956543, 0.1801758, -0.1088867, -32.8658562, -5.9756098, -16.5853653, -0.0097353
-0.9682617, 0.190918, -0.1083984, -32.3170738, -5.609756, -16.6463413, -0.014435
-0.9838867, 0.222168, -0.1083984, -32.3780479, -5.9756098, -15.5487804, -0.024506
-0.9868164, 0.2348633, -0.1074219, -32.3780479, -6.6463418, -14.9390249, -0.0352483
-0.9643555, 0.2412109, -0.1152344, -32.0121956, -7.8658538, -14.2682934, -0.0325628
-0.9560547, 0.2436523, -0.1142578, -32.3170738, -8.4756098, -14.3292685, -0.03122
-0.9360352, 0.2426758, -0.1137695, -32.3780479, -8.2317076, -14.5731707, -0.0369268
-0.9379883, 0.2490234, -0.0986328, -31.1585369, -7.0731707, -15.1219511, -0.0406195
-0.9458008, 0.2529297, -0.0981445, -29.9390259, -6.7682929, -15.2439032, -0.0433051
-0.9433594, 0.2539062, -0.1142578, -28.1707325, -6.1585369, -15.7926836, -0.0513619
-0.9453125, 0.2475586, -0.1123047, -28.1707325, -6.280488, -16.5853653, -0.056733
-0.9545898, 0.2519531, -0.0917969, -28.5365868, -6.3414636, -17.560976, -0.0584115
-0.956543, 0.2583008, -0.0898438, -28.2317085, -6.4024391, -17.6219521, -0.0674754
-0.9570312, 0.2890625, -0.0952148, -28.7195129, -5.9756098, -17.0731716, -0.073518
-0.9458008, 0.3066406, -0.0932617, -29.2073174, -6.0365853, -16.8902435, -0.063447
-0.9311523, 0.324707, -0.0859375, -29.5121956, -6.0365853, -17.1341476, -0.0641184
-0.9194336, 0.3271484, -0.0825195, -28.9024391, -5.8536587, -18.0487804, -0.0637827
-0.9077148, 0.3100586, -0.0693359, -27.9268303, -5.8536587, -18.2926826, -0.0557259
-0.8989258, 0.28125, -0.0419922, -25.1829281, -5.5487804, -18.9634151, -0.0500191
-0.90625, 0.2666016, -0.0288086, -23.4756107, -4.5121951, -19.5731716, -0.0392767
-0.9296875, 0.2275391, -0.019043, -21.4634151, -2.9878049, -20.4268303, -0.0298772
-0.940918, 0.2075195, -0.0126953, -20.4878044, -3.2926829, -20.4878044, -0.0171206
-0.9853516, 0.1875, -0.0317383, -18.780489, -2.8658538, -20.1829281, -0.0204776
-1.0117188, 0.1870117, -0.0610352, -17.3170738, -2.9878049, -19.3902435, -0.0339055
-1.0078125, 0.1777344, -0.1049805, -13.4756098, -4.7560978, -17.1951218, -0.0486763
-0.996582, 0.184082, -0.1015625, -11.4024391, -5.1829271, -16.3414631, -0.0728466
-0.9921875, 0.2617188, -0.0883789, -9.1463413, -5.1829271, -16.9512196, -0.073518
-0.9985352, 0.3164062, -0.105957, -9.7560978, -5.609756, -15.8536587, -0.0446479
-0.9941406, 0.3955078, -0.1411133, -10.4878054, -6.4024391, -14.3292685, -0.0157778
-0.9394531, 0.4106445, -0.1323242, -11.9512196, -8.4756098, -12.560976, 0.0204776
-0.9023438, 0.3945312, -0.0991211, -11.6463413, -8.841464, -12.8658543, 0.0543832
-0.887207, 0.3857422, -0.0483398, -9.7560978, -7.8048782, -15.1829271, 0.0748608
-0.9086914, 0.3823242, -0.0654297, -8.780488, -6.8292685, -16.2195129, 0.0782177
-0.9331055, 0.3500977, -0.0981445, -7.5609756, -6.8292685, -16.0365849, 0.0721752
-0.9262695, 0.3334961, -0.0751953, -7.7439027, -7.1951222, -15.9146347, 0.0533761
-0.9291992, 0.3466797, -0.0151367, -6.890244, -8.1707315, -17.439024, 0.0365911
-0.9375, 0.3745117, -0.0117188, -7.6829271, -7.7439027, -17.0731716, 0.0077211
-0.9467773, 0.4321289, -0.0361328, -8.9024391, -7.8048782, -15.6097565, -0.0104067
-0.9355469, 0.4467773, -0.0405273, -11.280488, -8.6585369, -13.4146347, -0.0298772
-0.890625, 0.453125, -0.0214844, -12.0121956, -9.0243902, -13.4756098, -0.0486763
-0.8618164, 0.4448242, 0.0161133, -12.1951218, -9.5731707, -15.5487804, -0.0661326
-0.8671875, 0.4443359, 0.0258789, -11.7682934, -9.0243902, -16.3414631, -0.0795605
-0.8950195, 0.4316406, 0.0263672, -11.219512, -7.5, -16.7682934, -0.0950027
-0.9116211, 0.4208984, 0.019043, -11.5243902, -6.7682929, -16.3414631, -0.1064164
-0.9389648, 0.394043, 0.0258789, -12.1341467, -6.7073174, -16.0365849, -0.1134661
-0.9570312, 0.3764648, 0.0327148, -12.1951218, -7.0121951, -15.7926836, -0.115816
-0.9804688, 0.3662109, 0.0322266, -12.1951218, -7.2560978, -14.5731707, -0.1188373
-0.9882812, 0.3696289, 0.0317383, -10.9756098, -8.0487804, -12.9268293, -0.1164874
-0.9912109, 0.3920898, 0.0375977, -10.4268293, -8.3536587, -11.8902445, -0.1211872
-0.9882812, 0.4067383, 0.0458984, -8.2317076, -8.780488, -9.8170738, -0.1171588
-0.9682617, 0.4272461, 0.0390625, -6.8292685, -9.0853662, -9.2682924, -0.1104448
-0.9384766, 0.4243164, 0.0395508, -5.4268293, -9.5121956, -8.4146347, -0.1104448
-0.9291992, 0.4189453, 0.0493164, -5.3658538, -9.0243902, -8.719512, -0.1077592
-0.9741211, 0.4306641, 0.0234375, -3.7195122, -8.4756098, -8.2317076, -0.1037308
-0.980957, 0.4228516, 0.003418, -2.0731707, -9.0243902, -6.890244, -0.1003738
-0.9516602, 0.3916016, 0.0253906, 0.1219512, -10.3658543, -5.3048782, -0.1030594
-0.9448242, 0.3969727, 0.0537109, 0.9756098, -10.6707315, -5.9756098, -0.1050736
-0.9536133, 0.4243164, 0.0683594, 2.7439024, -10.3658543, -6.8292685, -0.1010452
-0.9589844, 0.4335938, 0.0649414, 3.0487804, -9.6951218, -4.9390244, -0.0956741
-0.9643555, 0.4453125, 0.0463867, 3.5365853, -10, -3.7804878, -0.1010452
-0.9550781, 0.4379883, 0.0327148, 5.3048782, -11.280488, -2.9878049, -0.102388
-0.9213867, 0.3911133, 0.0229492, 6.890244, -12.1951218, -3.2926829, -0.0950027
-0.9135742, 0.3881836, 0.0185547, 9.0243902, -11.8292685, -5.1829271, -0.0882887
-0.9301758, 0.3999023, 0.0136719, 9.9390249, -10.6707315, -5.4268293, -0.0795605
-0.9697266, 0.4233398, -0.0229492, 9.5731707, -9.3292685, -4.6341462, -0.0809033
-0.9780273, 0.4228516, -0.0390625, 8.780488, -9.7560978, -3.9024391, -0.076875
-0.9633789, 0.3881836, -0.0537109, 7.1951222, -11.7073174, -2.4390244, -0.0856031
-0.953125, 0.3662109, -0.050293, 7.0121951, -12.8658543, -2.5, -0.0849317
-0.9472656, 0.3359375, -0.0292969, 7.3780489, -12.3170738, -3.1097562, -0.0795605
-0.9575195, 0.3369141, -0.0351562, 8.1707315, -10.5487804, -3.4756098, -0.0741894
-1.0004883, 0.3481445, -0.0800781, 7.8048782, -10.9146347, -2.8658538, -0.073518
-1.0048828, 0.3359375, -0.0927734, 7.0121951, -12.8658543, -1.2195122, -0.0661326
-0.9868164, 0.3212891, -0.0756836, 6.7682929, -14.3292685, -0.9146342, -0.0594186
-0.9716797, 0.3286133, -0.0595703, 6.4024391, -15.3658543, -1.5243902, -0.0570687
-0.9750977, 0.3320312, -0.0644531, 6.280488, -15.3658543, -1.5243902, -0.0533761
-0.9799805, 0.3208008, -0.0678711, 5.4878049, -15.060976, -0.7926829, -0.0530404
-0.9858398, 0.3085938, -0.0644531, 5.3658538, -15, -0.7926829, -0.0439765
-0.9926758, 0.2792969, -0.0605469, 5.7926831, -16.0365849, -0.6097561, -0.0386053
-1, 0.2719727, -0.0556641, 5.9146342, -16.0975609, -0.7926829, -0.0285344
-1.0268555, 0.2578125, -0.0498047, 6.9512196, -16.1585369, -0.9146342, -0.0204776
-1.0405273, 0.2583008, -0.043457, 8.4756098, -15.9146347, -0.1219512, -0.03122
-1.0473633, 0.2563477, -0.0351562, 9.7560978, -16.5243912, 0.6097561, -0.0473335
-1.0473633, 0.2514648, -0.0390625, 12.7439032, -18.0487804, 1.5853659, -0.0426337
-1.03125, 0.2426758, -0.0512695, 13.3536587, -18.1097565, 1.402439, -0.0339055
-1.0273438, 0.2460938, -0.0527344, 14.7560978, -18.4756107, 1.6463414, -0.0302129
-1.0239258, 0.2451172, -0.0507812, 16.5243912, -18.5365849, 2.1341465, -0.0124208
-1.0043945, 0.2485352, -0.0732422, 19.0853672, -18.3536587, 2.804878, 0.014435
-0.9936523, 0.2485352, -0.0820312, 19.1463413, -18.4146347, 2.6829269, 0.0392767
-0.9848633, 0.2602539, -0.0805664, 18.1707325, -18.0487804, 1.8902439, 0.0584115
-0.9853516, 0.2700195, -0.0727539, 18.1097565, -17.9268303, 1.5853659, 0.0587472
-0.9980469, 0.2983398, -0.0727539, 17.8658543, -17.560976, 1.5853659, 0.0500191
-0.9975586, 0.3046875, -0.0800781, 16.4634151, -18.2317085, 1.7682927, 0.0292058
-0.9814453, 0.3012695, -0.081543, 15.8536587, -18.780489, 1.4634147, 0.0090639
-0.9746094, 0.2939453, -0.0854492, 14.3292685, -18.5365849, 0.4878049, -0.011078
-0.9765625, 0.2822266, -0.0874023, 13.9024391, -18.4756107, 0.1829268, -0.0258488
-0.9819336, 0.269043, -0.1103516, 13.4146347, -18.1097565, -0.2439024, -0.0379339
-0.9824219, 0.2583008, -0.1210938, 12.8658543, -18.1097565, -0.3048781, -0.0406195
-0.9848633, 0.2387695, -0.1298828, 11.6463413, -18.4146347, -0.1219512, -0.0426337
-0.9848633, 0.2314453, -0.1245117, 11.0365858, -18.5365849, -0.3048781, -0.0433051
-0.9980469, 0.2280273, -0.1186523, 10.1829271, -18.7195129, -0.5487805, -0.0473335
-1.0073242, 0.2382812, -0.1079102, 9.5731707, -18.4756107, -0.4268293, -0.0782177
-1.0117188, 0.2573242, -0.0878906, 8.9634151, -18.4756107, -0.0609756, -0.0876173
-1.0146484, 0.2685547, -0.0737305, 7.6219516, -19.5121956, 0.1219512, -0.0862745
-0.9956055, 0.2685547, -0.0576172, 7.0731707, -19.8780499, 0.3048781, -0.0637827
-0.9887695, 0.2548828, -0.0498047, 6.1585369, -20.3658543, 0.1219512, -0.0406195
-0.9711914, 0.2319336, -0.0283203, 5.7926831, -20.4268303, -0.1219512, -0.0184634
-0.9765625, 0.2236328, -0.0297852, 5.7926831, -19.5121956, -0.7926829, 0.0070497
-0.9790039, 0.2211914, -0.034668, 6.280488, -19.0243912, -0.8536586, -0.0120851
-0.9995117, 0.2241211, -0.0488281, 6.5243902, -18.5365849, -0.9146342, -0.0929885
-1.0019531, 0.2260742, -0.0546875, 5.9146342, -18.5365849, -0.8536586, -0.1560998
-1.0097656, 0.2353516, -0.0717773, 5.2439027, -18.9634151, -0.5487805, -0.193698
-1.0102539, 0.2441406, -0.0727539, 4.9390244, -18.780489, -0.2439024, -0.1990692
-1.0053711, 0.2548828, -0.0722656, 4.2682929, -19.1463413, -0.5487805, -0.161471
-1.0024414, 0.2587891, -0.0708008, 4.3292685, -19.5121956, -0.5487805, -0.1010452
-0.996582, 0.2583008, -0.0644531, 4.2073174, -19.6341476, -0.4878049, -0.0258488
-0.9916992, 0.253418, -0.0610352, 4.5731707, -19.0853672, -0.9146342, 0.0130922
-0.9985352, 0.253418, -0.0429688, 4.7560978, -18.9024391, -1.5853659, 0.0261845
-1.0097656, 0.253418, -0.0366211, 5.7926831, -18.3536587, -1.5243902, 0.0419623
-1.0078125, 0.2539062, -0.0317383, 6.0365853, -18.5365849, -1.5243902, 0.0540475
-1.0166016, 0.2553711, -0.019043, 6.4634147, -18.2926826, -1.5853659, 0.0218204
-1.0166016, 0.2519531, -0.0146484, 7.1341467, -18.4146347, -1.7073171, -0.0083925
-1.0161133, 0.2392578, -0.0258789, 8.3536587, -18.4146347, -1.7073171, -0.021149
-1.0068359, 0.2358398, -0.0375977, 8.9024391, -18.4146347, -1.6463414, -0.0540475
-0.9970703, 0.2333984, -0.0458984, 8.9634151, -17.9878044, -1.8292683, -0.063447
-0.9960938, 0.246582, -0.0458984, 9.1463413, -17.1341476, -2.0731707, -0.0493477
-1.0004883, 0.2749023, -0.0512695, 9.1463413, -16.7682934, -2.0731707, -0.0298772
-0.9975586, 0.2905273, -0.0541992, 8.4756098, -17.5, -1.8292683, -0.011078
-0.9868164, 0.3144531, -0.0615234, 7.4390244, -17.8048782, -1.7073171, 0.0171206
-0.9628906, 0.3178711, -0.0566406, 5.4268293, -18.1097565, -2.0731707, 0.0439765
-0.9580078, 0.3139648, -0.0527344, 4.5731707, -17.9878044, -2.2560976, 0.0530404
-0.9511719, 0.3105469, -0.0483398, 2.9268293, -17.3780499, -3.2317073, 0.0574044
-0.9487305, 0.3085938, -0.0454102, 2.6219513, -17.1341476, -3.8414636, 0.0466621
-0.9589844, 0.3037109, -0.0410156, 1.3414634, -17.0731716, -4.390244, 0.0224918
-0.9643555, 0.300293, -0.0439453, 0.4268293, -16.8292694, -4.8170733, -0.0073854
-0.9658203, 0.2890625, -0.0419922, -0.8536586, -16.9512196, -4.8170733, -0.0332341
-0.9794922, 0.2861328, -0.0366211, -1.5243902, -16.3414631, -5.3048782, -0.0553902
-0.9912109, 0.2866211, -0.0263672, -1.3414634, -16.4024391, -5.2439027, -0.0651255
-0.9916992, 0.2875977, -0.0263672, -1.2804878, -16.2195129, -5.4878049, -0.073518
-0.9912109, 0.300293, -0.034668, -1.8292683, -16.280489, -5.670732, -0.0829175
-0.9907227, 0.3115234, -0.0302734, -2.9878049, -15.9756098, -5.4268293, -0.0842603
-0.9853516, 0.3149414, -0.019043, -3.4756098, -15.9146347, -5.609756, -0.0876173
-0.9882812, 0.3125, -0.019043, -3.4146342, -15.7926836, -5.3048782, -0.087953
-0.984375, 0.3085938, -0.0219727, -3.6585367, -15.8536587, -5.2439027, -0.0903029
-0.9804688, 0.3095703, -0.0244141, -4.6951222, -15.3048782, -5.4268293, -0.0916457
-0.9848633, 0.3071289, -0.0205078, -5.5487804, -14.8170738, -5.609756, -0.0903029
-0.9892578, 0.3134766, -0.0205078, -6.2195125, -14.2073174, -5.670732, -0.0798962
-0.9892578, 0.3139648, -0.0185547, -7.0731707, -14.1463413, -5.3658538, -0.0755322
-0.9799805, 0.3105469, -0.0180664, -7.5609756, -14.2682934, -5.1219511, -0.076875
-0.9716797, 0.3095703, -0.0126953, -8.0487804, -14.3902445, -5.2439027, -0.0721752
-0.965332, 0.3095703, -0.0117188, -8.2926826, -14.2073174, -5.670732, -0.0661326
-0.9677734, 0.3120117, -0.0117188, -8.5365858, -13.841464, -5.670732, -0.0728466
-0.9726562, 0.3125, -0.0136719, -8.6585369, -13.5365858, -5.670732, -0.0721752
-0.9755859, 0.3125, -0.0175781, -8.780488, -12.9878054, -5.5487804, -0.0674754
-0.9770508, 0.3100586, -0.0185547, -9.1463413, -13.1707315, -5.2439027, -0.0647898
-0.9858398, 0.3081055, -0.0131836, -9.3902445, -13.0487804, -5.3048782, -0.070161
-0.9824219, 0.3076172, -0.0141602, -9.3292685, -12.9268293, -5.2439027, -0.0654612
-0.9863281, 0.3007812, -0.0039062, -9.3292685, -12.4390249, -5.0609756, -0.066804
-0.9931641, 0.2993164, 0.0024414, -8.2926826, -12.3780489, -4.8170733, -0.0637827
-0.996582, 0.2910156, 0.0019531, -7.6829271, -12.4390249, -4.5121951, -0.0624399
-0.9941406, 0.2851562, -0.0043945, -7.3780489, -12.3170738, -4.2073174, -0.0570687
-0.9892578, 0.2773438, -0.0053711, -7.1951222, -12.1951218, -3.9024391, -0.0520333
-0.9907227, 0.2709961, -0.0068359, -6.4634147, -11.7682934, -3.3536587, -0.0493477
-0.987793, 0.2714844, -0.0097656, -6.280488, -11.7682934, -2.9878049, -0.0446479
-0.9746094, 0.2646484, -0.0214844, -5.9756098, -12.0731707, -1.8902439, -0.0513619
-0.96875, 0.2695312, -0.0200195, -6.0365853, -12.0121956, -1.5853659, -0.0513619
-0.9560547, 0.2739258, -0.0136719, -5.609756, -11.6463413, -1.2195122, -0.0459907
-0.9555664, 0.2788086, -0.0112305, -5.609756, -11.5853662, -1.097561, -0.0379339
-0.9516602, 0.2939453, -0.0078125, -5, -10.9756098, -0.6707317, -0.0386053
-0.953125, 0.2988281, -0.0107422, -3.9634147, -11.0365858, -0.6097561, -0.0406195
-0.949707, 0.3037109, -0.0097656, -3.4146342, -10.7317076, -0.3658537, -0.0493477
-0.953125, 0.2983398, -0.0024414, -2.9268293, -10.3048782, 0.2439024, -0.0584115
-0.9511719, 0.2851562, -0.0151367, -2.2560976, -10.060976, 0, -0.0678111
-0.9575195, 0.2807617, -0.0185547, -1.8902439, -10.1219511, 0, -0.063447
-0.9604492, 0.2827148, -0.0244141, -2.0121951, -9.8170738, 0.1219512, -0.0580758
-0.9692383, 0.2836914, -0.0239258, -1.6463414, -9.6341467, 0.7926829, -0.0399481
-0.9726562, 0.2832031, -0.0141602, -0.7926829, -9.5121956, 0.8536586, -0.0154421
-0.9619141, 0.2768555, -0.0161133, 0.2439024, -9.3902445, 1.5853659, 0.0063783
-0.9609375, 0.2768555, -0.0200195, 0.1219512, -9.4512196, 1.4634147, 0.014435
-0.9536133, 0.2739258, -0.0170898, -1.402439, -9.2682924, 1.4634147, 0.0090639
-0.9541016, 0.277832, -0.0141602, -2.1341465, -8.5975609, 1.5853659, -0.0218204
-0.9526367, 0.2758789, -0.0058594, -1.7682927, -8.4146347, 1.7682927, -0.0359197
-0.953125, 0.2709961, 0.0029297, 0.9756098, -8.9634151, 2.3780489, -0.0419623
-0.9355469, 0.2529297, -0.003418, 2.5, -9.0853662, 2.0731707, -0.0359197
-0.9277344, 0.2509766, -0.0087891, 3.4146342, -8.6585369, 1.7682927, -0.0234989
-0.9321289, 0.2539062, -0.0117188, 3.2926829, -7.8048782, 1.7682927, -0.003357
-0.9477539, 0.2792969, -0.0292969, 2.7439024, -6.3414636, 1.8902439, 0.0285344
-0.9511719, 0.2905273, -0.0449219, 2.4390244, -6.0975609, 2.5, 0.0372625
-0.9404297, 0.2915039, -0.0649414, 0.7926829, -7.4390244, 3.3536587, 0.027863
-0.9223633, 0.2841797, -0.0688477, 0.0609756, -7.9878049, 3.5365853, 0.017792
-0.8969727, 0.2744141, -0.0727539, -1.2804878, -7.7439027, 3.2317073, 0.0050355
-0.9013672, 0.2744141, -0.0693359, -1.9512196, -6.5243902, 2.4390244, 0.0020142
-0.9165039, 0.2871094, -0.0727539, -2.0731707, -6.0365853, 2.1341465, 0.0063783
-0.9233398, 0.2910156, -0.0771484, -2.9878049, -6.6463418, 2.1341465, 0.0191348
-0.9316406, 0.2885742, -0.0771484, -3.9634147, -7.0731707, 1.9512196, 0.0332341
-0.934082, 0.2836914, -0.0703125, -5.2439027, -7.5, 1.6463414, 0.0231632
-0.9272461, 0.2749023, -0.0727539, -5.8536587, -7.9878049, 1.5243902, -0.0345769
-0.9223633, 0.2543945, -0.0727539, -6.8292685, -7.8658538, 1.5853659, -0.0674754
-0.9257812, 0.253418, -0.0776367, -7.6219516, -8.0487804, 1.402439, -0.0715038
-0.934082, 0.2548828, -0.078125, -9.9390249, -7.8658538, 1.097561, -0.0674754
-0.9404297, 0.2602539, -0.0795898, -11.4634151, -7.8048782, 0.8536586, -0.0476692
-0.9501953, 0.2700195, -0.074707, -12.9268293, -7.6219516, 1.097561, -0.0224918
-0.9467773, 0.269043, -0.0727539, -14.7560978, -8.3536587, 1.4634147, 0.0063783
-0.9375, 0.2583008, -0.0698242, -15.4268293, -8.841464, 1.5243902, 0.0251774
-0.9291992, 0.2407227, -0.0512695, -15.1219511, -9.0243902, 0.9146342, 0.0238346
-0.9316406, 0.2353516, -0.0395508, -14.4512196, -8.6585369, 0.6707317, 0.0036927
-0.9389648, 0.2128906, -0.0180664, -12.0731707, -7.9268293, 0.3658537, -0.0298772
-0.9472656, 0.2099609, -0.0151367, -10.3658543, -7.9878049, 0.2439024, -0.0728466
-0.9560547, 0.2016602, -0.0258789, -7.3780489, -7.9878049, 0.3048781, -0.1131304
-0.9584961, 0.199707, -0.034668, -6.7073174, -8.1097565, 0.2439024, -0.1305867
-0.965332, 0.2089844, -0.0444336, -5.7926831, -7.8048782, 0.6097561, -0.1487144
-0.9663086, 0.2216797, -0.0537109, -5.670732, -7.6219516, 0.6707317, -0.1594568
-0.9589844, 0.2392578, -0.0610352, -6.3414636, -7.7439027, 1.402439, -0.1560998
-0.9521484, 0.2416992, -0.0644531, -7.0731707, -8.5975609, 2.0121951, -0.1440146
-0.9316406, 0.2368164, -0.0654297, -7.5, -8.780488, 1.8902439, -0.1332723
-0.9199219, 0.230957, -0.0600586, -8.4756098, -8.6585369, 0.6707317, -0.1185016
-0.9223633, 0.2319336, -0.0566406, -8.9024391, -8.5365858, 0.5487805, -0.1067521
-0.9350586, 0.2373047, -0.0585938, -9.3902445, -7.8658538, 0, -0.1050736
-0.9360352, 0.237793, -0.0556641, -9.6951218, -7.8658538, 0.1219512, -0.1104448
-0.9335938, 0.2392578, -0.0576172, -10.3658543, -8.2926826, -0.1219512, -0.1077592
-0.9311523, 0.2421875, -0.0556641, -10.6707315, -8.3536587, -0.3048781, -0.1030594
-0.9267578, 0.237793, -0.0454102, -11.280488, -8.5975609, -0.7926829, -0.0990311
-0.9257812, 0.234375, -0.0361328, -10.6707315, -8.2926826, -0.7317073, -0.1037308
-0.9287109, 0.2290039, -0.0400391, -10, -8.4146347, -0.7926829, -0.112459
-0.9291992, 0.2246094, -0.0385742, -9.8780489, -7.8658538, -1.1585366, -0.1326009
-0.9467773, 0.2299805, -0.0415039, -10.2439022, -7.6219516, -1.6463414, -0.1339437
-0.9672852, 0.2338867, -0.0458984, -10.6097565, -7.1951222, -1.6463414, -0.1285725
-0.9731445, 0.2373047, -0.0463867, -10.7317076, -7.1341467, -1.402439, -0.1117876
-0.9814453, 0.2304688, -0.0444336, -10.5487804, -7.6829271, -0.7926829, -0.0929885
-0.9799805, 0.2207031, -0.0400391, -10.4268293, -7.8048782, -0.7317073, -0.0755322
-0.9819336, 0.2109375, -0.0371094, -9.2073174, -7.9878049, -0.6097561, -0.0557259
-0.9829102, 0.2060547, -0.0405273, -9.0243902, -7.9878049, -0.7317073, -0.0406195
-0.9863281, 0.2026367, -0.0375977, -8.841464, -7.8048782, -0.6097561, -0.03122
-0.9902344, 0.2094727, -0.0268555, -7.5609756, -7.0121951, -0.1219512, -0.0352483
-0.9951172, 0.2250977, -0.0214844, -7.2560978, -7.4390244, 0, -0.0379339
-0.9941406, 0.2397461, -0.0249023, -7.5609756, -7.4390244, 0.3048781, -0.0436408
-0.9863281, 0.2495117, -0.0244141, -7.9878049, -7.6829271, 0.4878049, -0.0715038
-0.9794922, 0.2529297, -0.0195312, -7.1951222, -7.3170733, 0.2439024, -0.0960098
-0.9765625, 0.2524414, -0.0195312, -7.0121951, -7.5, 0.4878049, -0.1003738
-0.9765625, 0.25, -0.0219727, -6.7682929, -7.3780489, -0.2439024, -0.0960098
-0.9804688, 0.2441406, -0.0175781, -6.5243902, -7.0731707, -0.3048781, -0.0876173
-0.9926758, 0.2407227, -0.0195312, -5.2439027, -6.5243902, -0.4878049, -0.0681468
-0.9956055, 0.2441406, -0.019043, -4.6951222, -6.0365853, -0.6097561, -0.0426337
-1.0117188, 0.2460938, -0.0170898, -4.8170733, -6.280488, -1.2195122, -0.0271916
-1.0146484, 0.2548828, -0.015625, -3.9024391, -6.6463418, -1.2195122, -0.0124208
-1.0185547, 0.2646484, -0.0209961, -3.5365853, -6.5243902, -1.1585366, 0.0010071
-1.015625, 0.2651367, -0.0253906, -3.5365853, -6.890244, -0.7926829, -0.0043641
-1.0048828, 0.2670898, -0.034668, -3.6585367, -7.1341467, -0.9756098, -0.0010071
-0.9912109, 0.2670898, -0.0424805, -4.0853658, -7.1951222, -1.1585366, -0.0070497
-0.9916992, 0.2758789, -0.0458984, -4.1463413, -7.1341467, -1.5853659, -0.017792
-0.9848633, 0.28125, -0.0522461, -4.3292685, -7.0731707, -1.402439, -0.011078
-0.9873047, 0.2807617, -0.059082, -4.4512196, -7.1341467, -1.6463414, 0.0010071
-0.9853516, 0.2841797, -0.0654297, -4.5121951, -7.8658538, -1.9512196, 0.0023499
-0.9824219, 0.2827148, -0.0595703, -4.5731707, -7.9878049, -2.1341465, -0.0023499
-0.980957, 0.2866211, -0.0463867, -4.7560978, -7.8048782, -2.6829269, -0.0258488
-0.9829102, 0.2851562, -0.0449219, -3.9634147, -8.1707315, -2.9878049, -0.0607614
-0.9882812, 0.2758789, -0.0439453, -3.7195122, -8.4146347, -2.8658538, -0.0674754
-0.987793, 0.2680664, -0.0439453, -3.8414636, -8.5365858, -3.1707318, -0.0570687
-0.9931641, 0.2573242, -0.0439453, -3.7195122, -8.5975609, -3.3536587, -0.0379339
-1.0019531, 0.2553711, -0.0517578, -3.6585367, -8.719512, -3.5975611, -0.0271916
-1.0078125, 0.2539062, -0.0537109, -3.7804878, -9.0243902, -3.8414636, -0.0030213
-1.0151367, 0.2573242, -0.0546875, -3.7195122, -9.0853662, -3.4146342, 0.0124208
-1.0151367, 0.262207, -0.0537109, -3.5365853, -9.5121956, -3.5365853, 0.0157778
-1.0078125, 0.2714844, -0.0546875, -3.9024391, -10.060976, -3.2926829, 0.0221561
-1.0043945, 0.2768555, -0.0507812, -4.2073174, -10.3658543, -3.6585367, 0.0130922
-1.0048828, 0.2900391, -0.0527344, -4.7560978, -10.6097565, -3.5975611, 0.0010071
-1.0029297, 0.2905273, -0.0512695, -5.3658538, -10.8536587, -3.5365853, -0.0057069
-0.9946289, 0.2832031, -0.0405273, -5.7926831, -11.280488, -3.6585367, -0.0147707
-0.9887695, 0.2768555, -0.0366211, -5.0609756, -10.9756098, -3.8414636, -0.0231632
-0.9902344, 0.2631836, -0.0356445, -4.9390244, -10.9756098, -4.2073174, -0.0325628
-0.9990234, 0.2617188, -0.0371094, -4.8780489, -10.6707315, -4.5731707, -0.0298772
-1.0102539, 0.2626953, -0.0385742, -4.8780489, -10.1829271, -4.7560978, -0.03122
-1.0166016, 0.2700195, -0.0541992, -5.609756, -10.4268293, -4.4512196, -0.0285344
-1.0170898, 0.2763672, -0.0546875, -6.3414636, -10.4268293, -4.4512196, -0.0171206
-1.0083008, 0.2768555, -0.0512695, -7.1951222, -11.219512, -4.5731707, -0.021149
-1.0039062, 0.2807617, -0.0522461, -7.5, -11.341464, -4.390244, -0.024506
-0.9892578, 0.2807617, -0.0537109, -8.2926826, -11.4634151, -4.0853658, -0.0204776
-0.9824219, 0.2797852, -0.0507812, -9.2073174, -11.7682934, -4.6341462, -0.0198062
-0.9814453, 0.2817383, -0.0439453, -9.2682924, -11.5853662, -4.8780489, -0.0137636
-0.9785156, 0.2768555, -0.0424805, -10.1829271, -11.4024391, -4.8170733, -0.0083925
-0.9804688, 0.2763672, -0.0444336, -10.1829271, -11.4634151, -4.9390244, -0.0070497
-0.9848633, 0.2705078, -0.0488281, -10.9146347, -11.5243902, -5.3048782, -0.0016785
-0.9868164, 0.265625, -0.0463867, -11.341464, -11.5243902, -5.1829271, -0.0083925
-0.9931641, 0.2641602, -0.0449219, -11.219512, -11.4634151, -5.5487804, -0.0433051
-0.9936523, 0.2568359, -0.0458984, -11.219512, -11.8292685, -5.4878049, -0.0674754
-0.996582, 0.2470703, -0.0400391, -10.9756098, -11.9512196, -5.4268293, -0.0862745
-0.9946289, 0.2485352, -0.0419922, -10.8536587, -12.0121956, -5.4268293, -0.1050736
-0.9946289, 0.2436523, -0.0400391, -10.2439022, -12.1341467, -5.2439027, -0.1003738
-0.9921875, 0.237793, -0.0429688, -10.060976, -12.1341467, -5.1219511, -0.0688182
-0.9916992, 0.2431641, -0.0419922, -10.6097565, -12.0731707, -5.5487804, -0.0164492
-0.9936523, 0.2456055, -0.0395508, -10.6707315, -12.3780489, -5.1219511, 0.0318914
-0.9868164, 0.2592773, -0.0449219, -10.5487804, -12.6829271, -5.1219511, 0.0641184
-0.9736328, 0.2700195, -0.0444336, -11.0365858, -12.9878054, -5.0609756, 0.0842603
-0.96875, 0.2700195, -0.0498047, -11.341464, -13.1707315, -4.8780489, 0.0775463
-0.9584961, 0.2670898, -0.0385742, -11.7073174, -12.8658543, -4.8780489, 0.0480049
-0.9633789, 0.2607422, -0.0327148, -11.0365858, -12.560976, -5.2439027, 0.0157778
-0.9536133, 0.2524414, -0.0302734, -10.7926836, -12.0121956, -5.1829271, -0.010071
-0.956543, 0.2475586, -0.027832, -10.4268293, -12.2560978, -5.2439027, -0.0332341
-0.9633789, 0.2387695, -0.0351562, -9.6951218, -11.7682934, -5.3658538, -0.0500191
-0.9614258, 0.2260742, -0.0424805, -9.3292685, -11.7073174, -5.3658538, -0.0607614
-0.972168, 0.2084961, -0.0131836, -8.4756098, -11.219512, -5.0609756, -0.0674754
-0.987793, 0.2109375, -0.0141602, -6.2195125, -10.3048782, -4.6951222, -0.0688182
-1.0112305, 0.2314453, -0.0532227, -5.9756098, -10.4268293, -4.2682929, -0.0721752
-1.0039062, 0.2441406, -0.0776367, -7.6829271, -12.0121956, -4.0243902, -0.073518
-0.9916992, 0.2548828, -0.0727539, -8.5365858, -13.3536587, -3.9024391, -0.0688182
-0.9541016, 0.2719727, -0.0654297, -9.5121956, -13.7195129, -2.6829269, -0.0674754
-0.9360352, 0.269043, -0.0639648, -9.9390249, -13.5975609, -2.6219513, -0.0674754
-0.9331055, 0.2651367, -0.0551758, -10.060976, -13.0487804, -3.9634147, -0.0647898
-0.9458008, 0.2661133, -0.0454102, -10, -12.8048782, -4.3292685, -0.0607614
-0.9614258, 0.2788086, -0.0454102, -10.5487804, -12.1341467, -4.5121951, -0.0621042
-0.9692383, 0.2797852, -0.0473633, -11.4024391, -11.9512196, -4.4512196, -0.063447
-0.9731445, 0.2700195, -0.0458984, -11.5243902, -12.4390249, -4.5121951, -0.056733
-0.9702148, 0.2602539, -0.0415039, -11.8902445, -12.8658543, -4.9390244, -0.0540475
-0.9711914, 0.2456055, -0.0332031, -12.0121956, -12.7439032, -4.8780489, -0.0607614
-0.9794922, 0.2358398, -0.03125, -11.8292685, -12.0121956, -5.2439027, -0.0594186
-0.9853516, 0.2387695, -0.0297852, -11.8292685, -11.6463413, -4.9390244, -0.0647898
-0.9892578, 0.2504883, -0.0341797, -12.0731707, -11.8292685, -4.7560978, -0.0694896
-0.9848633, 0.2519531, -0.0336914, -12.0121956, -12.1951218, -4.5731707, -0.063447
-0.9702148, 0.2563477, -0.0380859, -11.5853662, -12.3780489, -4.0853658, -0.0587472
-0.9643555, 0.2553711, -0.0410156, -11.7682934, -12.1341467, -4.0853658, -0.0533761
-0.9580078, 0.253418, -0.0415039, -11.5853662, -11.8292685, -4.3292685, -0.0527047
-0.956543, 0.2509766, -0.0375977, -12.0121956, -11.5243902, -4.2682929, -0.0466621
-0.9624023, 0.2519531, -0.0415039, -11.8292685, -11.1585369, -4.6951222, -0.0506905
-0.9643555, 0.2514648, -0.0395508, -11.5243902, -10.5487804, -4.4512196, -0.0459907
-0.9711914, 0.2416992, -0.0229492, -11.280488, -10.4268293, -4.2682929, -0.0372625
-0.9765625, 0.2275391, -0.0146484, -10.2439022, -10.1829271, -4.3292685, -0.0406195
-0.9775391, 0.2250977, -0.0087891, -10.1219511, -10.2439022, -4.2073174, -0.0433051
-0.9848633, 0.21875, -0.0112305, -9.1463413, -10.060976, -3.9634147, -0.0459907
-0.9853516, 0.2211914, -0.0131836, -9.0853662, -9.7560978, -3.4146342, -0.0473335
-0.9853516, 0.2236328, -0.019043, -8.5365858, -10.060976, -2.6829269, -0.0506905
-0.9760742, 0.2197266, -0.0263672, -8.6585369, -10.060976, -2.4390244, -0.0500191
-0.9633789, 0.2241211, -0.0322266, -8.719512, -10, -2.195122, -0.0527047
-0.9643555, 0.2265625, -0.0351562, -8.4756098, -9.0853662, -2.195122, -0.0486763
-0.9624023, 0.2368164, -0.0366211, -8.3536587, -8.719512, -2.195122, -0.0221561
-0.9692383, 0.2392578, -0.0390625, -7.6829271, -8.3536587, -2.0121951, 0.0104067
-0.9711914, 0.2504883, -0.0478516, -7.7439027, -8.4146347, -1.8902439, 0.021149
-0.9736328, 0.2553711, -0.0561523, -8.5975609, -8.5975609, -1.8292683, 0.0151064
-0.9755859, 0.2602539, -0.0527344, -9.0853662, -8.2926826, -1.7682927, 0.0077211
-0.9765625, 0.2563477, -0.0410156, -8.6585369, -8.2317076, -1.6463414, 0.0016785
-0.9775391, 0.2504883, -0.043457, -8.2317076, -8.3536587, -1.5243902, -0.010071
-0.9711914, 0.2441406, -0.0458984, -8.4146347, -8.719512, -1.7073171, -0.021149
-0.9716797, 0.2426758, -0.0380859, -8.5975609, -8.4756098, -1.7682927, -0.0221561
-0.9936523, 0.246582, -0.0244141, -8.4146347, -7.4390244, -1.8292683, -0.0298772
-0.9970703, 0.2495117, -0.0268555, -7.6219516, -7.5609756, -1.0365853, -0.03122
-0.9941406, 0.2509766, -0.0341797, -7.4390244, -7.9268293, -0.7926829, -0.0325628
-0.9887695, 0.2441406, -0.0332031, -7.9878049, -8.3536587, -0.4268293, -0.0332341
-0.9785156, 0.2382812, -0.0263672, -8.3536587, -7.9268293, -0.6097561, -0.0513619
-0.9785156, 0.234375, -0.0224609, -6.8292685, -7.1341467, -0.2439024, -0.056733
-0.9775391, 0.2304688, -0.0249023, -5.9756098, -7.0121951, 0.0609756, -0.0654612
-0.9697266, 0.2270508, -0.0351562, -5.2439027, -6.890244, 0.2439024, -0.0809033
-0.9760742, 0.2231445, -0.0322266, -5.0609756, -6.5243902, 0.1219512, -0.0755322
-0.9785156, 0.2275391, -0.0322266, -4.0243902, -6.0975609, 0.4268293, -0.0688182
-0.9833984, 0.237793, -0.0449219, -3.7804878, -5.670732, 0.7317073, -0.0661326
-0.9873047, 0.2612305, -0.0493164, -3.9024391, -5.670732, 1.402439, -0.0607614
-0.9799805, 0.265625, -0.0415039, -3.0487804, -6.2195125, 1.5243902, -0.0574044
-0.9648438, 0.2514648, -0.0322266, -1.9512196, -6.280488, 1.8902439, -0.0540475
-0.9599609, 0.2441406, -0.0307617, -0.7317073, -5.609756, 1.7073171, -0.0513619
-0.9638672, 0.2329102, -0.0307617, -1.097561, -4.8170733, 1.5853659, -0.0580758
-0.9936523, 0.246582, -0.0244141, -1.2195122, -3.2317073, 1.6463414, -0.0506905
-1.0053711, 0.2495117, -0.0239258, -1.5243902, -2.7439024, 1.9512196, -0.0513619
-1.0180664, 0.2514648, -0.0302734, -2.6829269, -3.6585367, 2.9268293, -0.0533761
-1.0097656, 0.2436523, -0.0351562, -2.9878049, -4.1463413, 3.1097562, -0.0540475
-1.0014648, 0.234375, -0.0258789, -4.1463413, -4.390244, 3.8414636, -0.0547189
-0.9980469, 0.2333984, -0.0268555, -4.2682929, -3.9634147, 3.9634147, -0.0506905
-1, 0.2397461, -0.0390625, -4.390244, -3.5975611, 4.0853658, -0.0540475
-1.0014648, 0.2441406, -0.0488281, -5.4878049, -3.8414636, 4.3292685, -0.0533761
-0.9936523, 0.2504883, -0.0541992, -5.7926831, -3.8414636, 4.6341462, -0.0503548
-0.9921875, 0.2509766, -0.0380859, -3.6585367, -4.2682929, 5, -0.0520333
-0.9838867, 0.2456055, -0.046875, -1.8902439, -4.6951222, 5.3658538, -0.0587472
-0.9785156, 0.2294922, -0.0615234, -0.5487805, -4.8780489, 4.8780489, -0.0674754
-0.9750977, 0.2255859, -0.0595703, -0.3048781, -4.3292685, 4.9390244, -0.070161
-0.9897461, 0.246582, -0.0571289, 0.2439024, -3.2926829, 5.3048782, -0.0708324
-0.9975586, 0.2612305, -0.0644531, -0.1219512, -3.2926829, 5.670732, -0.070161
-0.9990234, 0.2749023, -0.0737305, -1.9512196, -4.1463413, 6.7073174, -0.0684825
-0.9921875, 0.2788086, -0.0732422, -2.7439024, -4.6341462, 6.7682929, -0.0688182
-0.9760742, 0.28125, -0.0756836, -4.390244, -5.609756, 6.6463418, -0.0681468
-0.9731445, 0.2792969, -0.0751953, -6.1585369, -5.4268293, 6.5243902, -0.066804
-0.9711914, 0.2739258, -0.0541992, -6.6463418, -5.4268293, 6.4634147, -0.0614328
-0.9711914, 0.265625, -0.0317383, -4.3292685, -5.670732, 6.0365853, -0.063447
-0.972168, 0.2548828, -0.0366211, -2.8658538, -6.2195125, 6.1585369, -0.0647898
-0.965332, 0.2392578, -0.0488281, -1.9512196, -6.7682929, 5.7926831, -0.0594186
-0.9682617, 0.2392578, -0.0444336, -1.8902439, -6.3414636, 5.4878049, -0.0627756
-0.9824219, 0.2524414, -0.0498047, -2.195122, -4.8170733, 5.4878049, -0.0580758
-0.9882812, 0.265625, -0.0561523, -2.8658538, -4.2073174, 5.9146342, -0.0493477
-0.9873047, 0.2929688, -0.0664062, -4.6951222, -5.1219511, 6.4024391, -0.0527047
-0.9819336, 0.2983398, -0.0678711, -6.0365853, -5.7317076, 6.7073174, -0.0493477
-0.9609375, 0.2973633, -0.0727539, -8.3536587, -6.5853658, 6.4024391, -0.0493477
-0.956543, 0.293457, -0.0678711, -10.7926836, -6.5243902, 5.9756098, -0.0486763
-0.9575195, 0.2924805, -0.0629883, -11.6463413, -6.0365853, 5.7317076, -0.0446479
-0.9702148, 0.284668, -0.0610352, -13.2926836, -5.8536587, 5.1829271, -0.0446479
-0.9755859, 0.2836914, -0.0605469, -14.1463413, -6.5853658, 5.1219511, -0.0486763
-0.9770508, 0.2646484, -0.0610352, -15.3658543, -7.0731707, 4.7560978, -0.0527047
-0.9785156, 0.2641602, -0.0581055, -15.7317076, -7.1341467, 4.8170733, -0.0459907
-0.9853516, 0.2592773, -0.0390625, -15.8536587, -7.5, 4.7560978, -0.0446479
-0.9873047, 0.2587891, -0.0292969, -15.3658543, -7.3170733, 4.9390244, -0.0412909
-0.9804688, 0.2480469, -0.0273438, -13.780488, -7.6219516, 5.3658538, -0.0406195
-0.9780273, 0.2446289, -0.0292969, -13.4756098, -8.1097565, 5.4878049, -0.0396124
-0.9780273, 0.2470703, -0.0327148, -13.5365858, -8.1707315, 5.4268293, -0.0325628
-0.980957, 0.2470703, -0.0288086, -12.9268293, -7.5, 5.1219511, -0.03122
-0.9819336, 0.2436523, -0.03125, -12.0731707, -7.6219516, 5.609756, -0.0248417
-0.9746094, 0.2426758, -0.0493164, -11.6463413, -7.9878049, 5.8536587, -0.0191348
-0.9707031, 0.2485352, -0.0527344, -12.1341467, -8.0487804, 5.8536587, -0.017792
-0.9750977, 0.2607422, -0.0483398, -12.1341467, -7.8658538, 5.1829271, -0.0224918
-0.9814453, 0.269043, -0.0537109, -12.560976, -7.6219516, 4.8170733, -0.0234989
-0.9794922, 0.284668, -0.059082, -12.4390249, -7.9268293, 4.9390244, -0.0198062
-0.9731445, 0.2832031, -0.0634766, -12.6829271, -8.2317076, 4.8780489, -0.0043641
-0.9692383, 0.2734375, -0.0639648, -13.5975609, -8.9024391, 4.5121951, 0.0060426
-0.9628906, 0.2695312, -0.0620117, -13.9634151, -8.9024391, 3.7804878, 0.0023499
-0.9633789, 0.2666016, -0.0488281, -13.9634151, -8.6585369, 3.7804878, -0.0137636
-0.9667969, 0.2626953, -0.0522461, -13.6585369, -9.0243902, 3.7195122, -0.0328985
-0.9628906, 0.2539062, -0.059082, -13.9634151, -9.0243902, 3.5975611, -0.0409552
-0.9633789, 0.2519531, -0.0566406, -14.3902445, -9.1463413, 3.1707318, -0.0392767
-0.9692383, 0.253418, -0.0551758, -14.5121956, -8.9634151, 2.6829269, -0.0285344
-0.9726562, 0.2661133, -0.0629883, -15.5487804, -8.719512, 2.6219513, -0.017792
-0.9760742, 0.2670898, -0.0668945, -16.0975609, -9.0243902, 2.3780489, -0.0063783
-0.9741211, 0.2700195, -0.0610352, -17.0121956, -9.5121956, 2.3780489, -0.0090639
-0.9716797, 0.2675781, -0.0639648, -17.3170738, -9.6951218, 2.3170731, -0.0104067
-0.9707031, 0.2514648, -0.0610352, -18.1707325, -10, 2.195122, -0.0191348
-0.9707031, 0.2441406, -0.0581055, -18.1707325, -10.2439022, 1.7682927, -0.0352483
-0.9785156, 0.230957, -0.0463867, -17.8048782, -10.060976, 1.5853659, -0.06009
-0.9824219, 0.2329102, -0.0458984, -17.3780499, -10.3658543, 1.8292683, -0.0728466
-0.9833984, 0.2299805, -0.0444336, -17.560976, -10.3658543, 1.5853659, -0.0795605
-0.9897461, 0.2363281, -0.0424805, -17.6219521, -10.5487804, 1.8292683, -0.0809033
-0.9868164, 0.2392578, -0.0424805, -17.0731716, -10.8536587, 1.8292683, -0.0755322
-0.9804688, 0.2426758, -0.0361328, -17.0121956, -11.219512, 1.8902439, -0.0715038
-0.9755859, 0.2441406, -0.0322266, -16.9512196, -10.9756098, 1.9512196, -0.0708324
-0.9765625, 0.2480469, -0.0214844, -16.0975609, -10.4268293, 1.4634147, -0.0661326
-0.9780273, 0.2480469, -0.027832, -16.1585369, -10.3048782, 1.097561, -0.0651255
-0.9804688, 0.2573242, -0.0366211, -17.0121956, -10.4878054, 0.9146342, -0.06009
-0.9833984, 0.2583008, -0.0415039, -17.5, -10.3048782, 0.7926829, -0.0651255
-0.9790039, 0.2573242, -0.0522461, -18.2317085, -10.3658543, 0.6097561, -0.073518
-0.9750977, 0.2583008, -0.0600586, -19.3902435, -10.3048782, 0.3658537, -0.0788891
-0.9863281, 0.2573242, -0.0605469, -19.939024, -10.4268293, 0, -0.0795605
-0.9936523, 0.2578125, -0.0683594, -21.0365868, -10.4268293, -0.4878049, -0.0835889
-0.9921875, 0.2626953, -0.0712891, -21.5853672, -10.6707315, -0.7317073, -0.1185016
-0.9907227, 0.2636719, -0.0751953, -22.7439022, -10.9146347, -1.2195122, -0.1326009
-0.9926758, 0.2597656, -0.0810547, -23.3536587, -11.0365858, -1.3414634, -0.1292439
-0.9892578, 0.2519531, -0.0917969, -24.2073174, -11.219512, -1.8292683, -0.1097734
-0.9858398, 0.246582, -0.0874023, -24.5731716, -11.7073174, -1.8902439, -0.0795605
-0.9765625, 0.2387695, -0.0888672, -26.0365868, -12.2560978, -2.0731707, -0.0486763
-0.9707031, 0.2382812, -0.0917969, -27.3780499, -12.4390249, -2.1341465, -0.021149
-0.9692383, 0.2368164, -0.0849609, -28.5365868, -12.560976, -2.3780489, 0.0097353
-0.9711914, 0.2368164, -0.0756836, -29.8170738, -12.1951218, -2.6219513, 0.0302129
-0.9765625, 0.2436523, -0.0717773, -30.7926846, -12.1951218, -2.6219513, 0.0305486
-0.9741211, 0.2485352, -0.0693359, -32.4390259, -12.5, -2.8658538, 0.0171206
-0.9790039, 0.2451172, -0.0673828, -33.0487823, -12.4390249, -3.1097562, 0.0070497
-0.9873047, 0.2358398, -0.0571289, -33.841465, -12.6219511, -3.7804878, -0.0057069
-0.9946289, 0.2255859, -0.0532227, -33.6585388, -12.6829271, -3.7195122, -0.0137636
-1.0004883, 0.206543, -0.0522461, -31.2195129, -13.5975609, -3.5975611, -0.0285344
-0.996582, 0.1987305, -0.0610352, -30.1219521, -13.9024391, -3.6585367, -0.0365911
-0.9941406, 0.1904297, -0.0727539, -28.5975609, -14.3292685, -3.6585367, -0.0379339
-0.9946289, 0.1904297, -0.0756836, -27.4390259, -13.5365858, -3.4146342, -0.0392767
-1.0029297, 0.2006836, -0.0776367, -26.5853672, -13.841464, -2.9878049, -0.0436408
-1.0024414, 0.2089844, -0.078125, -26.5853672, -14.0853662, -2.4390244, -0.0459907
-0.9858398, 0.2172852, -0.0683594, -26.8292694, -14.2073174, -2.0731707, -0.0500191
-0.9838867, 0.2207031, -0.0522461, -27.4390259, -14.2073174, -2.5, -0.0540475
-0.9814453, 0.2304688, -0.0419922, -27.5, -13.780488, -2.5609756, -0.0553902
-0.9780273, 0.2285156, -0.0361328, -27.9878063, -13.7195129, -2.3780489, -0.0486763
-0.9804688, 0.2285156, -0.0356445, -28.2926826, -13.5365858, -2.3780489, -0.0540475
-0.9780273, 0.215332, -0.0395508, -28.9024391, -12.9878054, -2.0731707, -0.0506905
-0.9760742, 0.206543, -0.0410156, -29.0243912, -12.6219511, -1.8902439, -0.0513619
-0.9746094, 0.1982422, -0.0454102, -29.5121956, -11.8292685, -1.7682927, -0.0570687
-0.9819336, 0.1943359, -0.0458984, -29.2682934, -11.219512, -1.4634147, -0.0433051
-0.9858398, 0.1796875, -0.0507812, -29.2073174, -10.7926836, -1.097561, -0.0359197
-0.9897461, 0.1796875, -0.0522461, -28.4146347, -10.2439022, -0.7317073, -0.042298
-0.9912109, 0.1826172, -0.0537109, -28.1097565, -10.2439022, -0.7317073, -0.0459907
-0.9946289, 0.1899414, -0.0576172, -28.0487804, -10.060976, -0.0609756, -0.0469978
-0.9951172, 0.199707, -0.0581055, -27.9268303, -9.6951218, 0, -0.0419623
-0.9897461, 0.2089844, -0.0615234, -28.5365868, -9.5731707, 0.9756098, -0.027863
-0.9882812, 0.2099609, -0.0693359, -28.3536587, -9.3902445, 1.2804878, -0.0164492
-0.9799805, 0.2163086, -0.0810547, -29.0853672, -9.3902445, 1.7073171, -0.0043641
-0.9726562, 0.2148438, -0.090332, -29.3292694, -9.0853662, 1.5853659, 0.0010071
-0.9643555, 0.1992188, -0.0942383, -29.4512196, -8.780488, 2.1341465, 0.0043641
-0.9638672, 0.190918, -0.097168, -27.0121956, -8.6585369, 2.6219513, -0.0204776
-0.9516602, 0.1860352, -0.1064453, -26.280489, -8.780488, 2.9268293, -0.0547189
-0.9467773, 0.1845703, -0.1157227, -26.2195129, -8.2317076, 3.1097562, -0.0943313
-0.9511719, 0.1962891, -0.1162109, -26.4634151, -8.3536587, 3.1707318, -0.1010452
-0.9541016, 0.222168, -0.1191406, -26.7682934, -7.8658538, 3.4146342, -0.0809033
-0.9589844, 0.2358398, -0.1142578, -27.0731716, -7.9878049, 3.5365853, -0.0584115
-0.9619141, 0.2592773, -0.1040039, -27.7439022, -7.8658538, 3.7804878, -0.0520333
-0.9648438, 0.2680664, -0.0952148, -27.4390259, -8.4146347, 4.1463413, -0.0409552
-0.9663086, 0.2695312, -0.1113281, -26.4024391, -8.1097565, 4.1463413, -0.03122
-0.9628906, 0.269043, -0.1254883, -26.2195129, -7.9268293, 4.1463413, -0.0258488
-0.9775391, 0.2558594, -0.1416016, -26.7073174, -7.6219516, 4.0853658, -0.0164492
-0.987793, 0.246582, -0.1411133, -25.3048782, -6.6463418, 4.4512196, -0.0030213
-1.0073242, 0.2333984, -0.152832, -24.3292694, -6.5853658, 4.7560978, 0.0090639
-1.0092773, 0.2265625, -0.1621094, -22.1341476, -7.3170733, 6.0365853, 0.0137636
-1.0161133, 0.2250977, -0.1772461, -20.7317085, -7.8658538, 6.4024391, 0.0137636
-1.0151367, 0.2333984, -0.1791992, -17.6219521, -8.1097565, 7.1341467, 0.0063783
-1.0180664, 0.237793, -0.175293, -15.4878054, -7.9268293, 7.7439027, -0.0070497
-1.0112305, 0.2436523, -0.1669922, -10.3658543, -8.2926826, 9.4512196, -0.0365911
-1.0053711, 0.2470703, -0.1674805, -7.9878049, -8.5975609, 10.1829271, -0.0728466
-0.9946289, 0.2475586, -0.1416016, -5.0609756, -8.1707315, 11.6463413, -0.1094377
-0.9931641, 0.2451172, -0.1176758, -4.4512196, -7.6219516, 11.9512196, -0.1282368
-0.9887695, 0.2363281, -0.0605469, -2.804878, -5.7926831, 13.2926836, -0.1218585
-0.9941406, 0.2290039, -0.0336914, -1.6463414, -3.9024391, 15.060976, -0.1171588
-0.9946289, 0.2128906, 0.0092773, -1.3414634, -2.9878049, 15.7926836, -0.0970169
-0.9941406, 0.2109375, 0.0273438, -1.7073171, -0.3658537, 16.9512196, -0.0651255
-0.9975586, 0.2138672, 0.0688477, -2.0121951, 1.6463414, 17.6219521, -0.0369268
-0.9995117, 0.2148438, 0.0922852, -3.1707318, 4.9390244, 18.780489, -0.0137636
-1.0043945, 0.215332, 0.0981445, -3.5975611, 6.280488, 19.2682934, 0.0030213
-1.0087891, 0.1992188, 0.0996094, -4.4512196, 9.3292685, 20.3048782, 0.0151064
-1.0112305, 0.1845703, 0.0883789, -5.0609756, 10.3048782, 20.4268303, 0.0130922
-1.0102539, 0.1791992, 0.0449219, -5.9146342, 12.9268293, 21.3414631, 0.0050355
-1.012207, 0.1806641, 0.019043, -6.4634147, 14.3902445, 21.7073174, -0.0046998
-1.0219727, 0.2026367, -0.0317383, -6.8292685, 17.8658543, 22.3780499, -0.0191348
-1.027832, 0.2226562, -0.0541992, -7.9268293, 20.2439022, 22.9878063, -0.0298772
-1.027832, 0.2670898, -0.0898438, -8.9024391, 20.8536587, 23.6585369, -0.0399481
-1.0273438, 0.2910156, -0.1054688, -10.4878054, 21.5853672, 24.6341476, -0.0459907
-1.0136719, 0.3481445, -0.1469727, -11.0365858, 21.7073174, 24.9390259, -0.0594186
-1.0087891, 0.390625, -0.1791992, -12.560976, 21.7682934, 25.2439022, -0.0661326
-1.0053711, 0.4013672, -0.1845703, -13.2317076, 21.7073174, 25.3048782, -0.070161
-1.0043945, 0.4072266, -0.1796875, -13.9024391, 20.4268303, 25.5487804, -0.0688182
-1.0029297, 0.3964844, -0.1767578, -13.9634151, 19.6341476, 25.3048782, -0.0607614
-1.0180664, 0.3540039, -0.1616211, -14.2073174, 18.5365849, 25.060976, -0.0506905
-1.0219727, 0.331543, -0.15625, -14.3292685, 18.3536587, 24.8780499, -0.063447
-1.050293, 0.284668, -0.1269531, -11.7073174, 18.780489, 24.6341476, -0.1003738
-1.0634766, 0.2592773, -0.1142578, -4.7560978, 18.5365849, 25.8536587, -0.1292439
-1.0727539, 0.2285156, -0.1362305, -1.8292683, 18.2317085, 26.7073174, -0.1299153
-1.0771484, 0.2202148, -0.1479492, 1.4634147, 18.4146347, 27.7439022, -0.1198444
-1.0839844, 0.2294922, -0.1425781, 3.2926829, 18.5365849, 28.4146347, -0.1211872
-1.0961914, 0.2817383, -0.1713867, 7.2560978, 18.9634151, 30.3658543, -0.1215229
-1.09375, 0.3164062, -0.1967773, 8.4146347, 19.2073174, 31.0365868, -0.1097734
-1.0830078, 0.3842773, -0.2011719, 8.9024391, 19.3902435, 32.2560997, -0.0903029
-1.0756836, 0.4042969, -0.2070312, 9.5121956, 18.8414631, 32.8048782, -0.0674754
-1.0546875, 0.4238281, -0.1777344, 9.0853662, 17.439024, 33.5365868, -0.0433051
-1.0410156, 0.4160156, -0.1542969, 8.841464, 16.8292694, 33.3536606, -0.0167849
-1.0083008, 0.3803711, -0.1005859, 6.8292685, 17.7439022, 32.9268303, 0.0077211
-1.0024414, 0.3647461, -0.081543, 6.0365853, 20.4878044, 32.2560997, 0.0352483
-0.9892578, 0.3510742, -0.0732422, 6.1585369, 21.8292694, 32.0731697, 0.0587472
-0.987793, 0.3549805, -0.0844727, 7.8048782, 25.1219521, 33.4756088, 0.0520333
-0.9916992, 0.3706055, -0.0961914, 8.841464, 27.1341476, 33.7195129, 0.0137636
-1, 0.3876953, -0.0844727, 10.1219511, 30.9756107, 34.2682953, -0.0265202
-1.0131836, 0.3950195, -0.0805664, 9.9390249, 32.7439041, 34.4512215, -0.0560616
-1.0263672, 0.4003906, -0.0820312, 9.0853662, 35.2439041, 35, -0.066804
-1.0283203, 0.4008789, -0.0893555, 8.4146347, 36.7073174, 35.5487823, -0.0409552
-1.0151367, 0.3916016, -0.1049805, 6.890244, 39.8780479, 36.7073174, -0.0063783
-1.0131836, 0.3911133, -0.1142578, 6.7073174, 41.341465, 37.3170738, 0.0238346
-1.0063477, 0.3955078, -0.1435547, 5.3658538, 45.0609779, 38.7195129, 0.0386053
-1.0009766, 0.4023438, -0.1464844, 3.4756098, 49.0243912, 39.0853653, 0.0392767
-1.0107422, 0.4121094, -0.1245117, 2.804878, 51.2804909, 39.1463432, 0.0238346
-1.0146484, 0.4194336, -0.1171875, 2.4390244, 54.5121956, 39.5731735, 0.0090639
-1.019043, 0.4208984, -0.125, 2.2560976, 56.0365868, 39.8780479, -0.0157778
-1.0141602, 0.3857422, -0.1552734, 3.0487804, 59.2073174, 41.2195129, -0.0365911
-1.019043, 0.3662109, -0.1655273, 3.5365853, 60.4878044, 41.9512215, -0.0433051
-1.0195312, 0.3261719, -0.1772461, 5.1219511, 63.5365868, 43.3536606, -0.0476692
-1.0229492, 0.3061523, -0.1855469, 6.7682929, 65.3658524, 43.9634171, -0.0486763
-1.0405273, 0.277832, -0.2197266, 10.060976, 68.3536606, 45.6707344, -0.0610971
-1.0478516, 0.2788086, -0.2382812, 10.9146347, 69.7560959, 46.4024391, -0.0755322
-1.0688477, 0.3037109, -0.2436523, 11.5853662, 72.1951218, 47.9878044, -0.102388
-1.0791016, 0.3334961, -0.2392578, 11.7073174, 74.8170776, 49.5121956, -0.1332723
-1.0888672, 0.3916016, -0.2363281, 12.0731707, 75.8536606, 50.8536606, -0.148043
-1.0703125, 0.4414062, -0.2519531, 12.1951218, 77.2560959, 52.9878044, -0.1393149
-1.0566406, 0.4550781, -0.2680664, 11.8292685, 77.7439041, 54.0243912, -0.1279011
-1.0219727, 0.4516602, -0.2998047, 12.560976, 79.146347, 55.1219521, -0.1064164
-1.0146484, 0.4379883, -0.3168945, 13.0487804, 80, 55.6707344, -0.0889601
-1.0063477, 0.4052734, -0.3413086, 14.7560978, 81.8902435, 55.9146347, -0.0728466
-1.0083008, 0.3857422, -0.3491211, 15, 82.8048782, 55.8536606, -0.0621042
-1.0292969, 0.3476562, -0.3481445, 16.0975609, 84.4512253, 56.0975609, -0.0553902
-1.0419922, 0.3383789, -0.3515625, 16.7073174, 85, 56.4024391, -0.0480049
-1.0683594, 0.347168, -0.3764648, 18.5975609, 86.8902435, 57.8658562, -0.042298
-1.0708008, 0.3701172, -0.3842773, 19.5731716, 88.7804871, 59.6951218, -0.0453193
-1.0825195, 0.4262695, -0.3823242, 19.2073174, 89.6341476, 60.5487823, -0.0419623
-1.0776367, 0.4638672, -0.3720703, 18.5365849, 90.5487823, 62.1951218, -0.0486763
-1.0664062, 0.4765625, -0.3686523, 17.7439022, 91.0975647, 62.9878082, -0.0500191
-1.0454102, 0.4926758, -0.3930664, 16.0975609, 91.9512253, 63.5975609, -0.0570687
-1.0317383, 0.4931641, -0.4018555, 15.9146347, 92.68293, 63.9634171, -0.0614328
-1.0224609, 0.4829102, -0.402832, 16.8902435, 94.8780518, 63.9024391, -0.0580758
-1.0200195, 0.4677734, -0.3989258, 17.439024, 95.9756088, 63.5365868, -0.0533761
-1.0327148, 0.4296875, -0.3769531, 18.1707325, 97.1951218, 63.0487823, -0.0473335
-1.0336914, 0.4135742, -0.3666992, 18.780489, 97.8048782, 62.6219521, -0.0466621
-1.046875, 0.394043, -0.3823242, 19.8780499, 99.4512253, 63.1707344, -0.0449836
-1.0556641, 0.3964844, -0.3930664, 20.4268303, 102.3170776, 64.3902435, -0.0459907
-1.0712891, 0.4135742, -0.4140625, 20.4268303, 103.5975647, 65.3658524, -0.0372625
-1.0795898, 0.4399414, -0.4418945, 20.4268303, 105.5487823, 67.3780518, -0.0325628
-1.0791016, 0.4526367, -0.4501953, 20.3658543, 105.8536606, 67.9268341, -0.0265202
-1.0805664, 0.4799805, -0.4624023, 19.5731716, 107.0731735, 68.9634171, -0.027863
-1.0766602, 0.4838867, -0.4643555, 19.1463413, 107.4390259, 69.2682953, -0.0339055
-1.0625, 0.4785156, -0.4677734, 18.4756107, 108.4756088, 70, -0.0352483
-1.0556641, 0.480957, -0.4692383, 17.8658543, 108.9634171, 70.2439041, -0.0339055
-1.0463867, 0.4726562, -0.4658203, 17.3170738, 110.3048782, 71.0365906, -0.0459907
-1.0478516, 0.4702148, -0.4716797, 17.5, 112.2561035, 71.5243912, -0.0674754
-1.0424805, 0.4633789, -0.4770508, 17.7439022, 112.8048782, 72.0121994, -0.1003738
-1.0449219, 0.4697266, -0.4780273, 19.0853672, 114.4512253, 72.5609741, -0.1292439
-1.050293, 0.4814453, -0.4838867, 19.3292694, 115.4878082, 72.68293, -0.1359579
-1.0483398, 0.4990234, -0.4790039, 18.5365849, 117.6219559, 72.9878082, -0.1164874
-1.0454102, 0.5078125, -0.4775391, 17.8048782, 118.5365906, 73.1707306, -0.0741894
-1.0366211, 0.5175781, -0.4946289, 15, 120.3048782, 73.7195129, -0.0332341
-1.0185547, 0.5209961, -0.5078125, 13.5975609, 121.3414688, 74.5121994, 0.0087282
-1.0073242, 0.5288086, -0.5332031, 11.6463413, 123.7195129, 75.2439041, 0.0392767
-1.0024414, 0.5366211, -0.5473633, 10.9146347, 124.8170776, 75.7317123, 0.0587472
-1.0004883, 0.5385742, -0.5527344, 9.1463413, 126.9512253, 76.2195129, 0.0637827
-1.0024414, 0.5302734, -0.5473633, 7.9878049, 127.5, 75.8536606, 0.0506905
-1.0092773, 0.5161133, -0.5429688, 7.9268293, 127.6219559, 75.6707306, 0.0332341
-1.0131836, 0.5019531, -0.534668, 9.6341467, 128.7195129, 75.6707306, 0.0171206
-1.0209961, 0.4892578, -0.5219727, 11.0975609, 129.6341553, 75.7317123, 0.0104067
-1.0185547, 0.4765625, -0.5585938, 13.7195129, 131.3414612, 76.1585388, 0.0077211
-1.0131836, 0.472168, -0.5761719, 13.9634151, 132.0121918, 76.8292694, 0.0077211
-1, 0.4775391, -0.5859375, 13.4146347, 133.1707306, 78.2926865, -0.0016785
-0.996582, 0.4829102, -0.5820312, 13.3536587, 133.9024353, 79.2682953, -0.0023499
-0.9833984, 0.4985352, -0.5786133, 13.841464, 135.0609741, 80.4878082, -0.0154421
-0.9750977, 0.5063477, -0.5786133, 13.6585369, 135.2439117, 80.8536606, -0.0231632
-0.9663086, 0.5151367, -0.5878906, 14.3902445, 135.6707306, 81.0975647, -0.0352483
-0.9633789, 0.5180664, -0.5888672, 17.2560978, 136.7073212, 81.2195129, -0.0516976
-0.9648438, 0.5087891, -0.5927734, 18.5975609, 137.0731812, 81.2804871, -0.0587472
-0.9628906, 0.5043945, -0.6000977, 19.7560978, 138.2926788, 82.0121994, -0.0584115
-0.9648438, 0.4931641, -0.6000977, 19.3902435, 138.7195129, 81.8292694, -0.063447
-0.9633789, 0.5087891, -0.5913086, 18.9634151, 139.2682953, 82.1951218, -0.0637827
-0.9614258, 0.5214844, -0.6020508, 18.2317085, 139.7561035, 82.3780518, -0.0708324
-0.953125, 0.5678711, -0.6381836, 17.7439022, 140.6707306, 83.2926865, -0.0852674
-0.9511719, 0.5922852, -0.6567383, 17.1951218, 141.2804871, 83.4146347, -0.0950027
-0.9467773, 0.644043, -0.671875, 15.3048782, 143.1097565, 83.9024429, -0.0990311
-0.9448242, 0.6552734, -0.6733398, 13.841464, 143.7804871, 83.7195129, -0.0916457
-0.9472656, 0.6533203, -0.6645508, 11.280488, 143.5365906, 82.8048782, -0.076875
-0.9355469, 0.652832, -0.6591797, 9.0243902, 143.7195129, 81.2195129, -0.0674754
-0.9199219, 0.6347656, -0.6655273, 7.8658538, 144.0853729, 80.6707306, -0.0553902
-0.9101562, 0.6259766, -0.675293, 6.5243902, 145.36586, 79.9390259, -0.0439765
-0.8989258, 0.6108398, -0.6914062, 6.0365853, 146.1585388, 80, -0.0352483
-0.8901367, 0.597168, -0.6987305, 4.5731707, 147.6829376, 80.1219559, -0.0318914
-0.8925781, 0.5869141, -0.6948242, 4.0243902, 147.6219482, 80.3048782, -0.0392767
-0.8867188, 0.5771484, -0.6704102, 4.3292685, 147.6219482, 80.3048782, -0.0392767
-0.8852539, 0.5742188, -0.6445312, 4.5121951, 148.1097565, 79.9390259, -0.0446479
-0.8833008, 0.5703125, -0.5942383, 6.0975609, 149.7561035, 79.6951218, -0.0298772
-0.8789062, 0.5561523, -0.5820312, 7.0731707, 150.1829376, 79.4512177, -0.0154421
-0.8544922, 0.5415039, -0.5981445, 9.2682924, 151.0975647, 79.4512177, -0.0339055
-0.8413086, 0.5341797, -0.6157227, 11.1585369, 152.5, 79.8780518, -0.105745
-0.8227539, 0.5239258, -0.6694336, 12.5, 153.1707306, 80.4268341, -0.1386435
-0.8193359, 0.5253906, -0.6855469, 14.3902445, 155.36586, 81.3414688, -0.1453574
-0.8144531, 0.5390625, -0.7143555, 14.5121956, 155.9756165, 81.5853653, -0.1285725
-0.8251953, 0.5722656, -0.7382812, 14.2073174, 156.2804871, 82.1951218, -0.0997024
-0.8271484, 0.5961914, -0.7441406, 14.2682934, 155.9756165, 82.2560959, -0.0540475
-0.8203125, 0.6367188, -0.7392578, 14.8780489, 155.6097565, 82.3170776, -0.0097353
-0.809082, 0.6538086, -0.7285156, 14.9390249, 155.6707306, 81.9512177, 0.021149
-0.7919922, 0.6547852, -0.7324219, 14.2682934, 155.36586, 81.4634171, 0.0339055
-0.78125, 0.644043, -0.7480469, 13.4756098, 154.9390259, 80.5487823, 0.0184634
-0.7568359, 0.6191406, -0.7827148, 11.0365858, 154.6341553, 80.2439041, -0.017792
-0.7543945, 0.6137695, -0.7915039, 8.5365858, 155.6707306, 80.0609741, -0.0829175
-0.7514648, 0.6152344, -0.7631836, 7.6219516, 156.646347, 80.2439041, -0.1305867
-0.7539062, 0.6206055, -0.734375, 6.3414636, 157.5, 79.5731735, -0.1493858
-0.7675781, 0.6630859, -0.7045898, 5.1829271, 157.8048859, 79.2682953, -0.1373007
-0.7504883, 0.6616211, -0.6972656, 3.7804878, 157.1341553, 78.2926865, -0.102388
-0.7373047, 0.6542969, -0.6928711, 3.6585367, 156.4634247, 77.7439041, -0.0527047
-0.7363281, 0.6616211, -0.7348633, 3.2926829, 158.5365906, 76.0975647, -0.0114137
-0.7387695, 0.6635742, -0.7758789, 2.6829269, 159.3292694, 76.1585388, 0.021149
-0.7231445, 0.6474609, -0.8046875, 1.8902439, 159.7561035, 76.1585388, 0.0547189
-0.7119141, 0.6318359, -0.7866211, 1.8292683, 160.0609741, 76.1585388, 0.0802319
-0.6938477, 0.6079102, -0.6977539, 0.9756098, 160.4878082, 75.2439041, 0.105745
-0.6826172, 0.5927734, -0.6679688, 1.5853659, 160, 74.2073212, 0.1084306
-0.659668, 0.5673828, -0.6982422, 2.2560976, 160.0609741, 73.6585388, 0.1070878
-0.6499023, 0.5546875, -0.7373047, 3.7195122, 161.0365906, 73.7195129, 0.1084306
-0.6352539, 0.5395508, -0.7944336, 4.5121951, 161.7073212, 74.5731735, 0.0970169
-0.6386719, 0.5522461, -0.8022461, 6.0365853, 163.0487823, 75.8536606, 0.0936599
-0.6430664, 0.5688477, -0.7944336, 6.6463418, 163.1097565, 76.2804871, 0.0815747
-0.6430664, 0.637207, -0.7958984, 7.2560978, 162.4390259, 76.0975647, 0.0748608
-0.6513672, 0.668457, -0.8310547, 6.280488, 162.2561035, 75.6707306, 0.0641184
-0.6123047, 0.6362305, -0.8227539, 5.2439027, 158.7195129, 75.9756088, 0.042298
-0.5864258, 0.6181641, -0.7866211, 5.7317076, 157.9268341, 75.7926865, 0.0171206
-0.6157227, 0.612793, -0.7880859, 4.0853658, 161.3414612, 73.9024429, -0.0013428
-0.6308594, 0.6220703, -0.8134766, 3.4756098, 161.3414612, 74.5121994, -0.024506
-0.6391602, 0.6499023, -0.8452148, 3.7804878, 160.7317047, 74.4512177, -0.0503548
-0.6308594, 0.6611328, -0.8461914, 2.8658538, 159.6951294, 73.7804871, -0.0641184
-0.6113281, 0.6767578, -0.8120117, 1.9512196, 159.6341553, 73.2317123, -0.0889601
-0.5888672, 0.6665039, -0.7685547, -0.1829268, 159.8780518, 72.0731735, -0.1077592
-0.5727539, 0.6577148, -0.7651367, -1.1585366, 159.8170776, 71.5243912, -0.1245441
-0.543457, 0.6313477, -0.7875977, -2.6219513, 159.6951294, 70.9146347, -0.1326009
-0.5322266, 0.6176758, -0.8051758, -3.7195122, 159.6341553, 70.5487823, -0.1312581
-0.5175781, 0.6025391, -0.793457, -5.3048782, 160.5487823, 70.0609741, -0.1131304
-0.5151367, 0.605957, -0.7661133, -6.280488, 161.1585388, 69.8780518, -0.1003738
-0.5087891, 0.6269531, -0.75, -8.6585369, 162.5609741, 69.2073212, -0.0849317
-0.4975586, 0.6108398, -0.7416992, -7.3780489, 161.0365906, 69.0243912, -0.0691539
-0.4750977, 0.5800781, -0.7265625, -6.6463418, 161.2195129, 68.2926865, -0.0674754
-0.4882812, 0.5820312, -0.7607422, -5.3658538, 163.4146423, 67.3170776, -0.0704967
-0.5166016, 0.5712891, -0.8476562, -4.8780489, 162.86586, 67.8658524, -0.0647898
-0.5029297, 0.5429688, -0.8955078, -2.0121951, 162.5609741, 68.7195129, -0.049012
-0.496582, 0.527832, -0.8979492, -0.6707317, 163.1707306, 68.8414688, -0.0365911
-0.4780273, 0.4892578, -0.887207, 1.0365853, 163.2317047, 69.8780518, -0.0339055
-0.4672852, 0.4731445, -0.878418, 1.7073171, 161.8292694, 70.2439041, -0.0570687
-0.4521484, 0.4853516, -0.8642578, 4.0853658, 159.0853729, 70.7317123, -0.0795605
-0.4482422, 0.5083008, -0.8618164, 5.609756, 158.9024353, 70.6707306, -0.0950027
-0.4526367, 0.5751953, -0.859375, 7.3170733, 158.7195129, 70.7317123, -0.1044022
-0.4545898, 0.6098633, -0.8505859, 7.0731707, 159.5731812, 71.2804871, -0.0963455
-0.4511719, 0.6713867, -0.8383789, 5.7926831, 159.2073212, 70.9146347, -0.0782177
-0.4428711, 0.6894531, -0.855957, 1.2195122, 157.86586, 70.7926865, -0.0580758
-0.4082031, 0.6772461, -0.8847656, -1.4634147, 156.3414612, 70.6707306, -0.0459907
-0.3500977, 0.6171875, -0.8081055, -3.4146342, 155.1829376, 69.9390259, -0.0459907
-0.3496094, 0.6000977, -0.7797852, -3.8414636, 157.4390259, 68.1707306, -0.0540475
-0.387207, 0.590332, -0.8032227, -5.3048782, 159.5731812, 66.8902435, -0.0543832
-0.394043, 0.5874023, -0.8408203, -5.609756, 159.0853729, 66.6463394, -0.0516976
-0.4018555, 0.6005859, -0.8950195, -6.8292685, 157.8048859, 66.0365906, -0.0486763
-0.3979492, 0.6083984, -0.8959961, -7.8048782, 157.9268341, 66.0975647, -0.0436408
-0.3945312, 0.5961914, -0.8413086, -9.4512196, 158.6585388, 65.9756088, -0.0392767
-0.3867188, 0.5893555, -0.8168945, -11.0975609, 157.4390259, 65.1219559, -0.035584
-0.3662109, 0.574707, -0.8120117, -11.219512, 156.8292694, 64.9390259, -0.0399481
-0.3549805, 0.565918, -0.8334961, -11.0365858, 154.6951294, 64.5731735, -0.0594186
-0.3237305, 0.5595703, -0.8759766, -10.7926836, 154.146347, 64.3902435, -0.1097734
-0.3085938, 0.5683594, -0.8500977, -10.3658543, 156.0365906, 64.3902435, -0.1621424
-0.3085938, 0.5688477, -0.8330078, -10.3048782, 157.1951294, 64.3292694, -0.1842985
-0.3027344, 0.5410156, -0.8417969, -9.6951218, 156.0365906, 64.0243912, -0.1816129
-0.293457, 0.519043, -0.8686523, -9.2682924, 154.6341553, 64.3902435, -0.1688563
-0.2827148, 0.4858398, -0.902832, -7.7439027, 153.5365906, 64.5731735, -0.1373007
-0.2851562, 0.4765625, -0.8945312, -6.7682929, 154.0243988, 65, -0.1017166
-0.3007812, 0.4707031, -0.862793, -4.2073174, 155.6707306, 65.9146347, -0.070161
-0.3046875, 0.4702148, -0.8579102, -1.8292683, 154.0243988, 67.0731735, -0.0382696
-0.300293, 0.4760742, -0.8701172, -1.5853659, 152.5, 67.5, -0.0130922
-0.2944336, 0.4887695, -0.8793945, -1.2804878, 150.6707306, 67.7439041, -0.0097353
-0.2827148, 0.5258789, -0.8842773, -1.402439, 150.6097565, 68.0487823, -0.0030213
-0.2700195, 0.5683594, -0.8554688, -2.0731707, 151.1585388, 68.7195129, -0.014435
-0.2592773, 0.5844727, -0.8422852, -3.0487804, 151.1585388, 68.8414688, -0.0198062
-0.2451172, 0.6015625, -0.8330078, -5.4878049, 150.2439117, 68.1097565, -0.0275273
-0.2319336, 0.6015625, -0.840332, -6.7682929, 149.0853729, 67.5, -0.0379339
-0.2089844, 0.5849609, -0.8710938, -8.9024391, 147.3170776, 66.6463394, -0.0412909
-0.2050781, 0.5717773, -0.890625, -9.2682924, 147.0121918, 66.2195129, -0.0433051
-0.1962891, 0.5483398, -0.9091797, -10.4878054, 147.0121918, 65.3658524, -0.049012
-0.2016602, 0.5380859, -0.9008789, -10.5487804, 147.2561035, 64.2073212, -0.0547189
-0.2197266, 0.5249023, -0.8803711, -10.4878054, 146.8292694, 63.6585388, -0.0570687
-0.2270508, 0.5214844, -0.8662109, -10.4268293, 145.7317047, 62.9268303, -0.0540475
-0.246582, 0.5234375, -0.8466797, -10.2439022, 145.0609741, 62.5609779, -0.0560616
-0.2368164, 0.5161133, -0.8408203, -10.2439022, 143.7804871, 62.6219521, -0.0547189
-0.2241211, 0.5102539, -0.840332, -9.8780489, 142.9268341, 62.5609779, -0.0533761
-0.1821289, 0.4765625, -0.8398438, -8.3536587, 141.0975647, 62.4390259, -0.056733
-0.159668, 0.4599609, -0.8388672, -7.5609756, 140.1829376, 62.4390259, -0.0486763
-0.1347656, 0.4370117, -0.8500977, -6.3414636, 140, 62.5609779, -0.0459907
-0.1313477, 0.4370117, -0.8671875, -6.0365853, 139.6951294, 62.68293, -0.0486763
-0.1342773, 0.4599609, -0.8959961, -4.5731707, 138.7804871, 63.4756126, -0.0486763
-0.137207, 0.4760742, -0.8862305, -4.2073174, 139.5121918, 63.7195129, -0.0392767
-0.1601562, 0.5131836, -0.8447266, -4.2073174, 139.2682953, 63.9024391, -0.03122
-0.1582031, 0.5258789, -0.8330078, -4.5121951, 137.0731812, 64.1463394, -0.0345769
-0.144043, 0.5268555, -0.8461914, -4.5731707, 134.6951294, 63.6585388, -0.0332341
-0.1079102, 0.5170898, -0.8730469, -4.2073174, 132.3170776, 63.4146347, -0.0369268
-0.0917969, 0.5019531, -0.8735352, -4.2073174, 132.2561035, 63.4146347, -0.0365911
-0.0737305, 0.4755859, -0.831543, -3.7804878, 133.1707306, 62.6219521, -0.0339055
-0.0761719, 0.472168, -0.8081055, -3.4146342, 133.5365906, 62.1341476, -0.0298772
-0.0947266, 0.4936523, -0.7895508, -3.3536587, 132.86586, 61.2195129, -0.0298772
-0.1020508, 0.5205078, -0.7973633, -3.4756098, 132.4390259, 60.7317085, -0.0365911
-0.1230469, 0.5708008, -0.8222656, -5.2439027, 132.0731812, 60.6707344, -0.0379339
-0.1152344, 0.590332, -0.8237305, -8.4146347, 130.9756165, 61.4024391, -0.0328985
-0.078125, 0.5966797, -0.8183594, -10, 130.0609741, 60.8536606, -0.0271916
-0.0444336, 0.5678711, -0.8422852, -12.7439032, 128.1097565, 59.4512215, -0.0218204
-0.0273438, 0.5507812, -0.8671875, -13.9024391, 127.1951218, 58.9634171, -0.0124208
-0.0170898, 0.5185547, -0.8730469, -15.8536587, 127.4390259, 57.7439041, -0.0057069
-0.0200195, 0.5087891, -0.8344727, -16.0975609, 128.3536682, 57.1341476, 0.0030213
-0.0395508, 0.4833984, -0.737793, -16.5243912, 130.2439117, 55.6707344, 0.0050355
-0.0483398, 0.4672852, -0.7124023, -16.5853653, 129.2073212, 55.2439041, 0.0010071
-0.0395508, 0.4472656, -0.7563477, -15.9146347, 125.6707382, 54.9390259, -0.0046998
-0.0249023, 0.4375, -0.7963867, -15.4878054, 124.4512253, 55.3658562, -0.014435
0.0029297, 0.4199219, -0.8354492, -13.9024391, 125.0609818, 56.341465, -0.0154421
0.0136719, 0.4150391, -0.8251953, -12.2560978, 126.2195129, 56.6463432, -0.017792
0.0244141, 0.4140625, -0.7675781, -11.7073174, 126.4024429, 56.8292694, -0.0154421
0.019043, 0.4262695, -0.71875, -10.7926836, 125.1219559, 56.2804909, -0.0124208
0.015625, 0.4345703, -0.7211914, -9.8170738, 124.3902435, 56.2804909, -0.0130922
0.0200195, 0.4536133, -0.7861328, -7.5609756, 122.5609818, 57.0121956, -0.0292058
0.0239258, 0.4628906, -0.8168945, -6.5853658, 122.2561035, 57.5609779, -0.0379339
0.0429688, 0.4614258, -0.8364258, -5.3048782, 122.1341476, 58.4756126, -0.0433051
0.0463867, 0.4536133, -0.8339844, -5.609756, 121.2195129, 58.1707344, -0.0365911
0.0507812, 0.4350586, -0.8320312, -4.0853658, 118.5365906, 57.5609779, -0.0204776
0.0424805, 0.4326172, -0.8378906, -1.4634147, 116.2195129, 56.8292694, -0.0083925
0.027832, 0.4560547, -0.8535156, -0.4268293, 115.7317123, 56.4634171, -0.0083925
0.0180664, 0.4819336, -0.8520508, 0, 114.9390259, 56.4024391, -0.0191348
0.0078125, 0.5263672, -0.8144531, -0.8536586, 114.3292694, 56.1585388, -0.038941
0.0214844, 0.5566406, -0.7421875, -4.390244, 112.2561035, 55.5487823, -0.056733
0.0415039, 0.5639648, -0.7285156, -6.3414636, 110.5487823, 54.9390259, -0.0594186
0.1088867, 0.5522461, -0.7436523, -9.1463413, 108.0487823, 54.1463432, -0.0500191
0.137207, 0.5400391, -0.7583008, -10.7317076, 107.7439041, 53.7195129, -0.0379339
0.1606445, 0.53125, -0.7631836, -12.1341467, 109.4512253, 51.7073174, -0.0164492
0.1518555, 0.5268555, -0.7456055, -12.4390249, 111.0365906, 50.3048782, 0.0010071
0.1147461, 0.5258789, -0.6914062, -13.5975609, 112.3170776, 48.2317085, 0.0043641
0.1049805, 0.5195312, -0.6796875, -15.7317076, 110.6707306, 47.0731735, 0.0003357
0.1020508, 0.4868164, -0.6899414, -17.0121956, 109.4512253, 46.9512215, -0.0087282
0.1118164, 0.4682617, -0.7070312, -18.0487804, 107.9878082, 47.2560997, -0.0198062
0.1352539, 0.4462891, -0.7509766, -17.8658543, 107.7439041, 47.5, -0.0271916
0.1582031, 0.4311523, -0.7539062, -16.9512196, 108.5365906, 47.8048782, -0.0292058
0.1572266, 0.4326172, -0.7319336, -16.5853653, 109.0853653, 47.5609779, -0.0352483
0.1411133, 0.4345703, -0.6791992, -16.1585369, 108.9024429, 46.5243912, -0.0459907
0.1352539, 0.4428711, -0.6660156, -15.6097565, 108.2317123, 46.0975609, -0.0486763
0.1352539, 0.4521484, -0.6914062, -14.6341467, 106.5853653, 46.7682953, -0.0553902
0.1474609, 0.4516602, -0.7124023, -14.2073174, 106.1585388, 47.5609779, -0.0574044
0.1743164, 0.4301758, -0.7416992, -14.0853662, 105.6707306, 48.841465, -0.0574044
0.1875, 0.418457, -0.7475586, -13.3536587, 104.4512253, 49.3292694, -0.0614328
0.2045898, 0.4018555, -0.7495117, -12.6829271, 103.6585388, 49.4512215, -0.0587472
0.2045898, 0.4038086, -0.737793, -10.9146347, 102.9268341, 48.6585388, -0.0513619
0.1850586, 0.4331055, -0.7060547, -9.7560978, 102.9878082, 48.1707344, -0.0352483
0.1606445, 0.4643555, -0.690918, -8.719512, 102.1951218, 48.3536606, -0.0218204
0.1601562, 0.4799805, -0.6845703, -8.719512, 101.2804871, 48.7804871, -0.0208133
0.1826172, 0.4897461, -0.6884766, -10.1219511, 98.6585388, 49.0243912, -0.0204776
0.2041016, 0.4829102, -0.6977539, -10.6707315, 97.68293, 49.2682953, -0.0184634
0.2456055, 0.4624023, -0.7197266, -10.5487804, 96.3414688, 48.6585388, -0.0298772
0.2539062, 0.4604492, -0.734375, -10.2439022, 95.9756088, 47.8658562, -0.0513619
0.25, 0.4658203, -0.7792969, -9.1463413, 95.0609741, 47.0731735, -0.0607614
0.2353516, 0.4838867, -0.800293, -8.4756098, 93.8414688, 46.2195129, -0.0574044
0.2089844, 0.5151367, -0.7807617, -8.9024391, 93.3536606, 45.6097565, -0.0547189
0.1894531, 0.5239258, -0.7421875, -9.8780489, 90.9146347, 44.2073174, -0.0406195
0.1806641, 0.5166016, -0.6733398, -10.8536587, 89.0853653, 43.7195129, -0.0372625
0.2119141, 0.4985352, -0.6489258, -12.7439032, 85.0609741, 43.1097565, -0.0439765
0.234375, 0.4985352, -0.6381836, -13.4146347, 84.2073212, 42.9878044, -0.0473335
0.2631836, 0.5073242, -0.6279297, -15, 84.3292694, 42.0731735, -0.0547189
0.2773438, 0.5200195, -0.6279297, -16.0365849, 85.0609741, 41.5853653, -0.0775463
0.3007812, 0.5307617, -0.6396484, -18.780489, 84.5731735, 40.4268303, -0.0963455
0.3120117, 0.53125, -0.6337891, -20.3048782, 84.2682953, 39.4512215, -0.0943313
0.3081055, 0.5209961, -0.6069336, -23.3536587, 84.146347, 38.0487823, -0.063447
0.2885742, 0.5507812, -0.6367188, -28.9634151, 84.6951218, 36.8902435, -0.0157778
0.2905273, 0.5546875, -0.6411133, -31.0975609, 83.3536606, 37.3780479, 0.011078
0.3251953, 0.4960938, -0.5458984, -29.5731716, 80.18293, 36.5853653, 0.0302129
0.3320312, 0.4223633, -0.4477539, -29.5121956, 82.0731735, 33.5365868, 0.0412909
0.2729492, 0.4101562, -0.5634766, -29.6341476, 81.8902435, 32.2560997, 0.0305486
0.2553711, 0.4414062, -0.5888672, -29.0853672, 82.3170776, 33.2926826, 0.0090639
0.2783203, 0.4750977, -0.6162109, -25.7926826, 82.1341476, 34.0853653, -0.0083925
0.2885742, 0.4765625, -0.621582, -25.9146347, 81.2195129, 33.7195129, -0.0466621
0.3164062, 0.4526367, -0.6323242, -27.7439022, 77.3170776, 33.2926826, -0.0741894
0.3339844, 0.4384766, -0.6459961, -27.9268303, 75.2439041, 33.2926826, -0.070161
0.3442383, 0.4130859, -0.6313477, -26.5243912, 76.0975647, 33.3536606, -0.0553902
0.3398438, 0.4101562, -0.6113281, -23.9634151, 77.2560959, 33.3536606, -0.0285344
0.315918, 0.4038086, -0.5581055, -22.3780499, 76.3414688, 32.9268303, -0.0057069
0.309082, 0.4121094, -0.5449219, -18.9634151, 72.68293, 32.3170738, 0.0020142
0.3095703, 0.4316406, -0.5507812, -17.6829281, 71.3414688, 32.3780479, 0.0130922
0.3286133, 0.4580078, -0.5478516, -15.7317076, 69.2682953, 32.3170738, -0.0083925
0.340332, 0.4609375, -0.5454102, -14.7560978, 68.2926865, 31.8902454, -0.0527047
0.3623047, 0.4648438, -0.5400391, -13.7195129, 66.2195129, 32.1341476, -0.0882887
0.3710938, 0.4677734, -0.5322266, -13.3536587, 65.5487823, 31.4634151, -0.102388
0.3691406, 0.487793, -0.5175781, -12.560976, 64.3292694, 30, -0.1037308
0.3618164, 0.5302734, -0.5585938, -12.7439032, 63.841465, 29.5121956, -0.1258869
0.3886719, 0.5356445, -0.5292969, -14.8170738, 60.4878044, 29.5121956, -0.1467002
0.4145508, 0.4995117, -0.4633789, -12.0121956, 58.841465, 26.9512196, -0.1373007
0.3935547, 0.4726562, -0.4555664, -11.6463413, 59.2073174, 24.3902435, -0.1131304
0.3642578, 0.4755859, -0.5332031, -11.7073174, 56.2195129, 23.9024391, -0.0970169
0.3237305, 0.53125, -0.6166992, -12.0731707, 55.6707344, 24.3292694, -0.0798962
0.3300781, 0.5605469, -0.5849609, -12.5, 55.1219521, 23.2926826, -0.087953
0.3261719, 0.5532227, -0.5458984, -14.7560978, 53.7195129, 22.6829281, -0.1010452
0.355957, 0.5161133, -0.503418, -19.6341476, 47.9268303, 21.8292694, -0.0835889
0.3813477, 0.4951172, -0.5048828, -21.7682934, 45.2439041, 21.5853672, -0.063447
0.4204102, 0.4716797, -0.5224609, -23.9634151, 44.3292694, 21.0975609, -0.0473335
0.4238281, 0.4672852, -0.5327148, -25, 44.5121956, 20.6097565, -0.0486763
0.4111328, 0.4682617, -0.5483398, -27.9268303, 43.841465, 20, -0.0540475
0.4003906, 0.4926758, -0.5917969, -32.6829262, 40.7926826, 19.939024, -0.0661326
0.4179688, 0.4926758, -0.6181641, -35.1829262, 38.3536606, 20.4878044, -0.0728466
0.4526367, 0.425293, -0.543457, -35.4268303, 34.2682953, 19.8170738, -0.0674754
0.4682617, 0.3134766, -0.4628906, -35.0609779, 34.5121956, 17.7439022, -0.0691539
0.3920898, 0.296875, -0.5043945, -33.841465, 34.1463432, 15.9756098, -0.0674754
0.3500977, 0.3325195, -0.5024414, -32.5, 33.9024391, 17.3780499, -0.0647898
0.331543, 0.3964844, -0.5, -28.4146347, 32.0121956, 19.3292694, -0.0594186
0.3422852, 0.4140625, -0.4936523, -28.1097565, 29.5121956, 19.6951218, -0.0621042
0.3701172, 0.4438477, -0.4658203, -30.1219521, 23.1707325, 19.5731716, -0.0587472
0.3862305, 0.4594727, -0.4677734, -30.1829281, 20.6097565, 19.3902435, -0.070161
0.4106445, 0.4946289, -0.4482422, -29.7560978, 20.3658543, 18.2317085, -0.0795605
0.4135742, 0.5097656, -0.4204102, -29.8170738, 20.8536587, 16.280489, -0.0889601
0.4165039, 0.5063477, -0.3686523, -30.3658543, 19.8780499, 15.4268293, -0.0889601
0.4321289, 0.4780273, -0.3642578, -31.4634151, 15.1219511, 13.5975609, -0.0923171
0.4672852, 0.4003906, -0.3696289, -30.9756107, 12.8658543, 12.6829271, -0.0882887
0.4892578, 0.328125, -0.3657227, -27.8658543, 11.5853662, 11.0975609, -0.076875
0.4804688, 0.3120117, -0.3735352, -26.0365868, 11.6463413, 10.060976, -0.0956741
0.4438477, 0.3393555, -0.4174805, -21.3414631, 11.4024391, 8.9024391, -0.1064164
0.4165039, 0.3803711, -0.4311523, -19.8780499, 11.1585369, 8.1707315, -0.1010452
0.3608398, 0.4716797, -0.4072266, -19.2073174, 9.7560978, 6.5853658, -0.1188373
0.3447266, 0.5112305, -0.3920898, -19.8780499, 7.8048782, 6.280488, -0.1493858
0.3583984, 0.5493164, -0.3896484, -22.0121956, 3.3536587, 4.6951222, -0.1497215
0.3867188, 0.5429688, -0.3974609, -25.4878063, -0.2439024, 2.9268293, -0.1362936
0.4448242, 0.5043945, -0.4296875, -27.1341476, -1.6463414, 2.1341465, -0.0929885
0.4658203, 0.4770508, -0.4570312, -29.6341476, -3.4756098, 0.3658537, -0.0318914
0.5073242, 0.4208984, -0.4956055, -30.3048782, -3.7195122, -0.6097561, 0.0194705
0.5039062, 0.3764648, -0.4619141, -31.4024391, -4.5121951, -3.2317073, 0.0654612
0.4780273, 0.3632812, -0.4267578, -31.4634151, -4.5121951, -4.7560978, 0.1084306
0.4145508, 0.3613281, -0.3818359, -30.060976, -6.8292685, -7.1341467, 0.144686
0.3891602, 0.3666992, -0.3842773, -30, -8.841464, -7.5609756, 0.1332723
0.3598633, 0.3735352, -0.402832, -30.1219521, -12.560976, -6.9512196, 0.1225299
0.362793, 0.3813477, -0.4326172, -29.8170738, -14.6341467, -6.5243902, 0.1003738
0.3876953, 0.3862305, -0.515625, -29.4512196, -18.9634151, -5.2439027, 0.0493477
0.4008789, 0.3857422, -0.5356445, -29.8780499, -21.4634151, -5.8536587, -0.0010071
0.4077148, 0.3916016, -0.496582, -30.1219521, -22.8048782, -6.9512196, -0.0950027
0.3945312, 0.3959961, -0.4711914, -29.6951218, -26.8292694, -9.0853662, -0.1577783
0.3666992, 0.3994141, -0.4770508, -28.5975609, -29.6341476, -9.6951218, -0.1671778
0.3691406, 0.3969727, -0.4902344, -26.0975609, -34.6951218, -11.1585369, -0.1460288
0.3774414, 0.3950195, -0.4770508, -25, -36.1585388, -11.4634151, -0.1010452
0.378418, 0.3798828, -0.4272461, -23.0487804, -38.7804871, -12.9878054, -0.0463264
0.378418, 0.3764648, -0.4155273, -22.6829281, -40.8536606, -13.6585369, 0.0010071
0.3725586, 0.3735352, -0.4355469, -20.6097565, -44.6341476, -14.8780489, 0.0359197
0.3754883, 0.3818359, -0.4682617, -19.4512196, -46.341465, -14.8780489, 0.0527047
0.3725586, 0.409668, -0.5175781, -16.6463413, -48.5365868, -15.7926836, 0.0547189
0.3691406, 0.425293, -0.5146484, -15.3658543, -49.6951218, -17.6829281, 0.0543832
0.3515625, 0.4599609, -0.4599609, -15.6097565, -51.1585388, -18.6585369, 0.0412909
0.3515625, 0.4677734, -0.4272461, -17.6219521, -55.4268303, -20.7926826, 0.0345769
0.3632812, 0.4643555, -0.3886719, -19.3292694, -57.5609779, -21.7073174, 0.0231632
0.3911133, 0.4482422, -0.4111328, -22.6219521, -60.4878044, -23.0487804, 0.0151064
0.4033203, 0.4428711, -0.4477539, -23.9634151, -61.7073174, -23.2926826, 0.011078
0.434082, 0.4335938, -0.5083008, -25.4268303, -63.0487823, -23.7195129, 0.0046998
0.4438477, 0.4321289, -0.5112305, -26.4024391, -63.1097565, -24.5121956, -0.0104067
0.4189453, 0.4287109, -0.4868164, -27.6219521, -63.5975609, -27.1951218, -0.0379339
0.3999023, 0.4213867, -0.4868164, -28.3536587, -65.0609741, -28.5975609, -0.06009
0.3681641, 0.40625, -0.5336914, -29.5731716, -69.3902435, -30.2439022, -0.0849317
0.3544922, 0.4003906, -0.5654297, -29.9390259, -73.5365906, -30.4268303, -0.1037308
0.3422852, 0.3847656, -0.5708008, -29.8780499, -74.3902435, -30.7317085, -0.115816
0.3325195, 0.378418, -0.5444336, -28.9634151, -76.4634171, -31.5853672, -0.1164874
0.3178711, 0.3837891, -0.4902344, -28.780489, -77.9268341, -31.9512196, -0.1171588
0.3139648, 0.3891602, -0.4858398, -28.7195129, -82.1341476, -32.5609779, -0.1171588
0.3266602, 0.3989258, -0.487793, -28.5975609, -84.4512253, -33.0487823, -0.1064164
0.3457031, 0.4111328, -0.4902344, -28.4146347, -86.4634171, -33.2926826, -0.0943313
0.3535156, 0.4077148, -0.4946289, -28.1707325, -87.2560959, -33.3536606, -0.0916457
0.3779297, 0.3945312, -0.5214844, -26.3414631, -89.7560959, -33.4756088, -0.0903029
0.3935547, 0.3808594, -0.5385742, -25.7317085, -91.3414688, -33.841465, -0.0815747
0.4038086, 0.3535156, -0.5493164, -24.3292694, -93.7195129, -35.3658562, -0.0782177
0.390625, 0.3500977, -0.546875, -22.0731716, -93.5975647, -37.6219521, -0.0748608
0.3413086, 0.3754883, -0.53125, -20.4878044, -93.2926865, -38.4146347, -0.0782177
0.3134766, 0.4072266, -0.5214844, -19.3292694, -93.2317123, -39.3292694, -0.0802319
0.2758789, 0.4770508, -0.4995117, -19.6341476, -93.6585388, -39.6951218, -0.0775463
0.2744141, 0.5112305, -0.4921875, -22.9878063, -97.4390259, -39.3292694, -0.0795605
0.2983398, 0.5170898, -0.4921875, -25.2439022, -99.2682953, -39.6341476, -0.081239
0.3613281, 0.5117188, -0.4892578, -30.7926846, -102.3170776, -40.1829262, -0.0788891
0.3867188, 0.5029297, -0.4960938, -32.6829262, -102.5609818, -40.6707344, -0.076875
0.4086914, 0.4848633, -0.5644531, -34.2682953, -102.8048782, -42.7439041, -0.073518
0.4057617, 0.484375, -0.6313477, -33.9024391, -102.9268341, -43.7195129, -0.0782177
0.3696289, 0.4814453, -0.7299805, -32.8658562, -103.2926865, -45.8536606, -0.0795605
0.3466797, 0.4716797, -0.7338867, -32.9878044, -103.0487823, -48.1707344, -0.0745251
0.2895508, 0.4306641, -0.6577148, -33.1097565, -103.4756088, -49.0243912, -0.0715038
0.2407227, 0.3911133, -0.5463867, -32.8048782, -107.0731735, -50.6707344, -0.0715038
0.2275391, 0.3803711, -0.5102539, -32.7439041, -109.5121994, -50.7926826, -0.0637827
0.2348633, 0.3803711, -0.4975586, -31.7682934, -114.5731735, -50.1829262, -0.0574044
0.2543945, 0.3818359, -0.5102539, -31.280489, -116.5243912, -49.8170738, -0.0500191
0.3027344, 0.3764648, -0.5424805, -29.6951218, -118.5975647, -48.1097565, -0.0449836
0.331543, 0.3666992, -0.5644531, -28.6585369, -118.7804871, -47.5609779, -0.0419623
0.3769531, 0.3374023, -0.6264648, -26.2195129, -119.9390259, -46.4634171, -0.035584
0.3847656, 0.3227539, -0.6567383, -25.060976, -120.5487823, -46.2804871, -0.0325628
0.3759766, 0.3076172, -0.6918945, -21.8902435, -120.5487823, -47.0121956, -0.0352483
0.3496094, 0.3139648, -0.684082, -18.2926826, -118.7804871, -48.2317085, -0.0359197
0.2646484, 0.3652344, -0.6650391, -16.0975609, -118.5365906, -48.5365868, -0.0339055
0.1806641, 0.4526367, -0.7026367, -13.4146347, -120.5487823, -48.0487823, -0.0359197
0.1591797, 0.4985352, -0.7197266, -13.2926836, -122.86586, -47.3170738, -0.0352483
0.1655273, 0.550293, -0.7011719, -16.0975609, -127.0731735, -46.4634171, -0.0285344
0.1806641, 0.5620117, -0.6782227, -18.1707325, -128.5975647, -45.9146347, -0.0298772
0.2338867, 0.5458984, -0.6435547, -22.0121956, -132.4390259, -45.7926826, -0.0352483
0.2666016, 0.5307617, -0.6401367, -23.5365868, -134.3902435, -46.341465, -0.03122
0.3144531, 0.5019531, -0.6347656, -25.1829281, -135.7317047, -47.6829262, -0.0258488
0.3305664, 0.4951172, -0.6235352, -25.6707325, -134.7561035, -48.7195129, -0.0231632
0.331543, 0.484375, -0.5966797, -25.6707325, -131.3414612, -51.2195129, -0.0251774
0.3217773, 0.4838867, -0.5922852, -26.0975609, -128.7195129, -53.3536606, -0.0258488
0.2817383, 0.4921875, -0.6274414, -27.0731716, -128.4146423, -53.5975609, -0.017792
0.2568359, 0.5009766, -0.6499023, -29.6951218, -129.3292694, -54.0853653, -0.0151064
0.2485352, 0.5053711, -0.6342773, -31.0975609, -129.2073212, -54.2073174, -0.0087282
0.2460938, 0.4985352, -0.5424805, -32.3170738, -127.8048782, -55.1219521, -0.0090639
0.2495117, 0.4819336, -0.4980469, -32.3170738, -127.3170776, -55.7926826, -0.0104067
0.2529297, 0.4296875, -0.4804688, -30.3048782, -127.9878082, -56.5243912, -0.0097353
0.2607422, 0.4042969, -0.512207, -29.2073174, -129.8780518, -56.9512215, -0.0117494
0.2768555, 0.3525391, -0.6064453, -27.0121956, -131.8902435, -57.0121956, -0.0090639
0.2744141, 0.3461914, -0.6523438, -22.1951218, -130.3048859, -57.1951218, -0.0083925
0.2480469, 0.3491211, -0.7084961, -18.6585369, -128.5975647, -56.5853653, -0.0140993
0.2250977, 0.3686523, -0.7177734, -12.4390249, -124.4512253, -56.2195129, -0.0124208
0.1728516, 0.4023438, -0.6987305, -10.5487804, -123.6585388, -55.7926826, -0.0120851
0.1210938, 0.4257812, -0.7089844, -8.2317076, -126.4634171, -55.0609779, -0.0117494
0.1166992, 0.4331055, -0.7348633, -7.7439027, -129.8170776, -54.2682953, -0.011078
0.1225586, 0.4584961, -0.7709961, -8.1707315, -135.9756165, -52.8048782, -0.0154421
0.1293945, 0.4755859, -0.7700195, -7.9268293, -137.1341553, -52.3170738, -0.0204776
0.1303711, 0.5224609, -0.7973633, -6.8292685, -137.0121918, -51.8902435, -0.0151064
0.1245117, 0.5483398, -0.8427734, -6.2195125, -137.7439117, -51.5243912, -0.0070497
0.1230469, 0.6088867, -0.9277344, -7.5, -140.2439117, -51.6463432, -0.0030213
0.1240234, 0.6367188, -0.918457, -10.4878054, -139.4512177, -53.2317085, -0.010071
0.1162109, 0.6738281, -0.7900391, -11.9512196, -138.2317047, -54.2682953, -0.0224918
0.1118164, 0.6743164, -0.7197266, -15.5487804, -137.2561035, -56.2804909, -0.0171206
0.1186523, 0.6308594, -0.6411133, -18.0487804, -138.9634247, -56.7682953, 0.0043641
0.1577148, 0.5561523, -0.6435547, -22.9268303, -144.3292694, -57.5, 0.0480049
0.1801758, 0.5258789, -0.6425781, -24.9390259, -145.5487823, -58.1707344, 0.0788891
0.2109375, 0.4716797, -0.6293945, -26.1585369, -143.4146423, -58.9634171, 0.0923171
0.2133789, 0.4580078, -0.628418, -24.8170738, -140.8536682, -59.8170738, 0.0856031
0.1894531, 0.4638672, -0.640625, -21.4634151, -136.3414612, -60.9756126, 0.0721752
0.1674805, 0.4736328, -0.6503906, -20, -134.6951294, -61.4634171, 0.0352483
0.1166992, 0.4946289, -0.6801758, -17.3170738, -133.4146423, -62.6219521, -0.0198062
0.0961914, 0.4921875, -0.6953125, -14.5731707, -135, -62.7439041, -0.0553902
0.0654297, 0.4633789, -0.7207031, -12.9268293, -136.3414612, -62.3170738, -0.0728466
0.050293, 0.4448242, -0.7402344, -8.5365858, -139.5121918, -61.0365868, -0.0651255
0.0317383, 0.4189453, -0.831543, -5.7317076, -141.5853729, -60.18293, -0.056733
0.0146484, 0.4360352, -0.9169922, -0.3658537, -143.2926788, -59.1463432, -0.0809033
0.0083008, 0.4672852, -0.9116211, 1.2804878, -142.7439117, -58.5365868, -0.0997024
-0.0175781, 0.5224609, -0.7939453, 3.2926829, -139.2073212, -58.1707344, -0.102388
-0.0234375, 0.5522461, -0.7143555, 3.4756098, -137.9878082, -58.4756126, -0.0889601
-0.012207, 0.5859375, -0.6245117, 1.8902439, -140.7317047, -58.841465, -0.0674754
0.0087891, 0.5966797, -0.6308594, 0.1829268, -143.9634247, -58.7195129, -0.0473335
0.0703125, 0.597168, -0.7460938, -4.3292685, -150.4268341, -58.0487823, -0.0318914
0.0942383, 0.6000977, -0.8076172, -8.780488, -149.9390259, -57.0121956, -0.024506
0.1064453, 0.6289062, -0.8544922, -10.1829271, -146.1585388, -56.9512215, -0.0124208
0.0893555, 0.6479492, -0.8374023, -12.6219511, -137.1951294, -57.9268303, -0.0151064
0.0166016, 0.6894531, -0.8110352, -13.9024391, -134.9390259, -58.6585388, -0.0359197
-0.0527344, 0.7133789, -0.8828125, -17.0731716, -138.8414612, -60.2439041, -0.0553902
-0.0742188, 0.7177734, -0.9296875, -19.4512196, -142.7439117, -61.2195129, -0.0715038
-0.0874023, 0.703125, -0.9384766, -24.0853672, -147.1341553, -62.5609779, -0.0715038
-0.0966797, 0.6982422, -0.8955078, -25.6707325, -145.9756165, -63.5365868, -0.0822461
-0.1206055, 0.6855469, -0.8271484, -28.6585369, -142.9878082, -64.3902435, -0.0876173
-0.1240234, 0.6767578, -0.8164062, -29.5121956, -143.8414612, -64.7560959, -0.0835889
-0.1142578, 0.6826172, -0.815918, -30.060976, -147.3170776, -66.0975647, -0.0788891
-0.0961914, 0.6855469, -0.7998047, -29.6341476, -148.7195129, -69.1463394, -0.0822461
-0.0673828, 0.6489258, -0.746582, -29.0853672, -148.4756165, -70.4268341, -0.0745251
-0.0566406, 0.6113281, -0.7314453, -25.8536587, -148.7804871, -72.1951218, -0.0627756
-0.0351562, 0.5351562, -0.7416992, -23.5975609, -149.0853729, -72.5, -0.06009
-0.0258789, 0.4755859, -0.7519531, -18.5975609, -148.5365906, -72.5, -0.0553902
-0.0371094, 0.46875, -0.7436523, -16.1585369, -147.2561035, -72.5, -0.0540475
-0.0698242, 0.4951172, -0.7446289, -11.5243902, -142.86586, -72.0731735, -0.0574044
-0.0942383, 0.5214844, -0.7539062, -10.1829271, -141.0975647, -71.5853653, -0.0715038
-0.1381836, 0.5888672, -0.7617188, -10.4268293, -137.9878082, -69.8780518, -0.0755322
-0.1572266, 0.6264648, -0.7470703, -12.560976, -136.7682953, -69.1463394, -0.0782177
-0.1738281, 0.6748047, -0.7197266, -19.2073174, -135.8536682, -67.9268341, -0.0788891
-0.1679688, 0.6884766, -0.7246094, -27.0731716, -138.1097565, -66.9512177, -0.0809033
-0.1464844, 0.703125, -0.7915039, -30.3658543, -139.6951294, -66.4634171, -0.0869459
-0.1376953, 0.7099609, -0.8374023, -33.1097565, -141.4024353, -66.2195129, -0.0849317
-0.152832, 0.7329102, -0.9580078, -32.1341476, -141.646347, -66.9512177, -0.0869459
-0.2094727, 0.7651367, -1.0512695, -27.4390259, -140.7317047, -68.7804871, -0.0849317
-0.2373047, 0.7700195, -1.0522461, -24.2682934, -139.6341553, -70.2439041, -0.0788891
-0.3022461, 0.7529297, -0.9399414, -19.2073174, -137.9268341, -73.3536606, -0.0772107
-0.3276367, 0.7348633, -0.8623047, -17.560976, -138.5975647, -74.6951218, -0.0708324
-0.3432617, 0.6723633, -0.7958984, -14.4512196, -145.4268341, -76.2804871, -0.063447
-0.3227539, 0.6376953, -0.7929688, -13.780488, -149.5731812, -76.646347, -0.0607614
-0.2631836, 0.5893555, -0.7700195, -12.0731707, -153.5365906, -77.0731735, -0.0540475
-0.2382812, 0.5859375, -0.7314453, -8.9634151, -149.4512177, -77.1341476, -0.0466621
-0.2070312, 0.6098633, -0.6655273, -7.6829271, -146.4634247, -76.7073212, -0.0345769
-0.2016602, 0.6269531, -0.6767578, -4.6341462, -144.146347, -75.8536606, -0.0198062
-0.1889648, 0.6513672, -0.730957, -4.0853658, -144.3902435, -75.3048782, -0.0258488
-0.1889648, 0.6567383, -0.7231445, -6.5853658, -141.9512177, -75.9756088, -0.0362554
-0.2021484, 0.6591797, -0.6914062, -8.2926826, -140.0609741, -76.3414688, -0.0446479
-0.2446289, 0.6625977, -0.6396484, -11.280488, -135.7317047, -76.8902435, -0.063447
-0.2636719, 0.6601562, -0.640625, -12.560976, -135.36586, -76.646347, -0.1279011
-0.2783203, 0.6352539, -0.7041016, -14.0243902, -136.5243988, -75.9756088, -0.1681849
-0.2758789, 0.6230469, -0.7416992, -14.0853662, -137.0121918, -76.0365906, -0.1567712
-0.277832, 0.5961914, -0.8193359, -13.3536587, -137.4390259, -75.7317123, -0.1205158
-0.2924805, 0.5883789, -0.8769531, -10.1219511, -137.5609741, -74.9390259, -0.0547189
-0.3369141, 0.5800781, -1.0327148, -7.9878049, -138.6585388, -74.3292694, 0.0023499
-0.3652344, 0.590332, -1.1020508, -3.6585367, -140.4878082, -72.8048782, 0.0318914
-0.4169922, 0.6240234, -1.1254883, -1.5853659, -140.0609741, -72.0121994, 0.06009
-0.4619141, 0.6542969, -0.9892578, -0.1829268, -138.8414612, -70.8536606, 0.0825818
-0.4707031, 0.6689453, -0.9116211, -1.1585366, -139.6951294, -70.4268341, 0.0882887
-0.4428711, 0.6821289, -0.7988281, -5.4878049, -145.9756165, -69.6341476, 0.0963455
-0.4013672, 0.6835938, -0.7553711, -8.719512, -149.3902435, -70.0609741, 0.0748608
-0.324707, 0.6992188, -0.6865234, -14.7560978, -151.2804871, -70.3048782, -0.0023499
-0.2958984, 0.7119141, -0.6572266, -17.3170738, -149.3292694, -70.5487823, -0.0493477
-0.2739258, 0.7363281, -0.6640625, -20.1219521, -144.2682953, -70.6707306, -0.063447
-0.2719727, 0.7280273, -0.7026367, -20.5487804, -141.9512177, -70.8536606, -0.0486763
-0.277832, 0.6791992, -0.7646484, -20.7926826, -141.3414612, -71.0975647, 0.0003357
-0.2978516, 0.6391602, -0.7558594, -18.9634151, -139.8170776, -71.6463394, 0.0503548
-0.3530273, 0.5620117, -0.7070312, -16.6463413, -139.7561035, -72.8658524, 0.0775463
-0.4296875, 0.5498047, -0.6811523, -10.7317076, -139.7561035, -73.9024429, 0.0802319
-0.46875, 0.5776367, -0.6689453, -8.841464, -139.2682953, -74.5731735, 0.0574044
-0.5361328, 0.6674805, -0.640625, -6.7682929, -136.4024353, -75.3658524, 0.0305486
-0.550293, 0.7006836, -0.6376953, -7.2560978, -135.4878082, -75.18293, -0.0164492
-0.5332031, 0.71875, -0.671875, -11.1585369, -137.2561035, -74.3902435, -0.0453193
-0.5078125, 0.6992188, -0.7021484, -13.5365858, -139.4512177, -73.9634171, -0.0681468
-0.440918, 0.6347656, -0.7890625, -17.1341476, -144.6341553, -73.6585388, -0.0997024
-0.4160156, 0.6064453, -0.8325195, -14.9390249, -145.7926788, -74.5731735, -0.1104448
-0.3989258, 0.5878906, -0.8637695, -12.0731707, -143.4146423, -75.4268341, -0.112459
-0.4213867, 0.6088867, -0.8647461, -5.609756, -136.5853729, -77.1951218, -0.1010452
-0.5043945, 0.6728516, -0.8608398, -3.2926829, -134.3292694, -77.8658524, -0.0829175
-0.5742188, 0.7197266, -0.8500977, -1.6463414, -134.2073212, -78.2926865, -0.0748608
-0.5961914, 0.7133789, -0.8398438, -3.3536587, -135.7926788, -77.9878082, -0.1044022
-0.5888672, 0.6591797, -0.7905273, -9.3292685, -139.6341553, -76.5853653, -0.105745
-0.5727539, 0.612793, -0.7700195, -11.8292685, -140.8536682, -75.7926865, -0.1050736
-0.5253906, 0.5068359, -0.7358398, -15.2439032, -142.0731812, -73.7195129, -0.0976883
-0.5029297, 0.465332, -0.7421875, -15, -141.8292694, -72.8658524, -0.0936599
-0.4902344, 0.4433594, -0.7944336, -12.6219511, -140.1219482, -71.4634171, -0.0835889
-0.5078125, 0.4672852, -0.824707, -7.6829271, -135.6707306, -70.5487823, -0.0688182
-0.5766602, 0.5786133, -0.8461914, -5.4268293, -132.86586, -70.0609741, -0.0694896
-0.6142578, 0.6367188, -0.8320312, -4.0243902, -128.7804871, -68.9634171, -0.0651255
-0.6879883, 0.7094727, -0.7963867, -4.9390244, -129.0243988, -68.2317123, -0.0627756
-0.7158203, 0.7109375, -0.7587891, -11.4024391, -133.2926788, -67.0731735, -0.0647898
-0.7084961, 0.690918, -0.7446289, -14.7560978, -136.2804871, -66.5243912, -0.0627756
-0.6855469, 0.6508789, -0.7324219, -19.0853672, -140.7926788, -66.4634171, -0.0708324
-0.6669922, 0.6308594, -0.7275391, -19.6951218, -141.2195129, -66.4024429, -0.0758679
-0.6391602, 0.6123047, -0.7036133, -18.8414631, -138.8414612, -66.7682953, -0.0835889
-0.6318359, 0.6113281, -0.6860352, -18.4756107, -136.4024353, -67.1341476, -0.0835889
-0.6430664, 0.6054688, -0.6767578, -18.5975609, -133.5365906, -67.4390259, -0.0856031
-0.6523438, 0.6069336, -0.7036133, -20.1219521, -134.5121918, -68.0487823, -0.0822461
-0.6694336, 0.6118164, -0.7734375, -20.8536587, -135.1219482, -67.8658524, -0.0849317
-0.6850586, 0.6254883, -0.7861328, -22.560976, -135.0609741, -67.4390259, -0.0842603
-0.7241211, 0.6635742, -0.7519531, -22.7439022, -133.1707306, -67.0731735, -0.0788891
-0.7617188, 0.6972656, -0.730957, -23.4756107, -131.7073212, -66.7682953, -0.0728466
-0.7666016, 0.7026367, -0.7460938, -24.7560978, -132.4390259, -66.3414612, -0.0728466
-0.7524414, 0.6782227, -0.7807617, -29.5731716, -135.6097565, -66.9512177, -0.0728466
-0.7446289, 0.6513672, -0.7802734, -31.6463413, -136.7682953, -66.9512177, -0.0741894
-0.7338867, 0.5722656, -0.769043, -32.5, -137.86586, -67.5609741, -0.0758679
-0.7265625, 0.5288086, -0.7802734, -31.0365868, -138.5365906, -67.1341476, -0.0678111
-0.7182617, 0.4462891, -0.8666992, -25, -139.4512177, -66.3414612, -0.0627756
-0.7133789, 0.3994141, -0.9321289, -18.4146347, -140.8536682, -64.6341476, -0.0594186
-0.7280273, 0.3261719, -1.0107422, -15.3048782, -140.7926788, -63.2317085, -0.0527047
-0.7495117, 0.3154297, -0.9819336, -9.2073174, -139.0243988, -60.3048782, -0.0513619
-0.8144531, 0.3588867, -0.8369141, -5.5487804, -137.9878082, -58.9634171, -0.0500191
-0.8867188, 0.4799805, -0.7172852, 1.2195122, -137.5609741, -57.0121956, -0.0459907
-0.9003906, 0.5532227, -0.7050781, 3.7195122, -138.9024353, -56.0975609, -0.0412909
-0.8867188, 0.6547852, -0.7558594, 5.4268293, -142.8048859, -55.18293, -0.0352483
-0.8642578, 0.6791992, -0.793457, 5.3048782, -144.6341553, -54.8780518, -0.0271916
-0.8168945, 0.6894531, -0.8916016, 3.8414636, -147.5, -53.7804909, -0.03122
-0.7919922, 0.6821289, -0.9189453, 3.1707318, -148.1097565, -53.1707344, -0.0198062
-0.7739258, 0.6586914, -0.8613281, 4.1463413, -145.6707306, -52.4390259, -0.0171206
-0.7739258, 0.6494141, -0.7880859, 6.0365853, -140.0609741, -52.8048782, -0.0151064
-0.8022461, 0.6503906, -0.6162109, 6.280488, -137.3170776, -53.9024391, -0.0164492
-0.8349609, 0.6635742, -0.5058594, 3.4756098, -134.3292694, -56.4024391, -0.0218204
-0.8344727, 0.6689453, -0.4907227, 0.1829268, -134.0853729, -57.6219521, -0.024506
-0.8217773, 0.6733398, -0.5385742, -7.8048782, -133.5975647, -58.7195129, -0.0198062
-0.8056641, 0.6655273, -0.5849609, -11.8292685, -132.5, -58.7804909, 0.0010071
-0.7861328, 0.6455078, -0.6542969, -18.5365849, -128.3536682, -58.1707344, -0.0030213
-0.7832031, 0.6264648, -0.6704102, -20.7317085, -125.4878082, -57.8048782, -0.0486763
-0.809082, 0.6049805, -0.6850586, -23.5975609, -120.18293, -57.7439041, -0.0929885
-0.8344727, 0.5966797, -0.6967773, -24.7560978, -118.1097565, -57.8048782, -0.1010452
-0.894043, 0.597168, -0.722168, -27.5, -116.3414688, -59.0243912, -0.0782177
-0.9238281, 0.6000977, -0.7421875, -32.9268303, -115.8536606, -59.4512215, -0.0621042
-0.9487305, 0.5776367, -0.7832031, -35.3048782, -116.0975647, -58.9634171, -0.0446479
-0.9301758, 0.5161133, -0.8266602, -40.8536606, -118.9024429, -56.2195129, -0.0104067
-0.9140625, 0.4765625, -0.8276367, -42.6219521, -120.7926865, -55.1219521, 0.0077211
-0.8925781, 0.4125977, -0.7924805, -41.2804871, -123.0487823, -53.4146347, 0.0386053
-0.8930664, 0.3989258, -0.7626953, -38.5365868, -123.2317123, -53.2926826, 0.0641184
-0.9130859, 0.409668, -0.7060547, -28.6585369, -122.9268341, -53.5975609, 0.070161
-0.9277344, 0.418457, -0.6943359, -23.2317085, -122.7439041, -53.7804909, 0.0694896
-0.953125, 0.4433594, -0.7001953, -14.6341467, -122.8048782, -53.5975609, 0.0547189
-0.9594727, 0.4428711, -0.7075195, -11.8292685, -124.2682953, -53.1707344, 0.0359197
-0.9555664, 0.4526367, -0.7026367, -8.5975609, -126.4024429, -51.4634171, 0.0231632
-0.9482422, 0.4550781, -0.6772461, -7.1341467, -126.2804871, -49.2682953, 0.0050355
-0.9267578, 0.4775391, -0.612793, -6.890244, -125.3048782, -48.2317085, -0.0063783
-0.9116211, 0.5117188, -0.5776367, -6.5243902, -123.7804871, -46.6463432, -0.0157778
-0.909668, 0.534668, -0.5883789, -6.1585369, -123.1707382, -46.0975609, -0.0271916
-0.9023438, 0.581543, -0.6445312, -5.2439027, -121.9512253, -46.2804871, -0.0386053
-0.9047852, 0.6083984, -0.675293, -4.6341462, -121.2195129, -46.1585388, -0.0473335
-0.9086914, 0.6445312, -0.6967773, -5, -118.0487823, -46.341465, -0.0486763
-0.9121094, 0.6533203, -0.6796875, -6.3414636, -116.4634171, -46.341465, -0.0500191
-0.9130859, 0.6503906, -0.5942383, -10.4268293, -115.3048782, -47.0121956, -0.0540475
-0.9003906, 0.6411133, -0.5410156, -17.3780499, -114.3902435, -47.6219521, -0.0621042
-0.8696289, 0.581543, -0.4506836, -20.8536587, -114.3292694, -48.1707344, -0.0782177
-0.8500977, 0.5458984, -0.4228516, -27.8048782, -112.3170776, -49.3292694, -0.0825818
-0.8227539, 0.4858398, -0.4174805, -30.1219521, -110.4268341, -50.0609779, -0.0903029
-0.828125, 0.4633789, -0.4609375, -30.7926846, -105.4268341, -49.8170738, -0.0903029
-0.84375, 0.4633789, -0.5063477, -29.6951218, -102.5609818, -49.7560997, -0.0822461
-0.8896484, 0.4780273, -0.6054688, -27.0731716, -98.1707306, -48.1097565, -0.0762036
-0.9204102, 0.4799805, -0.6425781, -26.1585369, -96.5243912, -47.1951218, -0.0728466
-0.9780273, 0.4726562, -0.6611328, -25.4878063, -95.7317123, -45.8536606, -0.0674754
-1.0009766, 0.4614258, -0.6357422, -25.8536587, -96.0365906, -45.1829262, -0.066804
-1.0224609, 0.4375, -0.5507812, -27.6829281, -98.1707306, -44.5731735, -0.0657969
-1.0234375, 0.4238281, -0.5039062, -28.0487804, -100.3048782, -43.2317085, -0.0674754
-0.9897461, 0.4052734, -0.4716797, -27.3170738, -101.3414688, -42.7439041, -0.0627756
-0.9750977, 0.3896484, -0.480957, -23.9024391, -100.7926865, -41.0975609, -0.0594186
-0.9248047, 0.3823242, -0.5200195, -21.4024391, -100.2439041, -40.4268303, -0.0661326
-0.9086914, 0.3916016, -0.5854492, -14.2682934, -98.8414688, -39.0853653, -0.0641184
-0.9125977, 0.4072266, -0.6166992, -10.1829271, -98.1707306, -38.4756088, -0.0691539
-0.9414062, 0.4467773, -0.6542969, -2.7439024, -96.5243912, -37.5609779, -0.0674754
-0.9692383, 0.4692383, -0.6577148, -0.1219512, -95.7317123, -37.3780479, -0.0664683
-1.0141602, 0.4746094, -0.5869141, 2.4390244, -96.8902435, -36.5243912, -0.0674754
-1.027832, 0.4912109, -0.5253906, 3.4756098, -98.0487823, -35.6707344, -0.06009
-1.0341797, 0.5292969, -0.487793, 2.9268293, -97.1951218, -34.8780479, -0.0614328
-1.0200195, 0.534668, -0.4853516, 2.195122, -98.4146347, -32.5609779, -0.0621042
-0.9506836, 0.5488281, -0.4575195, 1.5853659, -98.2926865, -31.5243912, -0.0553902
-0.9047852, 0.5419922, -0.4345703, -0.6707317, -95.9146347, -31.5243912, -0.0527047
-0.8564453, 0.5292969, -0.3886719, -2.5, -94.2073212, -31.9512196, -0.0594186
-0.8417969, 0.512207, -0.3725586, -4.5121951, -89.6341476, -32.5609779, -0.0607614
-0.84375, 0.5063477, -0.3681641, -4.7560978, -86.8292694, -33.2317085, -0.0533761
-0.8901367, 0.5180664, -0.3740234, -5.4268293, -81.7073212, -34.7560997, -0.0527047
-0.9130859, 0.5219727, -0.3984375, -6.1585369, -79.8170776, -35.0609779, -0.0500191
-0.9477539, 0.5131836, -0.4804688, -7.4390244, -78.6585388, -34.7560997, -0.0486763
-0.956543, 0.4946289, -0.5200195, -7.9878049, -78.7804871, -34.1463432, -0.0500191
-0.9682617, 0.4506836, -0.534668, -9.3292685, -78.9024429, -32.5, -0.0459907
-0.965332, 0.4238281, -0.5112305, -11.0365858, -78.2317123, -31.0975609, -0.0466621
-0.9643555, 0.3959961, -0.4418945, -11.7073174, -77.8658524, -31.280489, -0.0466621
-0.9648438, 0.394043, -0.4150391, -13.780488, -76.4024429, -32.1341476, -0.0433051
-0.9516602, 0.4321289, -0.3769531, -15, -75.6707306, -32.0731697, -0.0406195
-0.9296875, 0.4785156, -0.3574219, -17.6219521, -73.4756088, -31.9512196, -0.0402838
-0.918457, 0.4946289, -0.362793, -18.9024391, -72.1951218, -31.6463413, -0.0345769
-0.8925781, 0.4916992, -0.4057617, -22.3170738, -70.8536606, -30.060976, -0.0265202
-0.8759766, 0.4829102, -0.4316406, -23.2926826, -70.4878082, -29.4512196, -0.0298772
-0.8764648, 0.4506836, -0.4882812, -23.9634151, -70.3658524, -28.841465, -0.0218204
-0.8818359, 0.4443359, -0.5073242, -23.1707325, -70.3658524, -29.0243912, -0.014435
-0.925293, 0.440918, -0.5180664, -20.9146347, -69.9390259, -29.7560978, -0.0124208
-0.9541016, 0.4482422, -0.5053711, -18.4756107, -69.2682953, -30.4878063, -0.0124208
-1.0063477, 0.4599609, -0.4541016, -17.7439022, -69.5731735, -30.4268303, -0.0060426
-1.0224609, 0.4663086, -0.4306641, -15.5487804, -72.4390259, -30.3048782, -0.0023499
-1.0214844, 0.4555664, -0.4223633, -14.3902445, -74.3292694, -30.1829281, -0.0016785
-0.9711914, 0.4306641, -0.4316406, -12.560976, -76.9512177, -29.4512196, -0.0339055
-0.9526367, 0.4228516, -0.440918, -11.9512196, -77.3780518, -29.2073174, -0.0520333
-0.9091797, 0.4179688, -0.4487305, -9.2682924, -76.4024429, -28.4756107, -0.0681468
-0.8979492, 0.4248047, -0.4462891, -7.9878049, -75.4268341, -28.4146347, -0.0835889
-0.8974609, 0.4663086, -0.4433594, -5.4268293, -73.2317123, -29.5731716, -0.0688182
-0.9013672, 0.4907227, -0.4282227, -5.0609756, -72.1341476, -29.8780499, -0.0271916
-0.921875, 0.5361328, -0.3798828, -5.9756098, -70.4268341, -31.280489, 0.0130922
-0.9238281, 0.5537109, -0.3564453, -9.0853662, -69.2682953, -31.7682934, 0.0352483
-0.9199219, 0.5698242, -0.3198242, -11.7073174, -69.0853653, -32.0731697, 0.0466621
-0.909668, 0.5610352, -0.3085938, -16.7682934, -68.6585388, -31.280489, 0.0409552
-0.8847656, 0.5131836, -0.2851562, -19.939024, -68.2317123, -31.0975609, 0.0288701
-0.8598633, 0.4536133, -0.2670898, -24.2073174, -65.4878082, -30.9146347, 0.0077211
-0.8574219, 0.4301758, -0.2773438, -25.4878063, -63.7804909, -30.9756107, -0.0036927
-0.8691406, 0.4082031, -0.331543, -25.9146347, -60.6097565, -32.0121956, 0.0036927
-0.8813477, 0.4057617, -0.3691406, -25.9756107, -59.2073174, -32.5, -0.011078
-0.9121094, 0.4165039, -0.4248047, -25.7317085, -57.5, -32.6219521, -0.0352483
-0.9228516, 0.4223633, -0.4384766, -25.9756107, -57.0121956, -32.3780479, -0.0594186
-0.9506836, 0.4467773, -0.4233398, -27.3170738, -56.4024391, -32.6829262, -0.0728466
-0.9619141, 0.4619141, -0.4023438, -29.5731716, -56.2804909, -32.5609779, -0.0741894
-0.9750977, 0.4814453, -0.359375, -31.1585369, -56.8292694, -32.5, -0.0647898
-0.9677734, 0.4824219, -0.34375, -34.5121956, -58.2317085, -32.0731697, -0.0433051
-0.9448242, 0.4663086, -0.3125, -36.1585388, -58.6585388, -31.8292694, -0.0285344
-0.9223633, 0.4428711, -0.3134766, -37.0121956, -59.3902435, -31.9512196, -0.0191348
-0.9174805, 0.421875, -0.3383789, -35.4268303, -59.9390259, -31.7073174, -0.0057069
-0.9008789, 0.3769531, -0.4160156, -29.8170738, -60.6707344, -30.9756107, -0.0010071
-0.8920898, 0.359375, -0.4462891, -26.4024391, -60.2439041, -30.8536587, 0.0010071
-0.9086914, 0.3422852, -0.4580078, -21.4024391, -58.5975609, -31.280489, 0.0050355
-0.9301758, 0.3476562, -0.4404297, -19.0853672, -57.8048782, -31.6463413, -0.0063783
-0.9663086, 0.3808594, -0.3994141, -15.1219511, -57.8658562, -32.3780479, -0.0224918
-0.9814453, 0.3959961, -0.3803711, -12.0731707, -59.8170738, -32.0121956, -0.0382696
