Application:, Trigno Discover (1.6.5)
Date/Time:, 30/01/2025 09:41:06
Collection Length (seconds):, 32.508
wrist (81457), , , , , , bicep (81139)
sensor mode: 609, , , , , , sensor mode: 40
ACC X (G), ACC Y (G), ACC Z (G), GYRO X (deg/s), GYRO Y (deg/s), GYRO Z (deg/s), EMG 1 (mV)
370.3704 Hz, 370.3704 Hz, 370.3704 Hz, 370.3704 Hz, 370.3704 Hz, 370.3704 Hz, 2148.1481 Hz
-0.9536133, 0.3305664, -0.078125, -12.3170738, -10.7317076, 1.8902439, -0.0466621
-0.9555664, 0.3310547, -0.0776367, -12.1951218, -10.6707315, 1.9512196, -0.0433051
-0.9594727, 0.3251953, -0.0766602, -12.4390249, -10.4268293, 2.0121951, -0.0406195
-0.9570312, 0.3276367, -0.0717773, -12.3780489, -10.5487804, 2.4390244, -0.0406195
-0.9628906, 0.3237305, -0.0673828, -12.1951218, -10, 2.5, -0.0436408
-0.9638672, 0.3266602, -0.0654297, -12.3780489, -10.2439022, 2.7439024, -0.0459907
-0.9589844, 0.3237305, -0.0629883, -12.1951218, -10.6097565, 2.8658538, -0.0433051
-0.9594727, 0.3203125, -0.0620117, -12.0731707, -10.4878054, 3.0487804, -0.0493477
-0.956543, 0.3198242, -0.059082, -11.8902445, -10.4268293, 2.9878049, -0.0459907
-0.9580078, 0.3168945, -0.0576172, -11.5853662, -10.1829271, 3.2317073, -0.0446479
-0.9555664, 0.3188477, -0.0556641, -11.0975609, -10.060976, 3.5365853, -0.0486763
-0.9580078, 0.3208008, -0.0576172, -11.341464, -9.8170738, 3.7804878, -0.0486763
-0.9560547, 0.3198242, -0.0581055, -11.280488, -10, 3.6585367, -0.0433051
-0.9599609, 0.3173828, -0.0600586, -10.7926836, -9.3292685, 3.9024391, -0.0426337
-0.9584961, 0.3183594, -0.0595703, -11.0975609, -9.1463413, 3.9634147, -0.0459907
-0.9589844, 0.3300781, -0.0654297, -10.7926836, -9.3292685, 4.1463413, -0.0459907
-0.9594727, 0.3320312, -0.0634766, -10.9146347, -9.4512196, 4.1463413, -0.0466621
-0.9550781, 0.3339844, -0.0620117, -11.0975609, -9.2682924, 4.2073174, -0.0466621
-0.9506836, 0.3349609, -0.0605469, -11.1585369, -9.2682924, 4.1463413, -0.0419623
-0.9433594, 0.3432617, -0.0615234, -11.1585369, -9.0243902, 4.0243902, -0.0426337
-0.9428711, 0.3432617, -0.0605469, -11.4634151, -8.4756098, 3.8414636, -0.0433051
-0.9492188, 0.34375, -0.0649414, -11.5853662, -8.2926826, 3.7195122, -0.0412909
-0.9536133, 0.3330078, -0.0800781, -11.4634151, -8.1097565, 4.0853658, -0.0392767
-0.9550781, 0.3271484, -0.0805664, -11.6463413, -8.2926826, 4.3292685, -0.0412909
-0.9555664, 0.3198242, -0.0883789, -11.9512196, -8.2317076, 4.390244, -0.0446479
-0.9599609, 0.3115234, -0.0922852, -11.7073174, -7.9268293, 4.7560978, -0.0446479
-0.9643555, 0.3095703, -0.0942383, -11.7073174, -7.9878049, 4.5121951, -0.042298
-0.9643555, 0.3110352, -0.0942383, -11.5853662, -8.0487804, 4.4512196, -0.0406195
-0.9672852, 0.3188477, -0.0996094, -11.1585369, -8.2317076, 4.5731707, -0.0433051
-0.9672852, 0.3217773, -0.0932617, -11.0975609, -8.9024391, 5, -0.0439765
-0.9648438, 0.3208008, -0.0932617, -11.0365858, -8.780488, 4.7560978, -0.0406195
-0.9633789, 0.3276367, -0.0942383, -11.0365858, -8.9634151, 5.3048782, -0.0406195
-0.9643555, 0.3208008, -0.0957031, -11.341464, -8.719512, 5.3658538, -0.0392767
-0.9628906, 0.3183594, -0.0942383, -11.0365858, -9.0853662, 5.670732, -0.0433051
-0.9589844, 0.315918, -0.0898438, -11.0365858, -9.2682924, 5.609756, -0.0459907
-0.9584961, 0.3251953, -0.0869141, -10.6707315, -9.2682924, 5.1829271, -0.0386053
-0.9589844, 0.3251953, -0.0849609, -10.9146347, -9.6951218, 5.1829271, -0.0379339
-0.9580078, 0.3295898, -0.0761719, -11.0365858, -9.8780489, 5.3048782, -0.0386053
-0.9541016, 0.3251953, -0.0698242, -10.9146347, -9.8170738, 5.1219511, -0.0399481
-0.9555664, 0.3217773, -0.0581055, -10.6707315, -9.6341467, 5.4268293, -0.0419623
-0.9550781, 0.3232422, -0.0541992, -10.3658543, -9.8170738, 4.9390244, -0.0412909
-0.9487305, 0.331543, -0.0537109, -10.1219511, -9.5731707, 4.8170733, -0.042298
-0.949707, 0.328125, -0.0556641, -10.2439022, -9.9390249, 4.9390244, -0.0433051
-0.9487305, 0.3266602, -0.0581055, -10.2439022, -9.8170738, 5, -0.0453193
-0.9501953, 0.3217773, -0.0664062, -10.1219511, -9.6341467, 4.8170733, -0.0446479
-0.9526367, 0.3222656, -0.0751953, -10.7317076, -9.3902445, 4.6951222, -0.0419623
-0.9555664, 0.3242188, -0.0727539, -10.7317076, -8.9634151, 4.6951222, -0.0386053
-0.9550781, 0.3291016, -0.0800781, -11.219512, -9.0243902, 4.8780489, -0.0379339
-0.9619141, 0.3364258, -0.0727539, -11.280488, -9.1463413, 4.7560978, -0.0386053
-0.9536133, 0.3359375, -0.0737305, -11.7073174, -9.8170738, 4.6951222, -0.0359197
-0.9511719, 0.3339844, -0.0732422, -11.6463413, -9.7560978, 4.7560978, -0.0339055
-0.9458008, 0.3300781, -0.0688477, -11.8902445, -9.5121956, 4.390244, -0.0339055
-0.949707, 0.3188477, -0.059082, -11.8902445, -9.3902445, 4.6341462, -0.0382696
-0.9487305, 0.3110352, -0.0620117, -10.4268293, -8.9634151, 4.5121951, -0.0362554
-0.9458008, 0.3081055, -0.0668945, -10.1219511, -9.3292685, 4.3292685, -0.0419623
-0.9472656, 0.3066406, -0.0717773, -10, -9.3292685, 4.3292685, -0.0409552
-0.9536133, 0.309082, -0.0683594, -9.6951218, -9.0853662, 4.2682929, -0.0446479
-0.9624023, 0.3173828, -0.0786133, -9.2073174, -8.9024391, 4.3292685, -0.0379339
-0.9628906, 0.3208008, -0.0810547, -9.6341467, -9.0853662, 4.4512196, -0.0359197
-0.9575195, 0.3276367, -0.0864258, -9.6951218, -9.2073174, 4.8170733, -0.0419623
-0.9545898, 0.3286133, -0.0839844, -9.7560978, -9.5731707, 4.6951222, -0.0379339
-0.949707, 0.3295898, -0.0874023, -10.1829271, -9.2682924, 4.6951222, -0.0345769
-0.9545898, 0.3295898, -0.0874023, -10.060976, -9.1463413, 4.6341462, -0.0365911
-0.9580078, 0.3291016, -0.0820312, -10.4268293, -9.1463413, 4.6951222, -0.0406195
-0.9589844, 0.3286133, -0.0844727, -10.4878054, -9.2682924, 4.6951222, -0.0372625
-0.9589844, 0.3271484, -0.0825195, -10.4878054, -9.5731707, 4.5731707, -0.0359197
-0.9589844, 0.3320312, -0.0830078, -10.6097565, -9.6341467, 4.4512196, -0.0342412
-0.9584961, 0.3300781, -0.0795898, -10.9146347, -9.3902445, 4.5121951, -0.0365911
-0.9575195, 0.3286133, -0.0795898, -10.7317076, -9.6951218, 4.390244, -0.0433051
-0.9550781, 0.324707, -0.0800781, -11.219512, -9.6951218, 4.5121951, -0.0419623
-0.9580078, 0.3242188, -0.0751953, -10.9146347, -9.5731707, 4.390244, -0.0426337
-0.9570312, 0.3256836, -0.0776367, -11.0365858, -9.7560978, 4.1463413, -0.0433051
-0.9536133, 0.3266602, -0.0805664, -11.219512, -9.8780489, 4.2073174, -0.0439765
-0.9487305, 0.3266602, -0.0761719, -11.1585369, -10.1219511, 3.8414636, -0.0416266
-0.9492188, 0.3295898, -0.0678711, -11.4024391, -10.1829271, 3.7195122, -0.0419623
-0.9384766, 0.3320312, -0.0639648, -11.341464, -9.8170738, 3.1707318, -0.0446479
-0.9384766, 0.328125, -0.0625, -11.5853662, -9.8170738, 3.2926829, -0.0473335
-0.9389648, 0.324707, -0.0717773, -11.6463413, -9.6341467, 2.9268293, -0.0412909
-0.9423828, 0.3222656, -0.0722656, -11.5853662, -9.4512196, 2.9878049, -0.0399481
-0.9492188, 0.3168945, -0.0791016, -11.5243902, -9.2073174, 2.9268293, -0.0406195
-0.9555664, 0.3144531, -0.081543, -11.4634151, -9.3292685, 2.9268293, -0.0466621
-0.9648438, 0.3081055, -0.0830078, -11.5243902, -9.3292685, 3.0487804, -0.0459907
-0.9648438, 0.3051758, -0.0776367, -11.1585369, -9.6951218, 3.1707318, -0.0466621
-0.9658203, 0.3051758, -0.0820312, -10.9146347, -9.8780489, 2.9878049, -0.0419623
-0.9648438, 0.3100586, -0.0854492, -10.7317076, -10.1829271, 3.0487804, -0.0382696
-0.9609375, 0.3164062, -0.0859375, -11.219512, -10.6707315, 3.0487804, -0.0419623
-0.9575195, 0.3222656, -0.0839844, -10.9146347, -10.5487804, 3.0487804, -0.0412909
-0.9580078, 0.3232422, -0.0859375, -10.8536587, -10.3658543, 3.2926829, -0.0446479
-0.9575195, 0.3217773, -0.0874023, -10.6097565, -10.1829271, 3.5975611, -0.0473335
-0.953125, 0.3178711, -0.0834961, -10.7926836, -10.8536587, 3.4146342, -0.0439765
-0.9477539, 0.3183594, -0.0776367, -10.9146347, -10.5487804, 3.4756098, -0.0433051
-0.9516602, 0.3183594, -0.0771484, -10.6707315, -10.4878054, 3.1707318, -0.0446479
-0.9570312, 0.3168945, -0.0742188, -10.7926836, -10.4878054, 2.9878049, -0.0527047
-0.9599609, 0.3237305, -0.0751953, -10.6097565, -10.7317076, 3.2317073, -0.0486763
-0.9575195, 0.3203125, -0.0703125, -11.0365858, -10.9146347, 3.1097562, -0.0459907
-0.9604492, 0.3198242, -0.0683594, -10.7317076, -10.4878054, 3.2926829, -0.0433051
-0.9536133, 0.3242188, -0.0756836, -10.6707315, -10.7926836, 3.1707318, -0.0476692
-0.9511719, 0.3242188, -0.0703125, -10.6097565, -10.6097565, 2.9268293, -0.0466621
-0.9511719, 0.324707, -0.0683594, -11.1585369, -10.3048782, 3.0487804, -0.0486763
-0.9560547, 0.331543, -0.0649414, -11.280488, -10.3048782, 2.8658538, -0.0459907
-0.9575195, 0.3334961, -0.0634766, -11.4634151, -10.6097565, 2.9878049, -0.0409552
-0.9487305, 0.3374023, -0.0649414, -11.5853662, -10.7926836, 2.6219513, -0.0446479
-0.9477539, 0.3369141, -0.0644531, -12.0121956, -10.7317076, 2.3780489, -0.0433051
-0.9487305, 0.3330078, -0.0639648, -12.3170738, -10.4268293, 2.3170731, -0.042298
-0.9448242, 0.3330078, -0.0683594, -12.2560978, -9.7560978, 2.5, -0.0463264
-0.9482422, 0.3212891, -0.0644531, -12.1341467, -9.9390249, 2.2560976, -0.0459907
-0.9501953, 0.3173828, -0.0620117, -12.3780489, -9.8780489, 2.1341465, -0.0419623
-0.9575195, 0.3115234, -0.0664062, -12.1951218, -9.8780489, 2.0731707, -0.0399481
-0.9594727, 0.3134766, -0.065918, -12.0121956, -10, 2.4390244, -0.0406195
-0.9589844, 0.3149414, -0.0654297, -11.9512196, -10.1219511, 2.195122, -0.0459907
-0.9511719, 0.3188477, -0.0668945, -11.7073174, -10.6097565, 2.3170731, -0.0486763
-0.9492188, 0.3217773, -0.0668945, -11.8902445, -10.2439022, 2.3170731, -0.0516976
-0.9438477, 0.3178711, -0.0668945, -11.4634151, -10.1219511, 1.9512196, -0.0527047
-0.949707, 0.3212891, -0.0649414, -11.280488, -10.060976, 1.8292683, -0.0500191
-0.9467773, 0.3227539, -0.0698242, -11.4634151, -10.1829271, 1.8902439, -0.0513619
-0.9453125, 0.3232422, -0.0708008, -11.5243902, -10.3048782, 1.8292683, -0.0459907
-0.9462891, 0.3237305, -0.0795898, -11.6463413, -9.9390249, 1.8292683, -0.0513619
-0.9472656, 0.3276367, -0.081543, -12.1341467, -10.1219511, 1.7073171, -0.0513619
-0.9501953, 0.3198242, -0.0864258, -12.2560978, -10, 1.8902439, -0.0473335
-0.9550781, 0.3188477, -0.0830078, -12.1341467, -10.060976, 1.5853659, -0.0540475
-0.9614258, 0.3173828, -0.0834961, -11.8292685, -10, 1.6463414, -0.0486763
-0.9589844, 0.3100586, -0.0839844, -11.4634151, -10.1829271, 1.6463414, -0.0466621
-0.9584961, 0.3071289, -0.0844727, -11.4634151, -10.6707315, 1.6463414, -0.0466621
-0.9614258, 0.3095703, -0.0844727, -11.4024391, -10.4268293, 1.5243902, -0.0513619
-0.9677734, 0.3129883, -0.081543, -11.0975609, -10.5487804, 1.5853659, -0.0480049
-0.9702148, 0.3149414, -0.0849609, -11.280488, -10.7926836, 1.8292683, -0.0486763
-0.9663086, 0.315918, -0.0874023, -11.1585369, -11.4634151, 1.8902439, -0.0500191
-0.9516602, 0.3242188, -0.0839844, -11.4024391, -11.4024391, 2.1341465, -0.0493477
-0.9521484, 0.3203125, -0.0849609, -11.5243902, -11.4024391, 1.7073171, -0.0527047
-0.9536133, 0.3242188, -0.0825195, -11.5243902, -11.280488, 1.8292683, -0.0527047
-0.9545898, 0.3232422, -0.0854492, -11.341464, -11.219512, 1.7682927, -0.0473335
-0.9536133, 0.3237305, -0.0805664, -11.6463413, -11.219512, 1.7682927, -0.0459907
-0.956543, 0.3256836, -0.0834961, -11.5853662, -10.8536587, 1.5243902, -0.0486763
-0.9560547, 0.3242188, -0.0844727, -12.0121956, -10.9146347, 1.5243902, -0.0446479
-0.9550781, 0.324707, -0.0844727, -12.3780489, -10.9756098, 1.7073171, -0.0466621
-0.9511719, 0.3261719, -0.0791016, -12.3780489, -11.0365858, 1.5853659, -0.0439765
-0.9462891, 0.3271484, -0.0703125, -12.3780489, -10.9756098, 1.1585366, -0.0409552
-0.9438477, 0.3310547, -0.0688477, -12.8048782, -10.7926836, 0.8536586, -0.0433051
-0.9423828, 0.3349609, -0.0668945, -13.2317076, -10.7317076, 0.5487805, -0.0473335
-0.9428711, 0.3378906, -0.0634766, -13.5365858, -10.9146347, 0.7926829, -0.0486763
-0.9458008, 0.3349609, -0.0673828, -13.780488, -10.7317076, 0.7317073, -0.0493477
-0.9433594, 0.3330078, -0.0712891, -14.3292685, -10.4268293, 0.5487805, -0.0459907
-0.9462891, 0.3291016, -0.0732422, -14.5731707, -10.2439022, 0.5487805, -0.0466621
-0.9541016, 0.3291016, -0.0761719, -14.3902445, -9.7560978, 0.3048781, -0.0419623
-0.9594727, 0.3266602, -0.0791016, -14.7560978, -9.5731707, 0.2439024, -0.0439765
-0.9638672, 0.3222656, -0.0839844, -14.9390249, -9.9390249, 0.5487805, -0.0436408
-0.9619141, 0.3193359, -0.0810547, -14.8170738, -10, 0.4878049, -0.0486763
-0.965332, 0.3134766, -0.0776367, -14.7560978, -9.8780489, 0.4878049, -0.0466621
-0.9726562, 0.3134766, -0.078125, -14.6341467, -10.060976, 0.4878049, -0.0406195
-0.9643555, 0.3071289, -0.0732422, -14.5731707, -10.3658543, 0.6097561, -0.0439765
-0.9580078, 0.3041992, -0.0688477, -14.2682934, -10.6707315, 0.7317073, -0.0486763
-0.9550781, 0.3027344, -0.065918, -13.9024391, -10.5487804, 0.5487805, -0.0426337
-0.9536133, 0.3095703, -0.0644531, -13.1707315, -10.1829271, 0.7926829, -0.0409552
-0.9506836, 0.3144531, -0.0693359, -12.6829271, -10.1829271, 0.7926829, -0.0419623
-0.9511719, 0.3183594, -0.0649414, -11.6463413, -10.3658543, 0.8536586, -0.0473335
-0.9467773, 0.3173828, -0.0649414, -11.280488, -10.4878054, 1.1585366, -0.0463264
-0.949707, 0.3076172, -0.0678711, -11.219512, -10.2439022, 0.9146342, -0.0466621
-0.9516602, 0.3085938, -0.0732422, -10.6707315, -9.9390249, 0.9146342, -0.0473335
-0.9619141, 0.3085938, -0.0825195, -10.7317076, -9.8170738, 1.097561, -0.0486763
-0.9638672, 0.3085938, -0.0839844, -10.9756098, -10.4878054, 1.2195122, -0.0493477
-0.9550781, 0.3076172, -0.0791016, -10.8536587, -10.7317076, 1.2804878, -0.0486763
-0.9487305, 0.3046875, -0.0791016, -10.6097565, -10.5487804, 1.2804878, -0.0466621
-0.9458008, 0.3134766, -0.0776367, -10.6097565, -10.7926836, 1.2195122, -0.0419623
-0.9501953, 0.3237305, -0.0810547, -10.9756098, -10.6097565, 1.2804878, -0.0493477
-0.9501953, 0.3217773, -0.0771484, -10.9146347, -10.4268293, 1.5243902, -0.0463264
-0.9467773, 0.3271484, -0.0737305, -11.0365858, -10.6707315, 1.2804878, -0.0399481
-0.9438477, 0.3286133, -0.0722656, -11.219512, -10.7317076, 1.3414634, -0.0406195
-0.9428711, 0.3251953, -0.0688477, -11.5243902, -10.9146347, 1.097561, -0.0419623
-0.9443359, 0.3266602, -0.0761719, -11.6463413, -10.4268293, 0.8536586, -0.0446479
-0.949707, 0.3276367, -0.0810547, -11.6463413, -10.5487804, 1.0365853, -0.0486763
-0.9472656, 0.3271484, -0.0810547, -12.2560978, -10.3048782, 0.7926829, -0.0473335
-0.949707, 0.3300781, -0.0830078, -12.2560978, -10.3658543, 0.8536586, -0.0459907
-0.9492188, 0.3286133, -0.0820312, -12.6829271, -10.4268293, 0.7926829, -0.0459907
-0.949707, 0.3310547, -0.0742188, -12.8048782, -10.1219511, 0.6707317, -0.0446479
-0.9492188, 0.3286133, -0.0664062, -13.1097565, -10.060976, 0.6097561, -0.0426337
-0.9506836, 0.3237305, -0.065918, -12.7439032, -10.1219511, 0.4268293, -0.0446479
-0.9511719, 0.3183594, -0.0668945, -12.7439032, -10.1829271, 0.3658537, -0.0446479
-0.9536133, 0.3212891, -0.065918, -12.8048782, -10.4268293, 0.5487805, -0.0500191
-0.9545898, 0.3188477, -0.0732422, -12.8658543, -10.3048782, 0.4878049, -0.0513619
-0.953125, 0.3198242, -0.0751953, -13.1097565, -10.3048782, 0.6707317, -0.0476692
-0.9501953, 0.324707, -0.0698242, -12.8048782, -10.3658543, 0.6097561, -0.0493477
-0.9501953, 0.3217773, -0.0673828, -12.8658543, -10.4268293, 0.6707317, -0.0486763
-0.9506836, 0.3168945, -0.0683594, -12.7439032, -10.4268293, 0.5487805, -0.0453193
-0.9501953, 0.3178711, -0.0683594, -12.3780489, -10.3048782, 0.4878049, -0.0466621
-0.9526367, 0.3095703, -0.059082, -12.2560978, -10.1219511, 0.4268293, -0.0449836
-0.9648438, 0.3105469, -0.0683594, -11.9512196, -10, 0.4268293, -0.0399481
-0.9643555, 0.3115234, -0.0722656, -12.1341467, -10.3048782, 0.6097561, -0.0379339
-0.9589844, 0.3193359, -0.0742188, -12.2560978, -10.7317076, 0.4878049, -0.0339055
-0.9545898, 0.3237305, -0.0727539, -12.1341467, -10.5487804, 0.4878049, -0.0365911
-0.9458008, 0.324707, -0.0688477, -12.1951218, -10.8536587, 0.3658537, -0.0372625
-0.9355469, 0.328125, -0.0688477, -12.5, -10.4268293, 0.6097561, -0.0406195
-0.9423828, 0.3256836, -0.0683594, -12.560976, -10.3048782, 0.3048781, -0.0459907
-0.9423828, 0.3295898, -0.0688477, -12.9268293, -9.9390249, 0.2439024, -0.0503548
-0.9521484, 0.3251953, -0.0708008, -12.7439032, -9.8780489, 0.0609756, -0.0459907
-0.9560547, 0.3212891, -0.0737305, -12.7439032, -10, 0.7926829, -0.0433051
-0.9570312, 0.3149414, -0.0795898, -12.8048782, -10.2439022, 0.6097561, -0.0446479
-0.9555664, 0.3076172, -0.0756836, -12.5, -9.8170738, 0.5487805, -0.0433051
-0.9619141, 0.3051758, -0.074707, -12.5, -9.8780489, 0.5487805, -0.0446479
-0.9599609, 0.3105469, -0.0732422, -12.5, -9.7560978, 0.6097561, -0.0436408
-0.9570312, 0.3095703, -0.0712891, -11.9512196, -10.2439022, 0.9146342, -0.0466621
-0.956543, 0.3134766, -0.0703125, -12.1341467, -9.9390249, 0.9146342, -0.0459907
-0.9575195, 0.3173828, -0.0742188, -12.1951218, -10.1219511, 0.7926829, -0.0449836
-0.9526367, 0.3222656, -0.0756836, -12.3170738, -10.060976, 0.8536586, -0.0392767
-0.949707, 0.3237305, -0.0703125, -12.1951218, -10, 1.097561, -0.0412909
-0.9506836, 0.3222656, -0.0625, -12.0731707, -9.6341467, 0.6707317, -0.0446479
-0.9487305, 0.3232422, -0.0615234, -12.4390249, -9.5121956, 0.9756098, -0.0459907
-0.9443359, 0.3242188, -0.0605469, -12.5, -9.8170738, 0.7926829, -0.0433051
-0.9433594, 0.3286133, -0.0620117, -12.6219511, -10.1219511, 0.9146342, -0.0419623
-0.9418945, 0.3300781, -0.0629883, -12.8048782, -9.7560978, 0.9146342, -0.0446479
-0.9428711, 0.3227539, -0.0639648, -12.8658543, -9.1463413, 0.4878049, -0.0386053
-0.9467773, 0.3183594, -0.0634766, -12.560976, -8.5365858, 0.6707317, -0.0399481
-0.9545898, 0.3085938, -0.0615234, -12.560976, -8.4756098, 0.5487805, -0.0466621
-0.9560547, 0.3071289, -0.0595703, -12.560976, -8.719512, 0.6097561, -0.0436408
-0.9658203, 0.3076172, -0.065918, -12.6219511, -8.841464, 0.7926829, -0.0446479
-0.9609375, 0.3120117, -0.065918, -12.0731707, -8.2926826, 0.9146342, -0.0500191
-0.9619141, 0.3149414, -0.0742188, -12.1341467, -8.9024391, 0.7926829, -0.0459907
-0.9624023, 0.3149414, -0.0732422, -12.0731707, -8.780488, 0.9756098, -0.0406195
-0.9599609, 0.3188477, -0.0756836, -11.8292685, -9.0853662, 0.7926829, -0.0379339
-0.9570312, 0.3154297, -0.0766602, -11.7073174, -8.6585369, 0.9756098, -0.0386053
-0.9584961, 0.3164062, -0.0756836, -11.4634151, -8.4146347, 1.2195122, -0.0369268
-0.9594727, 0.3154297, -0.0791016, -11.4634151, -8.719512, 1.097561, -0.0379339
-0.9599609, 0.3164062, -0.0839844, -11.219512, -8.780488, 1.2195122, -0.042298
-0.9624023, 0.3129883, -0.090332, -11.0365858, -9.1463413, 1.1585366, -0.0409552
-0.9604492, 0.3149414, -0.0864258, -11.1585369, -8.841464, 1.2195122, -0.0386053
-0.9633789, 0.3144531, -0.0805664, -11.1585369, -8.841464, 1.0365853, -0.0412909
-0.9599609, 0.3125, -0.0751953, -10.9146347, -9.0853662, 1.2804878, -0.0392767
-0.9599609, 0.3144531, -0.0683594, -10.5487804, -9.3292685, 1.2195122, -0.0419623
-0.9594727, 0.3178711, -0.0693359, -10.4268293, -9.2073174, 1.3414634, -0.0406195
-0.9555664, 0.3237305, -0.0761719, -10.4878054, -9.1463413, 1.2804878, -0.0392767
-0.9541016, 0.3232422, -0.0776367, -10.4268293, -9.0243902, 1.2804878, -0.0386053
-0.9575195, 0.3251953, -0.0800781, -10.4878054, -9.2073174, 1.5243902, -0.0379339
-0.9521484, 0.3227539, -0.0761719, -10.6097565, -8.780488, 1.2195122, -0.0386053
-0.9506836, 0.3242188, -0.0742188, -10.7317076, -8.719512, 1.2195122, -0.0433051
-0.9570312, 0.3227539, -0.074707, -10.5487804, -8.780488, 1.097561, -0.0433051
-0.9594727, 0.3256836, -0.0756836, -10.9756098, -8.6585369, 0.9756098, -0.0446479
-0.9672852, 0.3237305, -0.0776367, -11.0975609, -8.4756098, 1.1585366, -0.0392767
-0.9711914, 0.3286133, -0.0791016, -11.0975609, -8.9024391, 1.4634147, -0.0392767
-0.9682617, 0.3198242, -0.0737305, -11.1585369, -9.0243902, 1.4634147, -0.0379339
-0.9672852, 0.3110352, -0.0756836, -10.9756098, -9.0243902, 1.6463414, -0.0342412
-0.9628906, 0.3061523, -0.0722656, -11.0975609, -9.0853662, 1.4634147, -0.0339055
-0.9609375, 0.3081055, -0.0756836, -11.1585369, -9.1463413, 1.402439, -0.0392767
-0.9643555, 0.3154297, -0.0751953, -10.8536587, -9.0853662, 1.6463414, -0.0386053
-0.965332, 0.3144531, -0.0722656, -10.7926836, -9.0243902, 1.5243902, -0.0419623
-0.965332, 0.3154297, -0.0698242, -10.7317076, -9.4512196, 1.7073171, -0.0466621
-0.9536133, 0.3178711, -0.0639648, -11.0365858, -9.3902445, 1.7073171, -0.0473335
-0.9477539, 0.3164062, -0.0585938, -11.1585369, -8.9634151, 1.7073171, -0.0446479
-0.9501953, 0.3208008, -0.0556641, -11.0365858, -9.0243902, 1.5243902, -0.0433051
-0.9536133, 0.3242188, -0.0556641, -11.341464, -8.9024391, 1.6463414, -0.0379339
-0.9487305, 0.3266602, -0.0639648, -10.8536587, -8.5365858, 1.6463414, -0.0409552
-0.9545898, 0.3251953, -0.0703125, -10.9146347, -8.5365858, 1.5243902, -0.0392767
-0.9560547, 0.3286133, -0.0698242, -10.7317076, -8.5365858, 1.6463414, -0.0433051
-0.9633789, 0.3222656, -0.0771484, -10.9756098, -8.3536587, 1.3414634, -0.0392767
-0.9604492, 0.3242188, -0.0810547, -11.219512, -8.780488, 1.402439, -0.0439765
-0.9628906, 0.3251953, -0.0742188, -11.5853662, -8.3536587, 1.402439, -0.0409552
-0.9658203, 0.3266602, -0.0737305, -11.0365858, -8.4146347, 2.0731707, -0.0365911
-0.9584961, 0.3183594, -0.0732422, -10.8536587, -8.5975609, 2.1341465, -0.0379339
-0.956543, 0.3129883, -0.0727539, -10.4268293, -8.841464, 2.195122, -0.0433051
-0.956543, 0.3056641, -0.0668945, -10, -8.4756098, 2.195122, -0.0446479
-0.9580078, 0.3017578, -0.065918, -9.9390249, -8.2317076, 2.2560976, -0.0412909
-0.9614258, 0.3134766, -0.0693359, -10.2439022, -8.5365858, 2.3170731, -0.0412909
-0.9648438, 0.3203125, -0.0698242, -9.8170738, -8.780488, 2.6829269, -0.0412909
-0.9619141, 0.3261719, -0.0708008, -9.7560978, -9.0243902, 2.804878, -0.0399481
-0.9472656, 0.3198242, -0.0722656, -9.7560978, -9.1463413, 2.804878, -0.0453193
-0.9472656, 0.3173828, -0.0708008, -9.7560978, -8.780488, 2.9268293, -0.0449836
-0.9492188, 0.3208008, -0.0766602, -9.6341467, -8.4756098, 2.6829269, -0.0436408
-0.9492188, 0.3256836, -0.0776367, -9.6341467, -8.1707315, 2.6219513, -0.0409552
-0.9609375, 0.328125, -0.074707, -9.5731707, -8.2317076, 2.8658538, -0.0412909
-0.9628906, 0.3242188, -0.0756836, -9.7560978, -8.719512, 3.1707318, -0.0396124
-0.9589844, 0.3154297, -0.0683594, -9.7560978, -8.5365858, 3.1097562, -0.0392767
-0.9550781, 0.3154297, -0.0688477, -9.5121956, -8.1097565, 2.8658538, -0.0352483
-0.9614258, 0.3168945, -0.0683594, -9.2682924, -8.2926826, 2.6829269, -0.0386053
-0.9584961, 0.3164062, -0.0649414, -9.1463413, -8.719512, 2.6829269, -0.0392767
-0.9604492, 0.3154297, -0.0668945, -9.2073174, -8.719512, 2.7439024, -0.0386053
-0.9575195, 0.3227539, -0.0668945, -9.5731707, -9.1463413, 2.9878049, -0.0392767
-0.956543, 0.3271484, -0.0649414, -9.3902445, -9.0853662, 2.8658538, -0.0379339
-0.9467773, 0.3198242, -0.0620117, -9.6341467, -9.2682924, 2.8658538, -0.0352483
-0.9458008, 0.3188477, -0.0615234, -9.8170738, -9.3292685, 2.7439024, -0.0345769
-0.9501953, 0.315918, -0.0664062, -10, -8.841464, 2.5609756, -0.0419623
-0.9501953, 0.3227539, -0.0678711, -10.2439022, -8.719512, 2.5609756, -0.0412909
-0.9594727, 0.3251953, -0.0703125, -10.1829271, -8.5365858, 2.5, -0.0392767
-0.9584961, 0.3232422, -0.0708008, -10.060976, -8.719512, 2.6219513, -0.0359197
-0.9589844, 0.3149414, -0.0649414, -9.9390249, -8.9024391, 2.5609756, -0.0339055
-0.9633789, 0.3144531, -0.078125, -9.4512196, -9.0243902, 2.5, -0.0416266
-0.9697266, 0.315918, -0.0844727, -9.5121956, -8.841464, 2.5609756, -0.0433051
-0.9716797, 0.3208008, -0.0908203, -9.9390249, -9.1463413, 2.5, -0.0433051
-0.96875, 0.3242188, -0.0869141, -9.8170738, -9.9390249, 2.804878, -0.0439765
-0.9643555, 0.3286133, -0.0883789, -10.2439022, -10.2439022, 2.8658538, -0.0439765
-0.9614258, 0.3310547, -0.0898438, -10.1829271, -10.1829271, 2.6829269, -0.0426337
-0.9604492, 0.3295898, -0.0854492, -10.2439022, -10.1219511, 2.7439024, -0.0439765
-0.9584961, 0.3295898, -0.0820312, -10.2439022, -10.1829271, 2.6219513, -0.0446479
-0.9619141, 0.3300781, -0.0869141, -10.060976, -9.9390249, 2.2560976, -0.0433051
-0.9663086, 0.3305664, -0.0820312, -10.2439022, -10.6097565, 2.2560976, -0.0459907
-0.9643555, 0.3276367, -0.0771484, -10.4878054, -10.5487804, 2.2560976, -0.056733
-0.9633789, 0.3227539, -0.0766602, -10.6707315, -10.6707315, 2.3170731, -0.0506905
-0.9594727, 0.3222656, -0.0756836, -10.9146347, -10.3658543, 2.5, -0.0547189
-0.9633789, 0.3251953, -0.0673828, -10.9146347, -10.6707315, 1.8902439, -0.0540475
-0.9594727, 0.3276367, -0.0673828, -10.5487804, -10.9756098, 1.7682927, -0.0506905
-0.956543, 0.3251953, -0.0717773, -10.4878054, -11.1585369, 1.9512196, -0.0480049
-0.9541016, 0.3212891, -0.0751953, -10.7926836, -11.1585369, 1.8902439, -0.0453193
-0.9526367, 0.3251953, -0.0737305, -10.8536587, -10.8536587, 1.7073171, -0.0439765
-0.9521484, 0.3266602, -0.0732422, -10.7926836, -10.7317076, 1.6463414, -0.0433051
-0.9521484, 0.3237305, -0.0761719, -10.9756098, -10.6097565, 1.8902439, -0.0449836
-0.949707, 0.328125, -0.0751953, -11.4634151, -10.6707315, 1.8292683, -0.0466621
-0.9526367, 0.3212891, -0.0717773, -11.280488, -10.7926836, 1.7073171, -0.0433051
-0.9536133, 0.3115234, -0.0708008, -11.5243902, -10.7926836, 1.6463414, -0.0406195
-0.956543, 0.3110352, -0.0722656, -11.4634151, -10.9756098, 1.5853659, -0.0412909
-0.9555664, 0.3032227, -0.0717773, -11.280488, -10.8536587, 1.4634147, -0.0439765
-0.9541016, 0.3051758, -0.0717773, -10.8536587, -11.1585369, 1.8292683, -0.0453193
-0.9516602, 0.3061523, -0.0742188, -11.0975609, -11.1585369, 1.7682927, -0.0493477
-0.9541016, 0.3085938, -0.0766602, -11.4024391, -11.5243902, 1.6463414, -0.0433051
-0.9536133, 0.3193359, -0.0727539, -11.4634151, -11.219512, 1.5853659, -0.0412909
-0.9516602, 0.3222656, -0.0712891, -11.5853662, -11.1585369, 1.5853659, -0.0396124
-0.9453125, 0.3261719, -0.0654297, -11.4634151, -11.0975609, 1.4634147, -0.0392767
-0.9467773, 0.3266602, -0.0678711, -11.8902445, -11.341464, 1.5243902, -0.0412909
-0.9487305, 0.328125, -0.0678711, -12.1341467, -11.1585369, 1.5243902, -0.0439765
-0.9501953, 0.324707, -0.0756836, -11.7682934, -10.8536587, 1.4634147, -0.0419623
-0.9575195, 0.3183594, -0.0761719, -11.9512196, -10.7317076, 1.7073171, -0.0419623
-0.9633789, 0.3178711, -0.0791016, -11.7682934, -10.9146347, 1.4634147, -0.0446479
-0.9624023, 0.3173828, -0.0810547, -12.1951218, -10.8536587, 1.5243902, -0.0399481
-0.9604492, 0.3193359, -0.0776367, -12.2560978, -11.0975609, 1.1585366, -0.0406195
-0.9643555, 0.3198242, -0.0742188, -12.1341467, -11.4024391, 1.5243902, -0.0419623
-0.9575195, 0.3144531, -0.0693359, -11.8292685, -10.9756098, 1.3414634, -0.0433051
-0.9599609, 0.3115234, -0.0639648, -11.8292685, -11.280488, 1.2804878, -0.0399481
-0.9584961, 0.315918, -0.0634766, -11.9512196, -11.5243902, 1.097561, -0.0426337
-0.9560547, 0.3129883, -0.0625, -11.6463413, -11.4024391, 1.097561, -0.0433051
-0.953125, 0.3173828, -0.0639648, -11.4634151, -11.4024391, 1.0365853, -0.0372625
-0.9501953, 0.3173828, -0.0644531, -11.4634151, -11.5243902, 1.097561, -0.0379339
-0.9516602, 0.3144531, -0.0683594, -11.4634151, -11.4024391, 0.9756098, -0.0386053
-0.949707, 0.3208008, -0.0717773, -11.4024391, -11.1585369, 0.6707317, -0.0365911
-0.9482422, 0.3183594, -0.0727539, -11.7073174, -10.9146347, 0.3658537, -0.0352483
-0.9462891, 0.315918, -0.0717773, -11.6463413, -11.0365858, 0.4878049, -0.0409552
-0.9521484, 0.315918, -0.0693359, -12.0731707, -10.8536587, 0.3048781, -0.0433051
-0.9555664, 0.3168945, -0.0698242, -11.9512196, -10.7317076, 0.3658537, -0.0406195
-0.9541016, 0.3120117, -0.0693359, -11.8902445, -11.0975609, 0.3658537, -0.0439765
-0.953125, 0.3076172, -0.0649414, -12.0731707, -11.0365858, 0, -0.0392767
-0.9536133, 0.3056641, -0.0664062, -11.8292685, -11.0365858, 0.2439024, -0.0406195
-0.9580078, 0.3100586, -0.0634766, -11.5853662, -11.219512, 0.1219512, -0.0419623
-0.9604492, 0.3120117, -0.0693359, -11.9512196, -11.219512, 0.3048781, -0.0433051
-0.9575195, 0.3164062, -0.0620117, -12.0731707, -11.4024391, 0.3658537, -0.0433051
-0.9511719, 0.3134766, -0.059082, -11.7073174, -11.219512, 0.1829268, -0.0463264
-0.949707, 0.3110352, -0.0561523, -11.280488, -10.7317076, 0.2439024, -0.0406195
-0.9580078, 0.3012695, -0.0546875, -11.0365858, -10.9146347, 0.1219512, -0.0396124
-0.9604492, 0.3017578, -0.0512695, -10.4268293, -10.7317076, 0.3658537, -0.0433051
-0.965332, 0.3012695, -0.0532227, -10.1219511, -10.6707315, 0.2439024, -0.0439765
-0.9648438, 0.3012695, -0.0556641, -9.7560978, -10.4878054, 0.2439024, -0.0406195
-0.9609375, 0.2993164, -0.0634766, -9.3292685, -10.4268293, 0.3048781, -0.0332341
-0.9619141, 0.3041992, -0.0644531, -9.4512196, -10.5487804, 0.7317073, -0.0339055
-0.9482422, 0.3085938, -0.0615234, -9.2073174, -10.2439022, 0.6707317, -0.0406195
-0.9482422, 0.3178711, -0.0595703, -9.4512196, -10.1219511, 0.6097561, -0.0352483
-0.9477539, 0.3193359, -0.0620117, -9.5121956, -10.3658543, 0.6707317, -0.0406195
-0.9443359, 0.3256836, -0.0527344, -9.5121956, -10.2439022, 0.4268293, -0.0419623
-0.9375, 0.3276367, -0.0527344, -9.6951218, -9.6951218, 0.6097561, -0.0365911
-0.9453125, 0.3203125, -0.0561523, -9.8170738, -9.6341467, 0.4268293, -0.0396124
-0.9428711, 0.3208008, -0.0585938, -9.7560978, -9.3902445, 0.3658537, -0.0396124
-0.9423828, 0.3139648, -0.0654297, -9.7560978, -9.3902445, 0.3048781, -0.0392767
-0.9467773, 0.3041992, -0.0600586, -9.5731707, -8.719512, 0.4268293, -0.0392767
-0.953125, 0.2978516, -0.0693359, -9.0853662, -8.719512, 0.3048781, -0.0392767
-0.9526367, 0.296875, -0.0698242, -8.5975609, -8.841464, 0.4878049, -0.042298
-0.9594727, 0.293457, -0.0810547, -8.719512, -8.780488, 0.4878049, -0.0406195
-0.9570312, 0.296875, -0.0727539, -9.0853662, -8.5365858, 0.3658537, -0.0419623
-0.9624023, 0.2993164, -0.0703125, -8.5365858, -8.780488, 0.3048781, -0.0379339
-0.9594727, 0.3095703, -0.0849609, -7.8048782, -8.6585369, 0.7317073, -0.0325628
-0.9550781, 0.3134766, -0.0854492, -8.5365858, -9.3292685, 1.0365853, -0.0305486
-0.9487305, 0.315918, -0.0810547, -8.4756098, -9.4512196, 0.9146342, -0.0352483
-0.9433594, 0.3134766, -0.0839844, -8.719512, -8.841464, 1.402439, -0.0359197
-0.9418945, 0.3076172, -0.0864258, -9.2682924, -8.841464, 1.3414634, -0.0379339
-0.9448242, 0.3081055, -0.0830078, -9.2073174, -8.9024391, 0.9756098, -0.0419623
-0.9511719, 0.3041992, -0.0771484, -8.6585369, -8.719512, 1.0365853, -0.0392767
-0.9521484, 0.3041992, -0.0859375, -8.2926826, -9.0243902, 0.8536586, -0.0379339
-0.9594727, 0.3012695, -0.0830078, -8.5365858, -8.841464, 1.097561, -0.0433051
-0.9672852, 0.3022461, -0.0776367, -8.2926826, -8.9024391, 1.0365853, -0.0433051
-0.9663086, 0.3041992, -0.0761719, -8.0487804, -8.780488, 1.2804878, -0.0433051
-0.9594727, 0.3066406, -0.0727539, -8.1097565, -9.3292685, 1.2195122, -0.0480049
-0.9570312, 0.3095703, -0.0712891, -7.4390244, -9.4512196, 1.1585366, -0.0466621
-0.9541016, 0.309082, -0.0625, -7.3780489, -9.2682924, 0.9756098, -0.0412909
-0.9536133, 0.3061523, -0.0595703, -7.1341467, -9.2682924, 0.9146342, -0.0406195
-0.953125, 0.3164062, -0.0668945, -7.2560978, -9.0853662, 1.097561, -0.0433051
-0.9521484, 0.3178711, -0.0668945, -7.1951222, -9.0853662, 0.9146342, -0.0409552
-0.9501953, 0.3193359, -0.0634766, -6.9512196, -9.0243902, 1.097561, -0.0392767
-0.949707, 0.3193359, -0.0673828, -7.0121951, -8.9634151, 0.8536586, -0.0473335
-0.9453125, 0.3203125, -0.074707, -6.8292685, -9.1463413, 0.9146342, -0.0513619
-0.9541016, 0.3154297, -0.0761719, -7.5609756, -8.9024391, 0.4878049, -0.0500191
-0.9570312, 0.3144531, -0.0800781, -7.1951222, -8.5975609, 0.3658537, -0.0439765
-0.965332, 0.3168945, -0.0869141, -7.3170733, -8.4756098, 0, -0.0426337
-0.9682617, 0.3129883, -0.0844727, -7.1951222, -8.841464, 0.5487805, -0.0459907
-0.9658203, 0.3032227, -0.0864258, -7.2560978, -9.2073174, 0.4878049, -0.0463264
-0.9658203, 0.3027344, -0.0869141, -7.3780489, -9.6341467, 0.3658537, -0.0446479
-0.9624023, 0.3066406, -0.0844727, -7.5609756, -9.2682924, 0.1829268, -0.0446479
-0.965332, 0.3105469, -0.0869141, -7.6829271, -9.4512196, 0.2439024, -0.0459907
-0.9584961, 0.3193359, -0.0864258, -8.0487804, -9.5731707, 0.2439024, -0.0459907
-0.956543, 0.3173828, -0.0834961, -7.9878049, -10.060976, -0.0609756, -0.049012
-0.9521484, 0.3129883, -0.0712891, -7.8658538, -10.1219511, -0.2439024, -0.0493477
-0.9633789, 0.3125, -0.0761719, -6.9512196, -9.8780489, -0.1829268, -0.0513619
-0.9609375, 0.3076172, -0.0854492, -6.9512196, -9.8780489, -0.3658537, -0.0500191
-0.9594727, 0.2978516, -0.0795898, -6.7073174, -10.4268293, 0, -0.056733
-0.9521484, 0.2919922, -0.0727539, -6.2195125, -10.5487804, -0.3658537, -0.056733
-0.9536133, 0.2958984, -0.0732422, -5.7317076, -10.1829271, -0.3658537, -0.0527047
-0.9560547, 0.2954102, -0.0776367, -5.609756, -10.060976, -0.6097561, -0.0513619
-0.9633789, 0.2983398, -0.0712891, -5.1829271, -9.9390249, -0.3048781, -0.0486763
-0.9575195, 0.3012695, -0.0693359, -5.3048782, -10.3658543, -0.2439024, -0.052369
-0.9619141, 0.3012695, -0.0639648, -5.3658538, -10.4878054, -0.4878049, -0.0506905
-0.9604492, 0.3037109, -0.0581055, -5.609756, -10.4268293, -0.7926829, -0.0486763
-0.9584961, 0.3066406, -0.0571289, -5.5487804, -10.3658543, -0.4878049, -0.049012
-0.9536133, 0.3076172, -0.0537109, -5.3048782, -10.7317076, -0.4878049, -0.0473335
-0.9526367, 0.3056641, -0.0522461, -5.5487804, -10.7317076, -0.7317073, -0.0473335
-0.9521484, 0.3056641, -0.0527344, -5.7926831, -10.7926836, -0.6707317, -0.0433051
-0.9511719, 0.3056641, -0.0566406, -6.4634147, -10.2439022, -0.9146342, -0.0446479
-0.9482422, 0.3066406, -0.0639648, -6.6463418, -10.1219511, -0.9146342, -0.0500191
-0.9560547, 0.3120117, -0.0649414, -7.1951222, -10.060976, -1.0365853, -0.0527047
-0.9604492, 0.3125, -0.0668945, -7.5, -9.9390249, -1.0365853, -0.0513619
-0.956543, 0.3129883, -0.0664062, -8.0487804, -10.6097565, -1.1585366, -0.0547189
-0.9541016, 0.3139648, -0.0668945, -8.3536587, -10.2439022, -1.097561, -0.0500191
-0.9545898, 0.3085938, -0.0605469, -8.2317076, -10.1829271, -1.2804878, -0.0466621
-0.9575195, 0.3027344, -0.0551758, -7.8048782, -10.060976, -1.2195122, -0.0473335
-0.9604492, 0.2939453, -0.0532227, -7.1951222, -10.1219511, -1.402439, -0.0459907
-0.9580078, 0.2871094, -0.0600586, -6.9512196, -10.1219511, -1.3414634, -0.0473335
-0.9609375, 0.2954102, -0.0581055, -6.890244, -10, -1.2804878, -0.0449836
-0.9672852, 0.3007812, -0.0585938, -7.1341467, -9.3292685, -1.4634147, -0.0466621
-0.9731445, 0.3139648, -0.0639648, -7.1951222, -9.6951218, -1.5243902, -0.0466621
-0.9648438, 0.3173828, -0.0717773, -7.3780489, -10.7926836, -0.7926829, -0.0466621
-0.9511719, 0.3227539, -0.0761719, -7.9878049, -10.8536587, -0.7926829, -0.0486763
-0.9506836, 0.3222656, -0.0727539, -8.2926826, -10.4268293, -1.3414634, -0.0473335
-0.9492188, 0.3193359, -0.0703125, -8.4146347, -10.2439022, -1.5243902, -0.0473335
-0.9521484, 0.3110352, -0.0644531, -8.4756098, -10.4268293, -1.402439, -0.0473335
-0.9511719, 0.3041992, -0.0644531, -8.4146347, -10.6097565, -1.1585366, -0.0459907
-0.9453125, 0.2929688, -0.0703125, -7.6219516, -10.6097565, -1.402439, -0.0446479
-0.9482422, 0.2890625, -0.0688477, -7.5609756, -10.4268293, -1.8292683, -0.0436408
-0.9560547, 0.2944336, -0.0698242, -7.4390244, -9.9390249, -2.0731707, -0.0406195
-0.9589844, 0.3007812, -0.0722656, -7.3170733, -9.8170738, -1.8902439, -0.0419623
-0.9643555, 0.3154297, -0.0761719, -7.7439027, -9.8780489, -2.0731707, -0.0406195
-0.9628906, 0.3217773, -0.0761719, -8.1097565, -10.9146347, -2.0731707, -0.0453193
-0.9521484, 0.3193359, -0.0756836, -8.1097565, -11.4024391, -2.0121951, -0.0463264
-0.9482422, 0.3208008, -0.0761719, -8.6585369, -11.5853662, -1.9512196, -0.0379339
-0.9458008, 0.3120117, -0.0756836, -9.1463413, -11.0975609, -2.2560976, -0.035584
-0.9453125, 0.309082, -0.0795898, -9.8780489, -10.6707315, -2.5609756, -0.042298
-0.9521484, 0.3120117, -0.0795898, -10.3658543, -10.6707315, -2.9268293, -0.0419623
-0.9589844, 0.3188477, -0.0795898, -10.9756098, -10.5487804, -2.8658538, -0.0433051
-0.9609375, 0.3183594, -0.078125, -11.9512196, -11.4024391, -3.2926829, -0.0473335
-0.9516602, 0.3110352, -0.0727539, -12.0121956, -11.9512196, -3.3536587, -0.0473335
-0.9482422, 0.3071289, -0.0717773, -12.0121956, -11.6463413, -3.4146342, -0.0469978
-0.9453125, 0.2998047, -0.0703125, -11.6463413, -11.219512, -3.9024391, -0.0473335
-0.9511719, 0.3032227, -0.0668945, -11.5853662, -11.0975609, -4.1463413, -0.0439765
-0.956543, 0.309082, -0.0625, -11.8292685, -11.280488, -4.4512196, -0.0486763
-0.9580078, 0.309082, -0.0673828, -12.0731707, -11.6463413, -4.4512196, -0.0486763
-0.9526367, 0.3115234, -0.0673828, -12.0121956, -11.8902445, -4.6341462, -0.0480049
-0.9570312, 0.3066406, -0.0620117, -12.3780489, -11.9512196, -4.5731707, -0.0426337
-0.9599609, 0.3061523, -0.0649414, -12.1951218, -12.0121956, -4.6951222, -0.0433051
-0.9609375, 0.3061523, -0.0732422, -12.560976, -12.2560978, -5.0609756, -0.0473335
-0.9599609, 0.3085938, -0.0751953, -12.7439032, -12.3780489, -5.4878049, -0.0486763
-0.9638672, 0.3095703, -0.0751953, -13.1097565, -12.0121956, -5.4878049, -0.0480049
-0.9604492, 0.3105469, -0.0722656, -13.4756098, -12.1951218, -5.670732, -0.049012
-0.9614258, 0.3110352, -0.0688477, -13.4756098, -12.0731707, -5.7317076, -0.0486763
-0.9648438, 0.3095703, -0.0683594, -13.4756098, -12.560976, -6.2195125, -0.0503548
-0.965332, 0.3120117, -0.0625, -13.2317076, -12.8658543, -6.1585369, -0.0527047
-0.9663086, 0.3081055, -0.0634766, -13.2317076, -12.6829271, -6.280488, -0.0486763
-0.965332, 0.2973633, -0.0566406, -13.4146347, -12.6219511, -6.0975609, -0.0459907
-0.9633789, 0.2915039, -0.0522461, -12.7439032, -12.5, -6.6463418, -0.0473335
-0.9658203, 0.2900391, -0.050293, -12.3780489, -12.6829271, -6.7073174, -0.0419623
-0.9707031, 0.2875977, -0.0537109, -11.7682934, -12.3780489, -7.0731707, -0.0433051
-0.9716797, 0.2880859, -0.0517578, -11.280488, -12.560976, -7.0121951, -0.0500191
-0.965332, 0.2875977, -0.043457, -10.9146347, -12.560976, -7.0121951, -0.0493477
-0.9638672, 0.2875977, -0.0458984, -10.060976, -12.560976, -7.1951222, -0.0466621
-0.9677734, 0.2880859, -0.0493164, -9.8780489, -12.8048782, -7.5, -0.0466621
-0.9697266, 0.2880859, -0.0493164, -9.6951218, -12.6219511, -7.1341467, -0.0443122
-0.9643555, 0.2841797, -0.0512695, -9.4512196, -12.7439032, -7.0731707, -0.0433051
-0.9672852, 0.2856445, -0.0551758, -8.9634151, -12.4390249, -7.3170733, -0.0406195
-0.9643555, 0.2836914, -0.0546875, -9.0243902, -12.3170738, -7.0121951, -0.0433051
-0.9672852, 0.2880859, -0.0473633, -8.9634151, -12.5, -7.7439027, -0.0459907
-0.9711914, 0.2900391, -0.0532227, -8.9024391, -12.3780489, -7.6829271, -0.0463264
-0.9755859, 0.2983398, -0.0678711, -8.780488, -12.9268293, -7.2560978, -0.0459907
-0.9697266, 0.2963867, -0.0703125, -9.5731707, -13.1707315, -7.2560978, -0.0433051
-0.9663086, 0.3032227, -0.074707, -9.9390249, -13.1707315, -7.5, -0.0446479
-0.9604492, 0.3144531, -0.0766602, -10.3658543, -13.1707315, -7.6829271, -0.0439765
-0.9609375, 0.3164062, -0.0708008, -10.8536587, -13.1707315, -7.5609756, -0.0446479
-0.9575195, 0.3154297, -0.0678711, -11.7682934, -12.8658543, -7.8658538, -0.0493477
-0.9584961, 0.3154297, -0.0605469, -12.0121956, -12.8658543, -7.7439027, -0.0513619
-0.9575195, 0.3125, -0.0561523, -12.9878054, -12.3170738, -8.1707315, -0.0500191
-0.9638672, 0.3105469, -0.0458984, -13.3536587, -11.9512196, -8.5365858, -0.0513619
-0.9702148, 0.3056641, -0.0361328, -12.9878054, -11.5243902, -8.4146347, -0.0493477
-0.9746094, 0.3027344, -0.0395508, -13.1707315, -11.7682934, -8.5975609, -0.0463264
-0.9711914, 0.2866211, -0.0429688, -13.6585369, -12.0121956, -8.4756098, -0.0463264
-0.965332, 0.2851562, -0.0478516, -13.780488, -11.8902445, -8.2317076, -0.0453193
-0.9614258, 0.2797852, -0.0556641, -14.0853662, -11.5853662, -8.3536587, -0.0433051
-0.9667969, 0.2729492, -0.0522461, -13.3536587, -10.9756098, -8.1707315, -0.0439765
-0.9707031, 0.2675781, -0.0541992, -12.9878054, -10.7926836, -7.9878049, -0.0419623
-0.9677734, 0.2636719, -0.0610352, -11.4024391, -10.9756098, -7.5609756, -0.0459907
-0.9672852, 0.262207, -0.0678711, -11.0975609, -10.9146347, -7.5609756, -0.0433051
-0.9697266, 0.262207, -0.0693359, -10.3658543, -10.6097565, -7.0731707, -0.0392767
-0.980957, 0.2685547, -0.0761719, -10.1829271, -10, -6.9512196, -0.0406195
-0.9887695, 0.2685547, -0.0795898, -9.3292685, -9.8780489, -6.4024391, -0.0426337
-0.9912109, 0.2651367, -0.0800781, -8.5365858, -9.8170738, -6.0975609, -0.0433051
-0.9873047, 0.2470703, -0.0805664, -7.1951222, -9.9390249, -5.3658538, -0.0392767
-0.9873047, 0.2431641, -0.0800781, -5.3048782, -10.3048782, -4.2682929, -0.038941
-0.9902344, 0.2348633, -0.0888672, -4.7560978, -10.060976, -4.2682929, -0.0392767
-0.9956055, 0.2329102, -0.0957031, -3.2926829, -9.9390249, -3.4146342, -0.0412909
-0.9990234, 0.2358398, -0.1000977, -2.6219513, -10.2439022, -3.1097562, -0.0433051
-0.9970703, 0.2368164, -0.1040039, -1.097561, -10.9756098, -2.0731707, -0.0446479
-0.9887695, 0.2368164, -0.1054688, -0.4268293, -11.341464, -1.4634147, -0.0419623
-0.9794922, 0.2412109, -0.1044922, 1.4634147, -11.8292685, -0.5487805, -0.0433051
-0.9677734, 0.2475586, -0.1040039, 1.9512196, -11.6463413, -0.1219512, -0.0392767
-0.9594727, 0.2529297, -0.09375, 3.0487804, -11.341464, 0.7926829, -0.0419623
-0.9541016, 0.2602539, -0.0864258, 3.5975611, -10.7317076, 1.2195122, -0.0446479
-0.9541016, 0.2763672, -0.0820312, 4.5121951, -10.6707315, 2.2560976, -0.0409552
-0.9575195, 0.2744141, -0.0805664, 6.0365853, -10, 2.6829269, -0.0382696
-0.9599609, 0.2651367, -0.0854492, 7.1341467, -10.060976, 3.2317073, -0.0406195
-0.9560547, 0.2563477, -0.09375, 7.8658538, -9.8780489, 4.3292685, -0.0406195
-0.9550781, 0.2480469, -0.0986328, 8.0487804, -9.3292685, 4.4512196, -0.0409552
-0.9604492, 0.2485352, -0.0957031, 9.0243902, -7.9878049, 5.2439027, -0.0392767
-0.9833984, 0.2661133, -0.0957031, 9.3902445, -7.6219516, 5.4878049, -0.0406195
-0.9853516, 0.2763672, -0.0927734, 10.1829271, -7.9268293, 6.280488, -0.0419623
-0.9765625, 0.2924805, -0.0927734, 10.2439022, -8.5365858, 6.6463418, -0.0459907
-0.9570312, 0.3017578, -0.0927734, 9.8780489, -9.0243902, 7.5609756, -0.0486763
-0.9506836, 0.300293, -0.0932617, 9.5121956, -8.841464, 7.6829271, -0.0446479
-0.9462891, 0.3032227, -0.0825195, 8.719512, -7.9878049, 8.1707315, -0.0419623
-0.9443359, 0.3071289, -0.0820312, 8.2317076, -7.3170733, 8.2926826, -0.0412909
-0.9458008, 0.3120117, -0.0820312, 8.0487804, -7.3780489, 8.1707315, -0.0379339
-0.9423828, 0.315918, -0.0893555, 7.3170733, -7.6829271, 8.1097565, -0.0392767
-0.940918, 0.3193359, -0.0957031, 6.6463418, -7.6219516, 8.1707315, -0.0379339
-0.9394531, 0.3237305, -0.097168, 6.6463418, -7.4390244, 8.2317076, -0.0412909
-0.9379883, 0.3115234, -0.1015625, 6.9512196, -7.2560978, 8.2926826, -0.0419623
-0.9355469, 0.3061523, -0.0981445, 7.7439027, -6.8292685, 8.1707315, -0.0463264
-0.9345703, 0.2993164, -0.0883789, 7.9878049, -6.4024391, 8.0487804, -0.0486763
-0.9492188, 0.3027344, -0.0942383, 7.9878049, -5.7317076, 7.9268293, -0.0459907
-0.9594727, 0.3046875, -0.0932617, 8.1097565, -6.1585369, 8.1097565, -0.0386053
-0.9614258, 0.3076172, -0.0825195, 8.9634151, -6.5243902, 8.6585369, -0.0332341
-0.9594727, 0.3085938, -0.0859375, 9.5731707, -7.2560978, 8.841464, -0.0406195
-0.9511719, 0.3071289, -0.0981445, 9.6341467, -7.5609756, 8.719512, -0.0433051
-0.9492188, 0.3061523, -0.105957, 9.0853662, -7.8048782, 8.6585369, -0.0426337
-0.9404297, 0.3110352, -0.1118164, 8.780488, -7.9268293, 8.719512, -0.0419623
-0.9404297, 0.3183594, -0.1123047, 8.5975609, -7.6219516, 8.719512, -0.0459907
-0.9453125, 0.3286133, -0.1049805, 8.780488, -7.3170733, 8.719512, -0.0446479
-0.9438477, 0.3242188, -0.0996094, 9.7560978, -7.8658538, 8.6585369, -0.0433051
-0.9335938, 0.3041992, -0.097168, 10.5487804, -8.0487804, 8.9634151, -0.0463264
-0.9243164, 0.2822266, -0.0922852, 11.9512196, -7.9268293, 9.0243902, -0.0469978
-0.925293, 0.2768555, -0.0922852, 12.2560978, -7.5, 9.0853662, -0.0439765
-0.9453125, 0.2797852, -0.0869141, 12.3170738, -6.4634147, 8.4756098, -0.0486763
-0.9589844, 0.2841797, -0.0844727, 12.4390249, -6.4024391, 8.5975609, -0.0513619
-0.9638672, 0.293457, -0.0898438, 12.2560978, -6.7073174, 8.841464, -0.0459907
-0.9604492, 0.2910156, -0.0864258, 12.0121956, -7.4390244, 8.9024391, -0.0480049
-0.9570312, 0.3022461, -0.0844727, 12.5, -7.5, 8.719512, -0.0463264
-0.9550781, 0.3046875, -0.0854492, 12.7439032, -7.4390244, 8.6585369, -0.0446479
-0.9526367, 0.3134766, -0.0844727, 12.4390249, -7.6829271, 9.0243902, -0.049012
-0.9492188, 0.3173828, -0.0776367, 11.6463413, -7.8658538, 8.9634151, -0.0486763
-0.9379883, 0.3178711, -0.0737305, 11.280488, -7.7439027, 8.6585369, -0.0459907
-0.9345703, 0.3164062, -0.0810547, 10.6707315, -7.9878049, 8.4146347, -0.0446479
-0.9326172, 0.3154297, -0.081543, 10.3048782, -8.1707315, 8.3536587, -0.0446479
-0.9301758, 0.3051758, -0.0756836, 9.7560978, -7.7439027, 8.0487804, -0.0419623
-0.9321289, 0.3041992, -0.0732422, 9.6341467, -6.8292685, 7.3780489, -0.0406195
-0.9448242, 0.3041992, -0.0634766, 9.4512196, -6.6463418, 7.0121951, -0.0480049
-0.9555664, 0.3061523, -0.0581055, 10.9146347, -6.7682929, 6.890244, -0.0419623
-0.9619141, 0.3017578, -0.0688477, 11.4634151, -7.0121951, 7.0731707, -0.0419623
-0.9536133, 0.2929688, -0.0795898, 11.5853662, -7.7439027, 7.1341467, -0.0459907
-0.9414062, 0.2871094, -0.0810547, 10.8536587, -7.6219516, 6.9512196, -0.0426337
-0.9428711, 0.2885742, -0.0820312, 10, -6.890244, 6.4024391, -0.0406195
-0.9545898, 0.3046875, -0.0917969, 9.0853662, -6.7682929, 5.9756098, -0.0439765
-0.9418945, 0.3188477, -0.0922852, 7.5, -6.7073174, 6.4634147, -0.0473335
-0.934082, 0.3251953, -0.0878906, 6.3414636, -7.3170733, 6.4634147, -0.0419623
-0.9262695, 0.3222656, -0.0776367, 5.3048782, -7.8048782, 6.0365853, -0.0386053
-0.9233398, 0.3183594, -0.0722656, 4.6341462, -7.3170733, 5.4878049, -0.0365911
-0.9365234, 0.3183594, -0.0688477, 4.390244, -6.890244, 4.9390244, -0.0433051
-0.9433594, 0.324707, -0.0693359, 3.5975611, -6.4024391, 4.0853658, -0.0406195
-0.9580078, 0.3261719, -0.0805664, 3.3536587, -6.7073174, 4.0243902, -0.0453193
-0.9541016, 0.3203125, -0.0888672, 2.0731707, -7.8048782, 4.1463413, -0.0449836
-0.9521484, 0.3081055, -0.0878906, 2.0731707, -8.3536587, 3.9634147, -0.0419623
-0.9458008, 0.3037109, -0.0849609, 2.5609756, -8.0487804, 3.7195122, -0.0392767
-0.953125, 0.2973633, -0.0800781, 3.1097562, -7.9268293, 3.5975611, -0.0379339
-0.9472656, 0.2988281, -0.0869141, 3.8414636, -7.5609756, 3.1707318, -0.0406195
-0.9433594, 0.300293, -0.0864258, 3.7195122, -7.6829271, 3.2317073, -0.0446479
-0.9477539, 0.3100586, -0.0805664, 3.8414636, -7.6219516, 2.4390244, -0.0399481
-0.9550781, 0.3115234, -0.0820312, 4.0853658, -7.7439027, 2.5, -0.0446479
-0.9521484, 0.3115234, -0.0898438, 3.7195122, -7.9878049, 2.6829269, -0.0433051
-0.9428711, 0.3105469, -0.0927734, 3.2926829, -8.1707315, 2.6219513, -0.0406195
-0.9399414, 0.3037109, -0.0947266, 2.804878, -7.9268293, 2.0731707, -0.0372625
-0.9433594, 0.2988281, -0.0844727, 2.6219513, -7.0121951, 1.7682927, -0.0412909
-0.9516602, 0.293457, -0.0795898, 2.8658538, -6.6463418, 1.9512196, -0.0433051
-0.9521484, 0.2929688, -0.0883789, 3.0487804, -7.1951222, 2.3780489, -0.0453193
-0.9423828, 0.2895508, -0.0888672, 2.6829269, -7.0121951, 2.3170731, -0.0486763
-0.9584961, 0.2817383, -0.0913086, 2.0731707, -6.4024391, 1.7073171, -0.0386053
-0.9663086, 0.2861328, -0.0952148, 1.7073171, -6.5243902, 1.9512196, -0.0419623
-0.9682617, 0.2890625, -0.0957031, 1.3414634, -7.0121951, 2.3170731, -0.0419623
-0.9633789, 0.2871094, -0.0961914, 0.4268293, -7.0731707, 2.804878, -0.0433051
-0.9492188, 0.2724609, -0.0932617, 0.1219512, -7.1951222, 2.804878, -0.0419623
-0.9428711, 0.2675781, -0.0927734, 0.7926829, -7.1951222, 3.2926829, -0.0433051
-0.9414062, 0.2680664, -0.0913086, 1.2195122, -6.5853658, 2.9268293, -0.0426337
-0.9492188, 0.2695312, -0.0869141, 1.2195122, -5.4878049, 2.6219513, -0.0436408
-0.9663086, 0.2802734, -0.0888672, 1.1585366, -5.0609756, 2.4390244, -0.0446479
-0.9716797, 0.2797852, -0.0869141, 1.2195122, -5.609756, 2.9878049, -0.0412909
-0.9750977, 0.28125, -0.0776367, 1.5853659, -5.7926831, 3.0487804, -0.0406195
-0.9760742, 0.2861328, -0.0688477, 2.0731707, -5.7317076, 3.4146342, -0.0419623
-0.980957, 0.293457, -0.0668945, 2.3780489, -5.670732, 2.8658538, -0.0453193
-0.9882812, 0.2993164, -0.0771484, 3.7195122, -5.9146342, 3.3536587, -0.0506905
-0.987793, 0.2993164, -0.0869141, 5.3048782, -6.7682929, 4.390244, -0.0533761
-0.9760742, 0.2880859, -0.097168, 5.7317076, -6.7682929, 4.6341462, -0.0513619
-0.9765625, 0.2895508, -0.0976562, 6.4634147, -5.609756, 4.390244, -0.0459907
-0.9765625, 0.2929688, -0.1040039, 6.6463418, -5, 4.4512196, -0.0513619
-0.9804688, 0.2973633, -0.1088867, 6.890244, -5.670732, 4.5121951, -0.0513619
-0.9780273, 0.3007812, -0.1108398, 6.8292685, -5.9146342, 4.6951222, -0.0486763
-0.9667969, 0.2983398, -0.1176758, 6.890244, -6.0975609, 5.3658538, -0.0459907
-0.9633789, 0.2954102, -0.1152344, 6.5243902, -5.9146342, 5.3658538, -0.0446479
-0.9624023, 0.3022461, -0.105957, 5.8536587, -5, 5.3658538, -0.0453193
-0.9643555, 0.3129883, -0.0986328, 5.1829271, -4.5731707, 5.1829271, -0.0459907
-0.9711914, 0.3237305, -0.0961914, 3.9024391, -4.5731707, 5.1829271, -0.0436408
-0.9731445, 0.328125, -0.0966797, 2.2560976, -5.1829271, 5.1829271, -0.0379339
-0.9731445, 0.3276367, -0.0966797, 1.5853659, -5.3048782, 5.1219511, -0.0359197
-0.9707031, 0.3271484, -0.097168, 0.3048781, -5.0609756, 4.9390244, -0.0352483
-0.9667969, 0.3266602, -0.1015625, 0.1829268, -4.6951222, 5.0609756, -0.0365911
-0.9643555, 0.324707, -0.1054688, 0.0609756, -4.0853658, 4.8170733, -0.0372625
-0.9707031, 0.3193359, -0.1064453, 0.1829268, -3.9024391, 4.8170733, -0.0372625
-0.9824219, 0.3178711, -0.1235352, 1.1585366, -3.7804878, 4.4512196, -0.0382696
-0.9892578, 0.3183594, -0.1259766, 1.6463414, -3.5365853, 4.7560978, -0.0412909
-0.996582, 0.3149414, -0.1196289, 3.2926829, -3.5365853, 5.3048782, -0.03122
-0.9980469, 0.309082, -0.1171875, 6.5243902, -4.0853658, 6.4024391, -0.0379339
-0.9902344, 0.28125, -0.1225586, 9.0853662, -4.5121951, 7.0731707, -0.0399481
-0.9902344, 0.2646484, -0.125, 12.7439032, -5.1219511, 8.4146347, -0.0379339
-0.9760742, 0.2412109, -0.1376953, 14.0243902, -5, 8.6585369, -0.0365911
-0.9838867, 0.2407227, -0.1396484, 15.7926836, -4.1463413, 8.841464, -0.0406195
-0.9951172, 0.2504883, -0.1572266, 16.7073174, -4.0243902, 9.3902445, -0.0386053
-1.0014648, 0.265625, -0.1635742, 18.1097565, -4.6951222, 10.060976, -0.0406195
-0.9995117, 0.2895508, -0.1821289, 17.8658543, -5.670732, 10.9146347, -0.0406195
-0.9829102, 0.3222656, -0.190918, 18.5975609, -6.4634147, 11.8292685, -0.035584
-0.9750977, 0.328125, -0.1875, 19.3902435, -6.890244, 12.1951218, -0.0359197
-0.9663086, 0.3413086, -0.1806641, 21.2195129, -6.4634147, 12.4390249, -0.0399481
-0.9667969, 0.340332, -0.1816406, 23.780489, -5.8536587, 13.3536587, -0.0379339
-0.9633789, 0.3398438, -0.1801758, 24.3902435, -5.3658538, 13.9634151, -0.0406195
-0.9638672, 0.3334961, -0.1748047, 24.4512196, -5.3048782, 15.1219511, -0.0406195
-0.9672852, 0.3134766, -0.1547852, 24.3292694, -5.3658538, 15.4268293, -0.0365911
-0.9741211, 0.3007812, -0.1474609, 24.3292694, -5.1829271, 16.5853653, -0.0379339
-0.9829102, 0.2851562, -0.1508789, 24.4512196, -5.2439027, 17.6219521, -0.0392767
-0.9790039, 0.2861328, -0.1547852, 23.1707325, -4.390244, 18.780489, -0.0446479
-0.9707031, 0.293457, -0.1308594, 22.439024, -4.0853658, 19.2073174, -0.0409552
-0.9799805, 0.3017578, -0.0869141, 21.280489, -3.2317073, 19.8780499, -0.0392767
-0.980957, 0.3017578, -0.0644531, 20.9146347, -3.2926829, 20.3048782, -0.0406195
-0.9682617, 0.2963867, -0.0195312, 19.6341476, -3.1097562, 21.6463413, -0.0386053
-0.9658203, 0.2905273, -0.0009766, 17.9268303, -1.8902439, 22.3780499, -0.0433051
-0.9628906, 0.2700195, 0.0234375, 17.1341476, -0.7926829, 22.439024, -0.0433051
-0.9643555, 0.2695312, 0.0263672, 16.4024391, 1.7073171, 23.1707325, -0.0419623
-0.9804688, 0.2836914, 0.0073242, 16.0975609, 3.3536587, 23.4756107, -0.0426337
-0.9873047, 0.2929688, -0.0004883, 15.2439032, 5.8536587, 24.5731716, -0.0433051
-0.9960938, 0.3066406, -0.019043, 15.3048782, 6.9512196, 25.2439022, -0.0419623
-0.9970703, 0.3134766, -0.0341797, 16.1585369, 8.3536587, 27.1951218, -0.0446479
-0.9897461, 0.3330078, -0.0756836, 16.5853653, 9.1463413, 28.1707325, -0.0433051
-0.9794922, 0.3701172, -0.1181641, 15.7317076, 11.8292685, 29.0243912, -0.0473335
-0.9799805, 0.3891602, -0.1376953, 15.4268293, 13.2317076, 29.1463413, -0.0459907
-0.980957, 0.421875, -0.1704102, 14.6341467, 15.3658543, 30.1219521, -0.0459907
-0.9736328, 0.4321289, -0.175293, 13.4146347, 16.4024391, 31.7073174, -0.0436408
-0.956543, 0.4423828, -0.1655273, 13.3536587, 17.1341476, 32.5, -0.042298
-0.9511719, 0.4345703, -0.1640625, 13.780488, 19.939024, 33.6585388, -0.0459907
-0.9506836, 0.4155273, -0.1811523, 14.3292685, 21.1585369, 34.1463432, -0.042298
-0.9487305, 0.4106445, -0.1835938, 15.1829271, 23.9024391, 35.1219521, -0.0382696
-0.9682617, 0.3935547, -0.1806641, 15.6707325, 25.3048782, 35.6707344, -0.0392767
-0.9790039, 0.3823242, -0.1850586, 16.6463413, 26.7682934, 37.0731697, -0.0419623
-0.9873047, 0.3637695, -0.206543, 16.5853653, 27.3780499, 37.9268303, -0.0406195
-0.9931641, 0.3623047, -0.203125, 16.3414631, 28.5975609, 39.3292694, -0.0466621
-0.9980469, 0.3647461, -0.1958008, 16.2195129, 29.6951218, 40.0609779, -0.0473335
-1.0029297, 0.3837891, -0.203125, 16.7073174, 31.280489, 41.1585388, -0.0453193
-1.0083008, 0.3959961, -0.2045898, 18.7195129, 32.0731697, 42.3780479, -0.0399481
-1.012207, 0.4160156, -0.2177734, 19.6951218, 32.6219521, 43.1707344, -0.0412909
-1.0087891, 0.4208984, -0.2358398, 20.2439022, 33.4756088, 44.6341476, -0.042298
-1.0029297, 0.4233398, -0.269043, 19.939024, 34.3902435, 45.4878044, -0.0406195
-0.9990234, 0.425293, -0.277832, 20, 36.8292694, 46.9512215, -0.0459907
-1.003418, 0.4384766, -0.2763672, 20, 38.0487823, 47.3780518, -0.0433051
-1.0083008, 0.4487305, -0.2685547, 20.060976, 40.4268303, 47.9878044, -0.0466621
-1.019043, 0.4643555, -0.2475586, 20.5487804, 40.6097565, 48.6585388, -0.0486763
-1.0175781, 0.4633789, -0.237793, 21.7073174, 40.5487823, 49.5731735, -0.0419623
-1.0087891, 0.4619141, -0.2270508, 21.6463413, 40.4268303, 50, -0.0365911
-0.9946289, 0.4555664, -0.2353516, 21.280489, 41.6463432, 51.1585388, -0.0406195
-0.987793, 0.4609375, -0.2485352, 21.0365868, 43.2926826, 52.3170738, -0.0379339
-0.9946289, 0.4692383, -0.2890625, 20.9756107, 44.3292694, 52.8658562, -0.0352483
-0.9921875, 0.4799805, -0.3041992, 20.9756107, 45.7926826, 53.1707344, -0.0318914
-1.0068359, 0.496582, -0.3208008, 20.7317085, 46.4024391, 53.6585388, -0.0359197
-1.0043945, 0.5039062, -0.3339844, 20.5487804, 47.3780518, 54.3292694, -0.0359197
-1.0048828, 0.5102539, -0.3725586, 20.5487804, 47.3780518, 54.8780518, -0.0352483
-1.0029297, 0.5131836, -0.3911133, 20.060976, 47.1341476, 55.6707344, -0.0382696
-0.9931641, 0.5039062, -0.4160156, 20, 47.3170738, 56.4634171, -0.0345769
-0.9814453, 0.4995117, -0.4106445, 19.4512196, 48.5365868, 57.5609779, -0.0345769
-0.9799805, 0.5053711, -0.4013672, 19.2073174, 49.3292694, 57.8658562, -0.0352483
-0.9868164, 0.5224609, -0.3735352, 18.780489, 50.9756126, 57.3780518, -0.0288701
-0.9887695, 0.5356445, -0.3671875, 17.3170738, 51.7073174, 57.68293, -0.0332341
-0.9916992, 0.5463867, -0.3500977, 16.280489, 51.8292694, 58.2926826, -0.0359197
-0.9868164, 0.5366211, -0.3466797, 16.7073174, 51.6463432, 60.0609779, -0.0359197
-0.9614258, 0.5, -0.3706055, 17.7439022, 52.0731735, 60.9756126, -0.0352483
-0.9545898, 0.4775391, -0.3945312, 19.0243912, 54.3292694, 62.3170738, -0.0359197
-0.9443359, 0.4555664, -0.4301758, 18.7195129, 55.4878044, 62.8658562, -0.0339055
-0.9511719, 0.453125, -0.4423828, 18.4756107, 58.1097565, 63.4146347, -0.0359197
-0.96875, 0.4682617, -0.4560547, 18.1097565, 58.9024391, 64.2073212, -0.0379339
-0.9765625, 0.5019531, -0.4418945, 17.9268303, 60.4878044, 65.0609741, -0.0365911
-0.9863281, 0.519043, -0.4335938, 18.1097565, 61.341465, 65.1219559, -0.0332341
-0.996582, 0.5595703, -0.4228516, 17.9878044, 61.9512215, 65.7317123, -0.0372625
-0.9912109, 0.5678711, -0.4155273, 19.4512196, 62.1341476, 67.0731735, -0.0446479
-0.9765625, 0.5532227, -0.421875, 21.4024391, 62.2560997, 67.3170776, -0.0365911
-0.9555664, 0.534668, -0.4370117, 25, 62.7439041, 69.4512177, -0.0396124
-0.9169922, 0.5004883, -0.4619141, 25.3658543, 64.0853653, 69.3292694, -0.0386053
-0.9125977, 0.4980469, -0.4624023, 24.9390259, 67.8048782, 68.8414688, -0.0379339
-0.9335938, 0.527832, -0.4697266, 25, 69.8170776, 68.6585388, -0.0345769
-0.9467773, 0.5493164, -0.4814453, 25.9146347, 72.3170776, 68.5975647, -0.0406195
-0.9628906, 0.59375, -0.4858398, 25.9146347, 72.8048782, 69.0243912, -0.0486763
-0.9599609, 0.6083984, -0.4677734, 23.8414631, 73.3536606, 69.5731735, -0.0513619
-0.9555664, 0.6132812, -0.4624023, 22.439024, 73.7804871, 70, -0.0493477
-0.9482422, 0.6235352, -0.4697266, 20.1829281, 76.2195129, 70.3658524, -0.0513619
-0.9501953, 0.6279297, -0.4912109, 17.7439022, 78.4756088, 70.3658524, -0.0527047
-0.940918, 0.6386719, -0.5170898, 16.7682934, 80, 70.4878082, -0.0527047
-0.9370117, 0.6323242, -0.5180664, 14.7560978, 83.1707306, 70.7317123, -0.0513619
-0.9428711, 0.6274414, -0.5087891, 13.6585369, 84.5731735, 70.6097565, -0.0486763
-0.9501953, 0.6206055, -0.5068359, 12.0731707, 86.9512253, 71.0975647, -0.0473335
-0.9492188, 0.5986328, -0.5019531, 12.0731707, 87.9268341, 71.2195129, -0.0500191
-0.9482422, 0.5854492, -0.5092773, 12.3780489, 90.3658524, 71.5243912, -0.0500191
-0.9467773, 0.5561523, -0.546875, 12.3170738, 90.9146347, 72.1951218, -0.0493477
-0.9404297, 0.5449219, -0.5927734, 13.3536587, 92.8658524, 73.4756088, -0.0520333
-0.9414062, 0.546875, -0.6035156, 13.5365858, 94.3292694, 74.2682953, -0.0480049
-0.9492188, 0.5610352, -0.5898438, 14.0243902, 98.0487823, 74.8780518, -0.0486763
-0.9570312, 0.5771484, -0.5737305, 13.1707315, 101.1585388, 75.3048782, -0.0473335
-0.9755859, 0.6044922, -0.5458984, 12.5, 101.5853653, 75.6097565, -0.0466621
-0.9780273, 0.609375, -0.5429688, 11.219512, 101.5853653, 76.646347, -0.0486763
-0.9599609, 0.6010742, -0.5625, 11.5243902, 101.5243912, 77.6219559, -0.0466621
-0.940918, 0.5830078, -0.581543, 12.6219511, 102.7439041, 79.5121994, -0.0513619
-0.9003906, 0.5517578, -0.6074219, 13.2317076, 103.9634171, 80.2439041, -0.0446479
-0.8945312, 0.5400391, -0.6147461, 14.4512196, 107.8048782, 80.5487823, -0.0466621
-0.9077148, 0.5385742, -0.6235352, 15.060976, 109.5121994, 80.5487823, -0.0500191
-0.9326172, 0.5668945, -0.6367188, 15.9756098, 112.1341476, 80.9146347, -0.0466621
-0.9438477, 0.5898438, -0.6435547, 15.7926836, 112.5609818, 80.9146347, -0.0466621
-0.9487305, 0.6328125, -0.6699219, 14.0243902, 112.8048782, 81.7682953, -0.0446479
-0.9418945, 0.6464844, -0.6875, 12.1951218, 112.86586, 83.3536606, -0.042298
-0.9194336, 0.6728516, -0.7001953, 11.0365858, 113.4146347, 84.0243912, -0.0466621
-0.9082031, 0.6821289, -0.7021484, 8.2926826, 115.4268341, 84.3902435, -0.0480049
-0.902832, 0.7006836, -0.690918, 6.8292685, 117.0731735, 84.4512253, -0.0473335
-0.9023438, 0.7089844, -0.6806641, 3.9024391, 119.0243912, 84.2073212, -0.0513619
-0.8984375, 0.6875, -0.6645508, 2.3780489, 119.6951218, 84.0243912, -0.0439765
-0.8920898, 0.6723633, -0.6586914, 0, 120.4878082, 83.6585388, -0.0409552
-0.8911133, 0.6298828, -0.6542969, -0.6707317, 120.8536606, 83.5365906, -0.0459907
-0.8808594, 0.5917969, -0.6479492, -0.4878049, 122.0731735, 83.9024429, -0.0433051
-0.8789062, 0.5766602, -0.6484375, 0.2439024, 123.3536606, 84.0853653, -0.0459907
-0.8779297, 0.5668945, -0.6518555, 2.9268293, 125.4268341, 84.2073212, -0.0449836
-0.8798828, 0.5722656, -0.6630859, 4.8170733, 126.9512253, 84.2682953, -0.0412909
-0.8779297, 0.5957031, -0.6777344, 5.7317076, 127.1951218, 84.5731735, -0.0419623
-0.8735352, 0.6083984, -0.6821289, 7.4390244, 127.8048782, 85.8536606, -0.0426337
-0.8496094, 0.6264648, -0.6665039, 8.3536587, 127.9268341, 86.2804871, -0.0392767
-0.8325195, 0.6328125, -0.6533203, 10.4268293, 129.3292694, 86.4634171, -0.0382696
-0.8081055, 0.6391602, -0.6386719, 10.9146347, 130.0609741, 86.4024429, -0.0446479
-0.7973633, 0.637207, -0.6533203, 12.560976, 130.7317047, 86.3414688, -0.0446479
-0.7841797, 0.6391602, -0.7163086, 13.1707315, 131.4634247, 86.4024429, -0.0453193
-0.7827148, 0.6254883, -0.7641602, 14.2073174, 133.6585388, 86.646347, -0.0439765
-0.7895508, 0.621582, -0.7749023, 14.8780489, 134.5731812, 87.1341476, -0.0453193
-0.8100586, 0.6220703, -0.7910156, 16.7682934, 136.2804871, 86.8292694, -0.0433051
-0.8227539, 0.6318359, -0.8012695, 18.4146347, 136.4024353, 86.646347, -0.0446479
-0.8344727, 0.6591797, -0.8046875, 18.2317085, 136.1585388, 86.8292694, -0.0379339
-0.8359375, 0.6787109, -0.7905273, 16.7073174, 136.8902435, 86.5243912, -0.0399481
-0.8349609, 0.7128906, -0.7324219, 15.2439032, 137.0731812, 86.4024429, -0.0433051
-0.8237305, 0.7270508, -0.706543, 11.7682934, 137.86586, 85.7317123, -0.0433051
-0.7910156, 0.7333984, -0.6938477, 10.1219511, 137.8048859, 85.8536606, -0.0443122
-0.7680664, 0.7324219, -0.699707, 6.5853658, 138.5365906, 85.18293, -0.0459907
-0.7280273, 0.7260742, -0.7177734, 5.3658538, 139.3292694, 84.8170776, -0.0459907
-0.7128906, 0.7294922, -0.7163086, 3.2926829, 143.3536682, 83.7195129, -0.0439765
-0.7143555, 0.7333984, -0.7080078, 2.6219513, 145.36586, 82.8048782, -0.0486763
-0.7182617, 0.7104492, -0.6987305, 0.1829268, 147.6219482, 81.4024429, -0.0439765
-0.7236328, 0.6811523, -0.703125, -1.7073171, 147.2561035, 80.0609741, -0.0426337
-0.7246094, 0.6181641, -0.722168, -2.1341465, 147.1341553, 80.0609741, -0.0409552
-0.7241211, 0.5898438, -0.7250977, -1.097561, 148.5975647, 80.7926865, -0.0406195
-0.7304688, 0.5668945, -0.7236328, 0.2439024, 149.6341553, 81.0365906, -0.0446479
-0.7338867, 0.5771484, -0.7260742, 2.804878, 151.4024353, 81.7073212, -0.0406195
-0.7299805, 0.6040039, -0.7495117, 3.9024391, 151.5243988, 82.1951218, -0.0446479
-0.7270508, 0.6210938, -0.7670898, 5.3048782, 151.1585388, 83.2317123, -0.0433051
-0.7006836, 0.6401367, -0.809082, 5.8536587, 150.7317047, 83.3536606, -0.042298
-0.6860352, 0.6435547, -0.8305664, 6.6463418, 151.2195129, 84.3292694, -0.0459907
-0.6845703, 0.640625, -0.8310547, 7.0121951, 151.8902435, 84.6951218, -0.0439765
-0.6796875, 0.6318359, -0.8232422, 8.3536587, 152.6829376, 84.8780518, -0.0386053
-0.6816406, 0.6279297, -0.8227539, 9.5121956, 152.2561035, 84.6951218, -0.0459907
-0.6884766, 0.6450195, -0.859375, 9.4512196, 151.4634247, 84.3292694, -0.0459907
-0.690918, 0.6591797, -0.8764648, 10, 151.0365906, 85, -0.0406195
-0.6821289, 0.6796875, -0.8842773, 10, 151.1585388, 85.4268341, -0.0473335
-0.6694336, 0.6899414, -0.859375, 9.5121956, 151.7682953, 85.3048782, -0.0459907
-0.6474609, 0.6821289, -0.7788086, 9.0243902, 152.6219482, 84.8170776, -0.0446479
-0.6333008, 0.6723633, -0.7075195, 8.3536587, 151.8902435, 83.5365906, -0.0446479
-0.621582, 0.6733398, -0.6933594, 7.8658538, 151.5853729, 83.0487823, -0.0500191
-0.5966797, 0.6831055, -0.7192383, 6.5853658, 152.0121918, 82.0731735, -0.049012
-0.5849609, 0.6870117, -0.7441406, 5.9756098, 153.1097565, 82.0731735, -0.0419623
-0.581543, 0.6943359, -0.8344727, 4.4512196, 154.2073212, 82.5609741, -0.0486763
-0.578125, 0.6889648, -0.8891602, 4.5121951, 154.3902435, 83.1097565, -0.0480049
-0.5820312, 0.6845703, -0.9516602, 4.2682929, 154.6341553, 83.3536606, -0.0480049
-0.5947266, 0.6816406, -0.949707, 4.9390244, 156.4634247, 82.9268341, -0.0527047
-0.628418, 0.6806641, -0.894043, 5.4878049, 156.5853729, 82.3170776, -0.052369
-0.6386719, 0.6782227, -0.8574219, 5.0609756, 155.5487823, 81.2195129, -0.0466621
-0.6420898, 0.6782227, -0.7734375, 4.1463413, 154.6951294, 80.6707306, -0.0449836
-0.605957, 0.675293, -0.684082, 2.5609756, 153.3536682, 80.1219559, -0.0433051
-0.5761719, 0.6655273, -0.6645508, 1.7073171, 153.1707306, 80.3658524, -0.0466621
-0.5004883, 0.6333008, -0.6992188, 2.7439024, 153.0487823, 80.9146347, -0.0446479
-0.4663086, 0.628418, -0.7416992, 3.2926829, 153.2317047, 80.9756088, -0.0433051
-0.4384766, 0.644043, -0.8603516, 3.2317073, 156.2195129, 80.7926865, -0.0459907
-0.4379883, 0.6411133, -0.8974609, 4.0243902, 158.3536682, 81.0365906, -0.0459907
-0.4584961, 0.6420898, -0.9135742, 5.3048782, 159.5121918, 80.7926865, -0.0469978
-0.4853516, 0.6386719, -0.9174805, 6.7073174, 161.5243988, 79.3902435, -0.0500191
-0.5634766, 0.6328125, -0.9125977, 7.0121951, 161.2804871, 79.3292694, -0.0520333
-0.590332, 0.6333008, -0.9067383, 6.9512196, 159.3292694, 80.2439041, -0.0493477
-0.6054688, 0.637207, -0.9008789, 7.3170733, 157.86586, 80.6707306, -0.0513619
-0.5703125, 0.6430664, -0.890625, 6.0975609, 154.7561035, 81.5243912, -0.0500191
-0.5429688, 0.6484375, -0.8881836, 5.7926831, 153.4146423, 82.0731735, -0.0486763
-0.4716797, 0.6625977, -0.8813477, 5.609756, 152.5, 82.2560959, -0.0486763
-0.4628906, 0.6733398, -0.8789062, 5.609756, 154.5121918, 81.2195129, -0.0446479
-0.4633789, 0.6987305, -0.8735352, 5.670732, 155.4878082, 80.9146347, -0.0433051
-0.4624023, 0.6977539, -0.8647461, 6.8292685, 155.4268341, 79.7560959, -0.0433051
-0.465332, 0.6826172, -0.8515625, 7.0121951, 154.8170776, 79.3292694, -0.0446479
-0.4697266, 0.6743164, -0.8500977, 6.5243902, 153.3536682, 77.8658524, -0.0473335
-0.4692383, 0.6538086, -0.847168, 5.4878049, 153.4146423, 77.68293, -0.0513619
-0.4736328, 0.6625977, -0.8364258, 4.0243902, 154.2682953, 77.2560959, -0.0466621
-0.4736328, 0.6972656, -0.809082, 3.0487804, 155.0609741, 77.0731735, -0.0473335
-0.4438477, 0.7119141, -0.7954102, 0.1829268, 154.3902435, 77.1951218, -0.0476692
-0.4179688, 0.6982422, -0.7895508, -1.2195122, 153.5365906, 77.0731735, -0.0439765
-0.3662109, 0.6538086, -0.7680664, -3.8414636, 152.7439117, 76.5853653, -0.0466621
-0.3530273, 0.6308594, -0.765625, -4.390244, 154.6341553, 75.4878082, -0.0459907
-0.3486328, 0.6137695, -0.7773438, -3.7804878, 155.8536682, 74.9390259, -0.0446479
-0.3496094, 0.6132812, -0.7861328, -2.6829269, 157.6829376, 75.1219559, -0.0412909
-0.3496094, 0.5986328, -0.7929688, -2.3780489, 157.9268341, 75.18293, -0.0436408
-0.3432617, 0.5825195, -0.8051758, -1.8292683, 157.0121918, 75.4878082, -0.0459907
-0.3417969, 0.5449219, -0.8623047, -1.5243902, 156.2195129, 75.7317123, -0.0500191
-0.3427734, 0.5317383, -0.8891602, -0.4268293, 155.3048859, 77.1951218, -0.0453193
-0.3388672, 0.5151367, -0.8964844, 0.6097561, 155.6097565, 78.0487823, -0.0439765
-0.3608398, 0.5307617, -0.8774414, 3.3536587, 155.7317047, 78.7804871, -0.0386053
-0.3710938, 0.5556641, -0.890625, 4.5121951, 154.8780518, 78.9024429, -0.0406195
-0.3789062, 0.621582, -0.9238281, 5, 152.1951294, 79.6341476, -0.0473335
-0.3691406, 0.6459961, -0.9306641, 3.3536587, 150.1219482, 80.6097565, -0.0436408
-0.3359375, 0.6582031, -0.9077148, 2.1341465, 149.5121918, 80.9146347, -0.0406195
-0.3168945, 0.6582031, -0.8891602, 0.4878049, 147.9268341, 80.8536606, -0.0412909
-0.2919922, 0.6586914, -0.8681641, 0.1219512, 147.3170776, 80.1219559, -0.0439765
-0.2958984, 0.668457, -0.8583984, -0.6707317, 147.4390259, 78.5975647, -0.0453193
-0.2954102, 0.690918, -0.8662109, -1.2195122, 147.3780518, 78.2317123, -0.0493477
-0.2973633, 0.7036133, -0.8637695, -2.6219513, 147.1951294, 77.1341476, -0.0463264
-0.2910156, 0.7089844, -0.8481445, -3.5365853, 146.9512177, 76.7073212, -0.0372625
-0.2875977, 0.6948242, -0.8193359, -4.6341462, 145.8536682, 74.8780518, -0.0419623
-0.2871094, 0.684082, -0.8188477, -5.4878049, 144.9390259, 74.3292694, -0.0500191
-0.2841797, 0.6572266, -0.8305664, -6.0365853, 143.6585388, 73.1707306, -0.0439765
-0.2768555, 0.6416016, -0.8310547, -6.280488, 143.4756165, 72.1951218, -0.0392767
-0.265625, 0.6225586, -0.7924805, -6.4634147, 143.7804871, 72.1951218, -0.0406195
-0.2597656, 0.5947266, -0.765625, -6.5853658, 142.9268341, 71.9512177, -0.0396124
-0.2250977, 0.5229492, -0.7094727, -6.0365853, 141.8292694, 71.2804871, -0.0419623
-0.2143555, 0.5092773, -0.6914062, -4.2682929, 140.5487823, 70.5487823, -0.0446479
-0.2041016, 0.5112305, -0.7001953, -2.4390244, 140.9146423, 70.7926865, -0.0386053
-0.1899414, 0.5185547, -0.7241211, -0.1219512, 141.0975647, 72.1341476, -0.0433051
-0.171875, 0.5463867, -0.8017578, 0.6707317, 141.0365906, 72.4390259, -0.0449836
-0.1547852, 0.5629883, -0.8623047, 0.7926829, 140.4878082, 73.2926865, -0.0365911
-0.1464844, 0.5571289, -0.862793, 0.3048781, 140.3048859, 73.5975647, -0.0392767
-0.1484375, 0.5380859, -0.8178711, 0.1829268, 140.2439117, 73.7804871, -0.0419623
-0.1547852, 0.5302734, -0.7954102, 2.0731707, 138.9024353, 73.2317123, -0.0439765
-0.159668, 0.5307617, -0.7832031, 3.6585367, 138.2926788, 72.68293, -0.0446479
-0.1689453, 0.5458984, -0.7954102, 5.8536587, 137.2561035, 72.1951218, -0.0459907
-0.1835938, 0.5986328, -0.8320312, 6.3414636, 136.7682953, 72.2560959, -0.0500191
-0.1914062, 0.6235352, -0.8588867, 6.1585369, 135.6097565, 73.1097565, -0.0433051
-0.1733398, 0.6591797, -0.9111328, 5.7926831, 134.6341553, 73.2926865, -0.0372625
-0.1635742, 0.6704102, -0.9291992, 3.2926829, 132.4390259, 72.1951218, -0.035584
-0.1499023, 0.6699219, -0.9243164, 2.4390244, 131.646347, 71.7073212, -0.0412909
-0.1401367, 0.6572266, -0.8720703, 2.2560976, 130.6707306, 69.8170776, -0.0449836
-0.1386719, 0.6469727, -0.8505859, 2.6219513, 130.6707306, 68.6585388, -0.0386053
-0.1542969, 0.6435547, -0.8637695, 2.195122, 128.8414612, 66.4024429, -0.0406195
-0.1577148, 0.6445312, -0.8891602, 0.9146342, 126.3414688, 65.3048782, -0.0433051
-0.1586914, 0.6640625, -0.8920898, 0.2439024, 125.6097565, 64.9390259, -0.0406195
-0.1513672, 0.668457, -0.8427734, -1.402439, 126.0365906, 64.0243912, -0.0359197
-0.1323242, 0.640625, -0.7158203, -2.5609756, 125.7317123, 63.1097565, -0.0359197
-0.1210938, 0.6137695, -0.6635742, -5, 123.8414688, 60.9756126, -0.0392767
-0.0844727, 0.5625, -0.6040039, -6.0975609, 122.9878082, 59.7560997, -0.0406195
-0.0668945, 0.5517578, -0.5913086, -6.8292685, 123.5365906, 58.2926826, -0.0406195
-0.0390625, 0.5595703, -0.6259766, -6.8292685, 124.8170776, 58.2926826, -0.0433051
-0.0146484, 0.5712891, -0.7416992, -6.890244, 126.0975647, 58.6585388, -0.0419623
0.0019531, 0.5683594, -0.8022461, -6.6463418, 126.0975647, 58.841465, -0.0409552
0.0048828, 0.5654297, -0.8500977, -6.890244, 127.1341476, 58.9024391, -0.0419623
-0.0083008, 0.5615234, -0.8217773, -6.5243902, 129.2682953, 57.6219521, -0.0396124
-0.0493164, 0.5537109, -0.7177734, -5.4878049, 129.3902435, 56.6463432, -0.0409552
-0.0664062, 0.5566406, -0.6713867, -2.0121951, 127.68293, 54.9390259, -0.0426337
-0.0620117, 0.5473633, -0.6323242, -0.7926829, 126.4634171, 54.8170738, -0.0449836
-0.0517578, 0.5410156, -0.6425781, -0.2439024, 124.8170776, 54.8780518, -0.0399481
-0.0053711, 0.5029297, -0.722168, -0.3048781, 124.3902435, 56.0975609, -0.0379339
0.0239258, 0.4868164, -0.7836914, 0.4268293, 123.4146347, 58.4146347, -0.0386053
0.0664062, 0.4765625, -0.8808594, 0.9756098, 123.7804871, 59.6951218, -0.0419623
0.0649414, 0.5043945, -0.8657227, 1.5853659, 126.1585388, 59.5121956, -0.0406195
0.0410156, 0.534668, -0.8276367, 2.0731707, 127.2561035, 58.9024391, -0.0433051
-0.0136719, 0.6010742, -0.7880859, 3.1097562, 125.9146347, 56.8292694, -0.0480049
-0.0322266, 0.6196289, -0.7900391, 3.1097562, 121.0975647, 56.2804909, -0.0486763
-0.019043, 0.6293945, -0.7895508, 2.195122, 119.5121994, 56.1585388, -0.0459907
0.0004883, 0.6206055, -0.7753906, 0.8536586, 119.0853653, 56.2804909, -0.0433051
0.0576172, 0.5717773, -0.7265625, -0.3048781, 118.8414688, 56.6463432, -0.0473335
0.0893555, 0.5449219, -0.7255859, -1.097561, 118.0487823, 56.8902435, -0.0463264
0.1230469, 0.5322266, -0.809082, -0.6707317, 116.646347, 56.2804909, -0.0412909
0.1264648, 0.5429688, -0.8671875, -0.0609756, 115.36586, 55.4268303, -0.0439765
0.1030273, 0.5947266, -0.9174805, 0.2439024, 116.0975647, 54.9390259, -0.0406195
0.0551758, 0.6303711, -0.7949219, 0.6707317, 118.8414688, 52.9268303, -0.0426337
0.03125, 0.6328125, -0.7148438, 0.1829268, 119.6951218, 51.6463432, -0.042298
0.0009766, 0.5957031, -0.6445312, -1.8902439, 116.2195129, 50, -0.0443122
0.0195312, 0.5756836, -0.6425781, -4.0243902, 110.4878082, 50.1829262, -0.0459907
0.090332, 0.5249023, -0.6645508, -4.2073174, 110.0609818, 50.7317085, -0.0459907
0.121582, 0.5078125, -0.6708984, -4.6341462, 113.0487823, 51.6463432, -0.0426337
0.1791992, 0.5126953, -0.6513672, -4.6341462, 114.9390259, 51.4024391, -0.0419623
0.1943359, 0.5166016, -0.6254883, -4.390244, 117.7439041, 50.9756126, -0.0446479
0.1943359, 0.5195312, -0.590332, -4.6951222, 117.8048782, 50.3658562, -0.0379339
0.1899414, 0.5244141, -0.5820312, -5.4878049, 117.68293, 48.9024391, -0.0379339
0.1782227, 0.5302734, -0.5771484, -5.9146342, 117.86586, 48.4146347, -0.042298
0.1616211, 0.5478516, -0.5976562, -5, 119.3292694, 47.8048782, -0.0459907
0.1635742, 0.5556641, -0.6206055, -4.2682929, 119.4512253, 48.0487823, -0.0513619
0.1791992, 0.5566406, -0.6611328, -2.5609756, 119.5731735, 48.2317085, -0.0520333
0.1899414, 0.5400391, -0.6894531, -1.7682927, 119.8170776, 48.0487823, -0.0480049
0.2060547, 0.4755859, -0.7587891, -1.7073171, 119.2682953, 48.4756126, -0.0473335
0.2177734, 0.4443359, -0.7905273, -0.6707317, 118.5975647, 50.3048782, -0.0493477
0.2236328, 0.3994141, -0.7939453, 0.4878049, 118.5365906, 50.5487823, -0.0453193
0.2104492, 0.3979492, -0.7700195, 3.2926829, 119.0853653, 50.4878044, -0.0493477
0.168457, 0.4428711, -0.6943359, 4.6951222, 119.3292694, 50.1829262, -0.0466621
0.1479492, 0.4790039, -0.6723633, 6.2195125, 117.2561035, 50.3658562, -0.0463264
0.1547852, 0.5297852, -0.6586914, 6.1585369, 115.6707306, 51.2804909, -0.0493477
0.2080078, 0.5483398, -0.659668, 4.2682929, 113.3536606, 52.4390259, -0.0473335
0.2407227, 0.5361328, -0.6508789, 3.7195122, 112.3170776, 53.1707344, -0.0466621
0.2988281, 0.5161133, -0.6748047, 3.3536587, 110.7926865, 53.0487823, -0.0473335
0.3115234, 0.5253906, -0.7329102, 3.7195122, 110.4268341, 52.0731735, -0.0466621
0.3066406, 0.5517578, -0.84375, 3.2926829, 110.0609818, 51.5243912, -0.0433051
0.2836914, 0.5673828, -0.8457031, 2.9878049, 111.7073212, 50.3658562, -0.0439765
0.230957, 0.5810547, -0.746582, 2.9268293, 112.6219559, 49.6951218, -0.0493477
0.203125, 0.5756836, -0.6835938, 2.8658538, 109.2682953, 48.5365868, -0.0480049
0.1933594, 0.5419922, -0.6289062, 2.8658538, 106.0365906, 47.8048782, -0.0433051
0.2148438, 0.5239258, -0.625, 3.3536587, 100.6097565, 47.4390259, -0.0406195
0.2641602, 0.4926758, -0.6181641, 4.2682929, 100, 47.0121956, -0.0426337
0.3032227, 0.4892578, -0.6274414, 6.3414636, 101.2804871, 46.6463432, -0.0392767
0.3081055, 0.4951172, -0.6416016, 7.0731707, 101.8292694, 46.5853653, -0.0433051
0.3178711, 0.5229492, -0.6411133, 7.7439027, 101.7073212, 46.0365868, -0.0419623
0.3139648, 0.5322266, -0.6152344, 6.890244, 101.0975647, 44.8170738, -0.0466621
0.3041992, 0.5366211, -0.5507812, 6.4024391, 100.7926865, 44.0853653, -0.0446479
0.3027344, 0.5263672, -0.5180664, 5.7317076, 99.5121994, 42.6219521, -0.0406195
0.3144531, 0.503418, -0.5141602, 5.9146342, 98.5365906, 42.3170738, -0.0436408
0.3212891, 0.4907227, -0.5385742, 5.0609756, 97.1951218, 42.1341476, -0.0433051
0.3398438, 0.4794922, -0.6030273, 4.9390244, 97.1951218, 42.2560997, -0.0392767
0.3481445, 0.4814453, -0.6259766, 4.1463413, 98.3536606, 41.7682953, -0.0412909
0.34375, 0.4912109, -0.6635742, 3.5975611, 98.5975647, 41.8292694, -0.0406195
0.3344727, 0.472168, -0.6855469, 2.4390244, 96.9512253, 41.7073174, -0.0426337
0.3393555, 0.4555664, -0.6855469, 2.0731707, 95.6097565, 42.0121956, -0.0396124
0.3510742, 0.4067383, -0.6669922, 2.195122, 92.0731735, 42.2560997, -0.0406195
0.3496094, 0.3935547, -0.6489258, 4.5731707, 90.3658524, 41.7682953, -0.0426337
0.3369141, 0.3999023, -0.6196289, 5.9756098, 90.1219559, 41.1585388, -0.0459907
0.3256836, 0.4238281, -0.6196289, 8.1707315, 88.5365906, 40.8536606, -0.0449836
0.3085938, 0.4824219, -0.6577148, 8.1097565, 87.1341476, 41.2195129, -0.0486763
0.3085938, 0.5058594, -0.668457, 7.6829271, 85, 41.9512215, -0.0473335
0.3261719, 0.5336914, -0.6577148, 7.1951222, 83.7804871, 41.9512215, -0.0412909
0.3422852, 0.527832, -0.6376953, 6.5853658, 81.0975647, 41.7073174, -0.0406195
0.3837891, 0.4897461, -0.5981445, 6.6463418, 79.5121994, 41.2195129, -0.0419623
0.4072266, 0.4506836, -0.5639648, 7.6829271, 77.9878082, 39.1463432, -0.0399481
0.4047852, 0.4379883, -0.5644531, 8.4756098, 77.1951218, 38.4756088, -0.0386053
0.3896484, 0.4291992, -0.5878906, 11.219512, 75.4878082, 36.9512215, -0.0386053
0.3793945, 0.4355469, -0.5981445, 13.0487804, 75.2439041, 35.9756088, -0.0453193
0.3505859, 0.4741211, -0.5854492, 13.5365858, 74.9390259, 35.7317085, -0.0446479
0.3422852, 0.4873047, -0.5546875, 13.2926836, 73.5975647, 35.2439041, -0.0439765
0.3515625, 0.4970703, -0.4995117, 13.1707315, 72.1341476, 35.2439041, -0.0473335
0.3676758, 0.4853516, -0.4882812, 12.8048782, 68.1097565, 34.1463432, -0.0419623
0.4272461, 0.4541016, -0.4785156, 12.4390249, 66.9512177, 33.5975609, -0.0365911
0.4492188, 0.4433594, -0.4731445, 12.8658543, 67.1341476, 32.3780479, -0.0392767
0.4648438, 0.4418945, -0.4423828, 12.9878054, 67.8048782, 31.5853672, -0.0419623
0.4433594, 0.487793, -0.4365234, 13.3536587, 68.9634171, 29.3902454, -0.0392767
0.4316406, 0.5185547, -0.4418945, 13.2317076, 68.7804871, 28.2317085, -0.0409552
0.4145508, 0.5615234, -0.4375, 10.8536587, 67.9878082, 27.0731716, -0.0406195
0.4145508, 0.5615234, -0.4433594, 7.1951222, 65.9146347, 25.7926826, -0.0365911
0.4462891, 0.5351562, -0.4902344, 5.3658538, 64.4512177, 25.4268303, -0.0386053
0.4604492, 0.512207, -0.519043, 2.6829269, 62.8658562, 24.0243912, -0.0406195
0.4731445, 0.4648438, -0.5507812, 1.8292683, 62.9878082, 23.5365868, -0.0406195
0.4667969, 0.434082, -0.5566406, 0.7317073, 63.2926826, 22.3170738, -0.0386053
0.4462891, 0.402832, -0.5932617, 0.5487805, 62.3780518, 21.5853672, -0.0379339
0.4228516, 0.3808594, -0.6152344, -0.0609756, 60, 21.5853672, -0.0365911
0.4121094, 0.3735352, -0.6054688, -0.7926829, 58.9024391, 21.7073174, -0.0379339
0.3979492, 0.362793, -0.5732422, -0.6097561, 55.7317085, 22.6219521, -0.0359197
0.3999023, 0.3520508, -0.5805664, 0.4268293, 53.2317085, 23.0487804, -0.0372625
0.4311523, 0.3535156, -0.6064453, 2.5, 48.3536606, 23.0487804, -0.0419623
0.4399414, 0.3554688, -0.5981445, 4.6951222, 45.2439041, 23.4756107, -0.0446479
0.4614258, 0.3671875, -0.5532227, 6.5853658, 44.0853653, 23.2926826, -0.0476692
0.4482422, 0.3862305, -0.5410156, 10.3048782, 42.5, 21.8292694, -0.0433051
0.4282227, 0.4223633, -0.5356445, 10.9756098, 41.4024391, 21.5243912, -0.0433051
0.4150391, 0.4399414, -0.5297852, 11.280488, 38.3536606, 20.8536587, -0.0480049
0.4199219, 0.4394531, -0.5039062, 11.0975609, 36.341465, 20.7926826, -0.0473335
0.4448242, 0.4091797, -0.4814453, 11.4024391, 32.1341476, 20.5487804, -0.0446479
0.4667969, 0.3916016, -0.4731445, 11.8292685, 30.3658543, 19.8170738, -0.0527047
0.4912109, 0.3833008, -0.4443359, 13.0487804, 28.7195129, 18.2926826, -0.0500191
0.4975586, 0.3911133, -0.421875, 14.5121956, 28.5365868, 16.8292694, -0.0466621
0.4931641, 0.425293, -0.390625, 14.6341467, 27.9268303, 16.1585369, -0.0486763
0.4921875, 0.4458008, -0.3823242, 14.1463413, 26.4024391, 14.6951227, -0.0473335
0.487793, 0.4780273, -0.3969727, 13.5365858, 25.6097565, 14.0243902, -0.0527047
0.4946289, 0.4931641, -0.4140625, 11.0975609, 24.8170738, 12.2560978, -0.0547189
0.4960938, 0.5141602, -0.4077148, 9.1463413, 25.3048782, 11.280488, -0.056733
0.496582, 0.5273438, -0.3911133, 4.5731707, 25.4878063, 8.9634151, -0.0513619
0.4990234, 0.5268555, -0.409668, 1.7073171, 25, 8.1707315, -0.0513619
0.519043, 0.503418, -0.4711914, -4.8780489, 22.439024, 7.0121951, -0.0527047
0.5273438, 0.4848633, -0.4868164, -7.9878049, 21.8902435, 6.6463418, -0.0466621
0.5351562, 0.4355469, -0.4770508, -12.4390249, 22.3170738, 5.3048782, -0.0446479
0.5209961, 0.4194336, -0.4672852, -16.0975609, 22.0731716, 3.3536587, -0.0476692
0.4946289, 0.3920898, -0.480957, -17.7439022, 20.4268303, 2.9878049, -0.0520333
0.4838867, 0.3735352, -0.5180664, -20.5487804, 16.0975609, 3.1097562, -0.0446479
0.5058594, 0.293457, -0.5522461, -20, 13.4146347, 4.390244, -0.0433051
0.5239258, 0.2602539, -0.5366211, -16.8902435, 11.280488, 4.0243902, -0.0436408
0.5131836, 0.234375, -0.4858398, -15.3658543, 10.8536587, 3.1707318, -0.0473335
0.4902344, 0.2480469, -0.4697266, -11.280488, 7.9878049, 2.5609756, -0.0493477
0.449707, 0.3017578, -0.4731445, -9.1463413, 5.7926831, 3.0487804, -0.0446479
0.4648438, 0.3442383, -0.4921875, -5.4878049, 1.2195122, 4.3292685, -0.0436408
0.4741211, 0.3603516, -0.4736328, -4.8170733, -0.4268293, 4.0243902, -0.0419623
0.4887695, 0.378418, -0.4140625, -3.7804878, -3.1097562, 3.7804878, -0.0426337
0.4990234, 0.3837891, -0.3920898, -1.9512196, -6.4634147, 3.1097562, -0.042298
0.5283203, 0.3823242, -0.3881836, -1.2195122, -7.3780489, 2.5, -0.0406195
0.5366211, 0.3774414, -0.3891602, -0.7317073, -8.5365858, 0.7926829, -0.0439765
0.5263672, 0.3793945, -0.3823242, -0.7317073, -8.9024391, -0.0609756, -0.0459907
0.5195312, 0.3779297, -0.3823242, -0.6707317, -10, -1.0365853, -0.0433051
0.5083008, 0.3896484, -0.3891602, -0.6097561, -11.0365858, -1.6463414, -0.0446479
0.5092773, 0.3964844, -0.3950195, -1.6463414, -13.841464, -2.6219513, -0.0446479
0.5048828, 0.3979492, -0.3935547, -2.5609756, -15.1219511, -2.9268293, -0.0453193
0.5117188, 0.4042969, -0.3691406, -4.8170733, -17.0731716, -4.6341462, -0.0473335
0.5107422, 0.4179688, -0.3706055, -6.3414636, -17.8658543, -5.3048782, -0.0426337
0.5078125, 0.4506836, -0.3769531, -10.1219511, -20, -6.4634147, -0.0446479
0.5102539, 0.4614258, -0.378418, -15.2439032, -21.4634151, -7.7439027, -0.0466621
0.5288086, 0.4541016, -0.3720703, -17.5, -22.3780499, -8.4146347, -0.0513619
0.5341797, 0.4477539, -0.3896484, -20.6707325, -25.8536587, -10, -0.0486763
0.5527344, 0.4228516, -0.4692383, -21.3414631, -27.3170738, -10.7317076, -0.0486763
0.5605469, 0.4042969, -0.4936523, -22.8048782, -28.6585369, -13.1097565, -0.0439765
0.5478516, 0.3666992, -0.4638672, -23.6585369, -28.841465, -14.2073174, -0.0459907
0.5249023, 0.3496094, -0.4384766, -24.4512196, -31.5853672, -16.6463413, -0.0500191
0.4804688, 0.3164062, -0.4174805, -23.9634151, -33.7804871, -17.3780499, -0.0459907
0.4697266, 0.2973633, -0.4321289, -22.6829281, -38.1097565, -16.7682934, -0.0473335
0.4692383, 0.296875, -0.4399414, -22.0731716, -39.5731735, -16.5243912, -0.0513619
0.4624023, 0.3081055, -0.4467773, -22.2560978, -42.1951218, -15.6097565, -0.0533761
0.4746094, 0.3120117, -0.434082, -21.7073174, -45.2439041, -14.8780489, -0.0543832
0.4921875, 0.3369141, -0.3857422, -21.7682934, -46.4634171, -15.2439032, -0.0520333
0.4912109, 0.3447266, -0.3813477, -21.5853672, -49.5121956, -15.9756098, -0.0446479
0.5009766, 0.3637695, -0.4199219, -21.7073174, -51.4024391, -15.7926836, -0.0446479
0.5097656, 0.3662109, -0.4453125, -21.5853672, -53.9024391, -16.2195129, -0.0473335
0.5209961, 0.3583984, -0.4604492, -21.6463413, -54.5731735, -16.280489, -0.0493477
0.5185547, 0.3510742, -0.4545898, -21.5243912, -56.6463432, -17.6219521, -0.0520333
0.4980469, 0.3549805, -0.4594727, -21.2195129, -58.1097565, -18.1707325, -0.0513619
0.4702148, 0.3725586, -0.5102539, -19.3902435, -61.7073174, -18.9634151, -0.0500191
0.4575195, 0.3808594, -0.5209961, -18.6585369, -62.68293, -19.3292694, -0.0453193
0.4360352, 0.3935547, -0.5063477, -18.7195129, -65.3048782, -20.4878044, -0.042298
0.4267578, 0.3935547, -0.487793, -19.2682934, -69.3292694, -21.5243912, -0.0449836
0.4331055, 0.3862305, -0.4716797, -19.7560978, -71.8902435, -21.9512196, -0.0433051
0.4414062, 0.3842773, -0.4780273, -20.1219521, -75.7317123, -22.9878063, -0.0399481
0.4624023, 0.3945312, -0.4599609, -20.6707325, -76.7073212, -23.4756107, -0.0386053
0.4741211, 0.4013672, -0.440918, -22.5, -77.68293, -24.6951218, -0.0419623
0.4785156, 0.4228516, -0.4042969, -23.3536587, -78.9024429, -24.8780499, -0.0419623
0.4794922, 0.4248047, -0.4121094, -25.3048782, -81.3414688, -26.0365868, -0.0412909
0.4931641, 0.4379883, -0.4541016, -26.280489, -82.5, -26.5243912, -0.0412909
0.4980469, 0.440918, -0.4765625, -28.780489, -83.2926865, -27.9878063, -0.0433051
0.4975586, 0.4384766, -0.4750977, -29.8780499, -83.3536606, -28.841465, -0.0406195
0.4819336, 0.4306641, -0.4458008, -31.8292694, -84.5121994, -31.0975609, -0.0433051
0.4741211, 0.4243164, -0.4370117, -33.9024391, -86.4024429, -33.1097565, -0.0433051
0.4555664, 0.4262695, -0.4399414, -34.3902435, -87.3170776, -33.841465, -0.0365911
0.4438477, 0.4311523, -0.4477539, -35.9756088, -89.3292694, -34.5731697, -0.0365911
0.4321289, 0.4438477, -0.4731445, -36.9512215, -89.6951218, -35, -0.0433051
0.4321289, 0.4458008, -0.4780273, -39.4512215, -90.8536606, -36.2195129, -0.0433051
0.4399414, 0.4448242, -0.4663086, -40.3658562, -91.8292694, -36.7073174, -0.0382696
0.4477539, 0.4316406, -0.4589844, -41.5853653, -94.5731735, -37.7439041, -0.0412909
0.4711914, 0.3920898, -0.4658203, -41.5243912, -95.8536606, -38.0487823, -0.0386053
0.4755859, 0.3491211, -0.5097656, -40.7317085, -97.5609741, -38.9024391, -0.0352483
0.4702148, 0.3305664, -0.5507812, -39.7560997, -97.8658524, -38.7804871, -0.0379339
0.4306641, 0.3222656, -0.6816406, -36.8902435, -100.3658524, -38.7804871, -0.0406195
0.4072266, 0.3261719, -0.7446289, -34.5731697, -103.2926865, -37.6219521, -0.0392767
0.3691406, 0.3510742, -0.7856445, -34.5731697, -104.2682953, -37.3780479, -0.0433051
0.3500977, 0.3652344, -0.7426758, -35, -106.4024429, -37.8048782, -0.0480049
0.3154297, 0.3979492, -0.6064453, -35.5487823, -108.2926865, -38.0487823, -0.0392767
0.3154297, 0.4106445, -0.5507812, -36.2804871, -114.146347, -37.5609779, -0.0386053
0.362793, 0.4423828, -0.4858398, -37.5, -117.1951218, -37.5609779, -0.0365911
0.3974609, 0.4555664, -0.4672852, -39.6951218, -119.7561035, -37.8048782, -0.0406195
0.4614258, 0.4692383, -0.4487305, -40.3658562, -119.6951218, -37.9268303, -0.0386053
0.5024414, 0.4658203, -0.5024414, -41.5243912, -119.6341476, -37.9878044, -0.0379339
0.5126953, 0.465332, -0.550293, -41.4634171, -120.0609818, -38.2317085, -0.0406195
0.5024414, 0.4570312, -0.637207, -41.4024391, -120.18293, -39.9390259, -0.0379339
0.484375, 0.4516602, -0.6635742, -40.9146347, -118.5975647, -42.6219521, -0.0372625
0.4106445, 0.4291992, -0.6708984, -41.0365868, -117.8048782, -43.7804871, -0.0409552
0.3681641, 0.4272461, -0.6621094, -41.0975609, -117.9268341, -45.6707344, -0.0386053
0.3071289, 0.4370117, -0.6186523, -41.2195129, -118.9024429, -46.0365868, -0.0412909
0.2949219, 0.4482422, -0.5834961, -42.0731735, -122.86586, -46.2195129, -0.0446479
0.3105469, 0.4609375, -0.5131836, -42.9878044, -124.5121994, -46.341465, -0.0406195
0.3286133, 0.4663086, -0.4990234, -45.2439041, -128.3536682, -46.341465, -0.0439765
0.3823242, 0.472168, -0.5234375, -46.6463432, -130, -46.4634171, -0.0480049
0.4423828, 0.4829102, -0.5571289, -48.9024391, -130.5487823, -46.2195129, -0.0486763
0.4619141, 0.4868164, -0.5620117, -50.6097565, -129.6341553, -46.9512215, -0.0446479
0.4633789, 0.4799805, -0.5776367, -52.9878044, -126.646347, -48.7804871, -0.0527047
0.4545898, 0.4726562, -0.5932617, -54.6341476, -125.4268341, -50.2439041, -0.0486763
0.4316406, 0.4594727, -0.6206055, -54.8170738, -125.6707382, -50.6097565, -0.0459907
0.4150391, 0.4453125, -0.6157227, -54.8780518, -125, -52.1951218, -0.0426337
0.3740234, 0.402832, -0.5810547, -54.2073174, -124.146347, -52.6829262, -0.0379339
0.3574219, 0.3725586, -0.5825195, -51.0975609, -124.8780518, -52.1341476, -0.0426337
0.3271484, 0.3305664, -0.6259766, -48.4756126, -126.646347, -51.2804909, -0.0412909
0.3266602, 0.3203125, -0.6479492, -45.2439041, -129.0853729, -50.1219521, -0.0406195
0.3134766, 0.3344727, -0.6518555, -44.4512215, -128.9024353, -49.5731735, -0.0436408
0.2910156, 0.3852539, -0.6313477, -43.2926826, -128.6585388, -48.2926826, -0.0446479
0.2832031, 0.4169922, -0.6352539, -43.1707344, -128.9634247, -47.4390259, -0.0433051
0.2924805, 0.4736328, -0.6474609, -43.5365868, -131.9512177, -45.7317085, -0.0412909
0.3041992, 0.4916992, -0.6430664, -46.2195129, -133.8414612, -45.0609779, -0.0412909
0.331543, 0.487793, -0.6196289, -46.8292694, -134.5731812, -45, -0.0419623
0.3540039, 0.4628906, -0.6147461, -46.1585388, -136.4634247, -45.3048782, -0.0379339
0.3813477, 0.4082031, -0.6328125, -44.5121956, -137.7439117, -45.6707344, -0.0365911
0.378418, 0.3896484, -0.6611328, -39.7560997, -139.6951294, -46.8292694, -0.0419623
0.3520508, 0.3935547, -0.7250977, -36.341465, -139.6341553, -47.1951218, -0.0399481
0.3286133, 0.4169922, -0.7387695, -29.8780499, -137.2561035, -47.9878044, -0.0332341
0.2685547, 0.4702148, -0.6870117, -27.3780499, -134.7561035, -48.4146347, -0.0352483
0.2041016, 0.5185547, -0.6254883, -24.3292694, -132.5609741, -49.1463432, -0.0379339
0.184082, 0.5454102, -0.621582, -23.9024391, -134.3292694, -49.0853653, -0.0406195
0.1933594, 0.5869141, -0.6728516, -25.6707325, -141.0975647, -48.1097565, -0.0419623
0.2124023, 0.5927734, -0.6987305, -30.2439022, -145.36586, -47.8048782, -0.0436408
0.2631836, 0.5854492, -0.7250977, -32.5609779, -145.7317047, -47.4390259, -0.0453193
0.2919922, 0.5756836, -0.7099609, -35.7926826, -142.5, -47.9268303, -0.0446479
0.3164062, 0.5517578, -0.6362305, -36.8292694, -140, -48.7804871, -0.0480049
0.3085938, 0.5444336, -0.6186523, -36.6463432, -137.2561035, -50.7317085, -0.0433051
0.2749023, 0.5214844, -0.699707, -35.9146347, -138.1707306, -51.5853653, -0.0419623
0.2602539, 0.5043945, -0.7753906, -34.6341476, -141.8902435, -51.8902435, -0.0446479
0.2431641, 0.472168, -0.8632812, -34.2682953, -142.6829376, -51.8902435, -0.0433051
0.2133789, 0.4492188, -0.7905273, -33.4756088, -138.8414612, -52.3170738, -0.0446479
0.1875, 0.4560547, -0.7167969, -32.3780479, -135.9756165, -52.3780518, -0.0426337
0.1503906, 0.4902344, -0.5898438, -29.3292694, -133.2317047, -52.5609779, -0.0433051
0.1445312, 0.5126953, -0.5644531, -27.1951218, -136.7682953, -52.8048782, -0.0433051
0.1557617, 0.5336914, -0.6142578, -27.0731716, -139.9390259, -52.4390259, -0.0466621
0.1757812, 0.5322266, -0.6767578, -27.6219521, -145.3048859, -51.2195129, -0.049012
0.2231445, 0.5136719, -0.7900391, -27.5, -146.1585388, -50.1829262, -0.0493477
0.2407227, 0.5009766, -0.8208008, -25.6707325, -141.8292694, -49.5121956, -0.0486763
0.2358398, 0.4926758, -0.8388672, -24.3292694, -138.7804871, -49.2073174, -0.0527047
0.2045898, 0.5048828, -0.8481445, -21.280489, -134.3292694, -49.6341476, -0.0486763
0.1362305, 0.5498047, -0.8632812, -20.3658543, -133.8414612, -50.2439041, -0.0449836
0.078125, 0.5991211, -0.8095703, -20.6707325, -134.3292694, -50.9146347, -0.0433051
0.0625, 0.6137695, -0.7553711, -21.5243912, -134.2682953, -51.1585388, -0.0486763
0.0693359, 0.6118164, -0.6381836, -23.2317085, -136.0365906, -51.6463432, -0.0466621
0.0888672, 0.5957031, -0.5942383, -24.3292694, -139.8170776, -52.1951218, -0.0486763
0.1547852, 0.5522461, -0.5952148, -24.2682934, -141.9512177, -52.4390259, -0.0446479
0.1811523, 0.5327148, -0.6459961, -22.9268303, -144.5731812, -52.4390259, -0.0379339
0.2060547, 0.5292969, -0.7983398, -21.6463413, -144.3292694, -52.5, -0.0433051
0.1977539, 0.5415039, -0.875, -18.1707325, -138.9634247, -52.6219521, -0.0486763
0.1337891, 0.5908203, -0.9667969, -17.3780499, -134.6951294, -52.9268303, -0.0500191
0.0869141, 0.6162109, -0.9711914, -18.2317085, -127.7439041, -53.2317085, -0.0476692
-0.0019531, 0.640625, -0.9057617, -19.1463413, -127.0121994, -53.1707344, -0.0473335
-0.043457, 0.625, -0.828125, -21.0975609, -132.1951294, -53.6585388, -0.0439765
-0.0322266, 0.605957, -0.7895508, -22.1951218, -136.646347, -54.3292694, -0.0446479
0.0107422, 0.5800781, -0.6777344, -24.5121956, -141.5853729, -55.7926826, -0.0446479
0.0341797, 0.5654297, -0.6235352, -23.7195129, -141.1585388, -57.3170738, -0.0453193
0.0805664, 0.5375977, -0.6035156, -21.3414631, -140.5487823, -57.68293, -0.0473335
0.1020508, 0.5239258, -0.6513672, -15.3658543, -141.4024353, -57.7439041, -0.0446479
0.1479492, 0.4868164, -0.7753906, -12.560976, -141.5243988, -57.68293, -0.0486763
0.1552734, 0.4697266, -0.8164062, -8.5365858, -138.1707306, -57.7439041, -0.0459907
0.1088867, 0.4663086, -0.871582, -6.5853658, -134.9390259, -58.1707344, -0.0439765
0.0087891, 0.4897461, -0.8969727, -2.5, -129.5121918, -57.3170738, -0.042298
-0.0395508, 0.503418, -0.8798828, -1.1585366, -128.2317047, -56.5853653, -0.0433051
-0.1020508, 0.5473633, -0.8388672, -0.6707317, -129.2682953, -55.6097565, -0.0406195
-0.121582, 0.5766602, -0.8139648, -0.9756098, -131.7073212, -55.3048782, -0.0382696
-0.1118164, 0.6376953, -0.7641602, -2.804878, -137.0731812, -55.2439041, -0.0365911
-0.0922852, 0.6689453, -0.7431641, -5.4268293, -139.6341553, -55.7926826, -0.0406195
-0.0444336, 0.7021484, -0.737793, -7.0121951, -140, -56.2195129, -0.0409552
-0.0195312, 0.7070312, -0.769043, -9.5121956, -141.3414612, -56.8902435, -0.0406195
0.0092773, 0.6987305, -0.9111328, -10.5487804, -142.5, -57.0121956, -0.0392767
0.0175781, 0.7011719, -0.9907227, -11.5853662, -143.7804871, -58.1707344, -0.0426337
0.0053711, 0.6918945, -1.0351562, -12.3170738, -141.8292694, -59.1463432, -0.0459907
-0.0561523, 0.6767578, -0.8925781, -13.5975609, -132.9268341, -61.5853691, -0.0446479
-0.0913086, 0.6679688, -0.8100586, -13.9634151, -129.3292694, -63.1097565, -0.0500191
-0.1582031, 0.6616211, -0.7280273, -15.5487804, -130.1219482, -64.7560959, -0.0506905
-0.1704102, 0.6547852, -0.7373047, -16.3414631, -134.5731812, -65.18293, -0.0506905
-0.152832, 0.6352539, -0.8037109, -17.7439022, -143.8414612, -65.6097565, -0.0486763
-0.1396484, 0.6347656, -0.8320312, -17.0731716, -145.6097565, -66.2804871, -0.0493477
-0.1337891, 0.6572266, -0.871582, -16.0365849, -143.2926788, -66.5853653, -0.0439765
-0.1416016, 0.6787109, -0.8925781, -12.5, -137.4390259, -67.2560959, -0.0443122
-0.1694336, 0.7055664, -0.9296875, -10.9756098, -135.9146423, -67.3780518, -0.0466621
-0.1870117, 0.7050781, -0.9287109, -8.1707315, -136.0365906, -68.5365906, -0.0449836
-0.1987305, 0.6533203, -0.8686523, -6.9512196, -136.9512177, -69.3902435, -0.0433051
-0.2045898, 0.5649414, -0.7861328, -3.7804878, -139.8170776, -71.3414688, -0.0386053
-0.203125, 0.5180664, -0.7724609, -1.5853659, -141.3414612, -71.6463394, -0.0412909
-0.199707, 0.4375, -0.8286133, 2.9878049, -144.5121918, -70.7926865, -0.0419623
-0.1914062, 0.4135742, -0.8891602, 8.3536587, -146.3414612, -67.68293, -0.0392767
-0.2084961, 0.4248047, -1.0009766, 11.0365858, -146.0365906, -65.8536606, -0.0399481
-0.2211914, 0.4609375, -1.0395508, 16.2195129, -143.9024353, -62.8658562, -0.0419623
-0.2597656, 0.5625, -1.059082, 18.7195129, -142.1951294, -61.5853691, -0.0419623
-0.2836914, 0.6152344, -1.0390625, 22.7439022, -140.1219482, -61.0365868, -0.0433051
-0.3212891, 0.7133789, -0.9833984, 23.8414631, -140.4268341, -61.341465, -0.0406195
-0.3291016, 0.7495117, -0.9609375, 23.2926826, -144.5121918, -62.6219521, -0.0379339
-0.3120117, 0.7841797, -0.9018555, 21.6463413, -146.7682953, -63.1707344, -0.0352483
-0.2763672, 0.7709961, -0.8076172, 16.0365849, -148.0487823, -64.2073212, -0.03122
-0.2490234, 0.7543945, -0.7729492, 12.4390249, -147.7439117, -64.3902435, -0.0352483
-0.2070312, 0.7285156, -0.7612305, 6.1585369, -145.4878082, -64.3292694, -0.0409552
-0.1899414, 0.7280273, -0.7861328, -1.3414634, -142.2561035, -64.6951218, -0.0392767
-0.1850586, 0.7285156, -0.8325195, -4.9390244, -139.3902435, -65, -0.0372625
-0.1899414, 0.7329102, -0.8349609, -12.6219511, -133.2926788, -65.6097565, -0.0379339
-0.230957, 0.7436523, -0.8032227, -16.7073174, -129.4512177, -66.0365906, -0.0446479
-0.2539062, 0.7573242, -0.78125, -23.5365868, -124.5121994, -67.9268341, -0.0459907
-0.3125, 0.7788086, -0.7636719, -26.5243912, -123.3536606, -69.2682953, -0.0433051
-0.3325195, 0.7719727, -0.7905273, -30.7926846, -125.0609818, -70.7317123, -0.0446479
-0.3540039, 0.7167969, -0.9125977, -32.6829262, -127.4390259, -71.4634171, -0.0439765
-0.3422852, 0.5961914, -1.0068359, -35.7926826, -132.5609741, -71.2195129, -0.0412909
-0.3374023, 0.5283203, -1.003418, -35.4878044, -133.7195129, -70.8536606, -0.0412909
-0.3286133, 0.4194336, -0.9072266, -29.2682934, -132.3170776, -70.8536606, -0.0412909
-0.3388672, 0.3959961, -0.8398438, -16.8902435, -127.9878082, -72.7439041, -0.0365911
-0.3671875, 0.421875, -0.7285156, -10.6707315, -126.5243912, -73.8414688, -0.0396124
-0.3818359, 0.4511719, -0.7001953, -1.7682927, -126.2804871, -74.9390259, -0.0382696
-0.402832, 0.519043, -0.7255859, 0.7926829, -127.7439041, -74.7560959, -0.0365911
-0.40625, 0.5429688, -0.7827148, 3.6585367, -132.6219482, -72.5609741, -0.0406195
-0.3925781, 0.5976562, -0.9296875, 4.6341462, -134.3292694, -71.1585388, -0.0406195
-0.3798828, 0.6132812, -0.9902344, 7.1341467, -134.8170776, -68.1097565, -0.0379339
-0.3754883, 0.6411133, -1.0351562, 8.0487804, -133.2926788, -67.0731735, -0.0433051
-0.3955078, 0.6635742, -0.9775391, 10.5487804, -129.6951294, -67.2560959, -0.0412909
-0.4121094, 0.6645508, -0.9355469, 11.5243902, -128.8414612, -67.9878082, -0.0419623
-0.4394531, 0.6694336, -0.8876953, 12.1951218, -131.4634247, -69.8780518, -0.0429694
-0.4482422, 0.6665039, -0.8632812, 10.6707315, -135.3048859, -71.3414688, -0.0433051
-0.440918, 0.6425781, -0.7929688, 9.7560978, -135.6707306, -71.5243912, -0.0379339
-0.4326172, 0.6293945, -0.7553711, 8.5365858, -134.7561035, -71.4024429, -0.0345769
-0.4233398, 0.6230469, -0.7299805, 7.5609756, -133.7195129, -71.3414688, -0.0386053
-0.4150391, 0.6333008, -0.7382812, 5.9146342, -131.5853729, -70.9756088, -0.0392767
-0.4077148, 0.6782227, -0.7641602, 4.2682929, -129.8780518, -71.0975647, -0.0392767
-0.4130859, 0.7089844, -0.7705078, 0.2439024, -125.8536606, -71.1585388, -0.0486763
-0.4399414, 0.7475586, -0.7856445, -2.4390244, -123.9024429, -71.8292694, -0.0453193
-0.4619141, 0.7524414, -0.8056641, -8.719512, -121.9512253, -72.5, -0.0419623
-0.4746094, 0.7407227, -0.8168945, -11.9512196, -121.8292694, -72.8658524, -0.0419623
-0.5039062, 0.6894531, -0.8950195, -18.1707325, -122.9878082, -73.8414688, -0.0379339
-0.5112305, 0.6591797, -0.9628906, -19.939024, -125.8536606, -73.5365906, -0.0426337
-0.5268555, 0.6025391, -1.0664062, -19.5121956, -126.2804871, -73.2926865, -0.0446479
-0.5395508, 0.5810547, -1.065918, -17.439024, -123.3536606, -72.9878082, -0.0486763
-0.5668945, 0.5537109, -0.9736328, -15.9756098, -121.4024429, -73.4756088, -0.0466621
-0.5825195, 0.5439453, -0.9042969, -14.0243902, -120.18293, -72.8658524, -0.0443122
-0.5859375, 0.5214844, -0.762207, -14.1463413, -121.4634171, -72.8658524, -0.042298
-0.5737305, 0.5083008, -0.6928711, -15.4268293, -125.4268341, -73.1707306, -0.0446479
-0.5283203, 0.4902344, -0.6020508, -15.7317076, -126.9512253, -72.9268341, -0.0459907
-0.4882812, 0.5, -0.6376953, -14.2682934, -127.68293, -71.8292694, -0.0473335
-0.4755859, 0.5209961, -0.7021484, -12.7439032, -126.7073212, -70.7926865, -0.0446479
-0.4892578, 0.5854492, -0.8701172, -7.5, -123.4756088, -68.3536606, -0.0439765
-0.512207, 0.625, -0.9458008, -1.2804878, -120.1219559, -66.6463394, -0.0446479
-0.597168, 0.690918, -1.0581055, 2.5609756, -119.4512253, -66.3414612, -0.0439765
-0.6357422, 0.7114258, -1.0708008, 9.0243902, -119.9390259, -66.5853653, -0.0436408
-0.7050781, 0.7133789, -1.0039062, 11.4634151, -121.0365906, -67.6219559, -0.0453193
-0.7314453, 0.7075195, -0.9316406, 12.4390249, -124.6951218, -70.1219559, -0.0446479
-0.7426758, 0.6679688, -0.8071289, 12.0121956, -127.2561035, -71.2804871, -0.0369268
-0.722168, 0.6435547, -0.7866211, 10.060976, -133.5365906, -71.4024429, -0.0379339
-0.6572266, 0.6118164, -0.8432617, 9.0243902, -135.6707306, -70.6097565, -0.0446479
-0.5927734, 0.6132812, -0.9663086, 6.7073174, -134.8170776, -68.2926865, -0.0419623
-0.5712891, 0.6157227, -1.015625, 5.670732, -132.6219482, -66.5853653, -0.0379339
-0.5605469, 0.6313477, -1.0288086, 2.5609756, -125.4268341, -64.1463394, -0.0406195
-0.574707, 0.6494141, -0.9829102, -1.2195122, -119.8780518, -64.0243912, -0.0453193
-0.6298828, 0.6948242, -0.8354492, -3.2317073, -118.1097565, -64.8170776, -0.0433051
-0.6655273, 0.7177734, -0.7631836, -8.2317076, -117.1951218, -67.5609741, -0.0382696
-0.7055664, 0.7324219, -0.6899414, -11.4024391, -117.7439041, -68.9024429, -0.0392767
-0.699707, 0.7109375, -0.6953125, -19.939024, -119.8780518, -69.5731735, -0.0412909
-0.6669922, 0.6391602, -0.7265625, -24.5731716, -120.4268341, -69.4512177, -0.0386053
-0.6513672, 0.6020508, -0.7290039, -31.4024391, -118.4146347, -67.9268341, -0.0386053
-0.6274414, 0.5615234, -0.6870117, -32.9878044, -115.7317123, -67.0121994, -0.0419623
-0.6328125, 0.5703125, -0.6289062, -34.3292694, -109.7561035, -66.2804871, -0.0446479
-0.6479492, 0.5854492, -0.6274414, -34.5121956, -107.8658524, -66.4024429, -0.0412909
-0.6860352, 0.6010742, -0.734375, -33.4756088, -108.1097565, -66.3414612, -0.0419623
-0.7001953, 0.5952148, -0.8256836, -31.5243912, -113.2317123, -65.4878082, -0.0446479
-0.7299805, 0.5703125, -1.0131836, -29.0243912, -115.5487823, -64.6341476, -0.0406195
-0.7470703, 0.5620117, -1.0771484, -21.5853672, -117.3170776, -62.68293, -0.0419623
-0.7929688, 0.5546875, -1.0825195, -17.1951218, -116.9512253, -61.7073174, -0.0459907
-0.8164062, 0.5644531, -1.0200195, -9.5121956, -115.6707306, -60.5487823, -0.0466621
-0.8466797, 0.6000977, -0.8310547, -6.890244, -115.6707306, -60.4878044, -0.0453193
-0.8491211, 0.612793, -0.7402344, -4.5121951, -119.8170776, -60.9756126, -0.0446479
-0.8012695, 0.6049805, -0.6196289, -4.3292685, -123.2926865, -61.0975609, -0.0446479
-0.7119141, 0.5673828, -0.6040039, -6.4024391, -128.4756165, -61.4024391, -0.0439765
-0.6708984, 0.5507812, -0.6152344, -7.5, -129.0243988, -60.9146347, -0.0433051
-0.6201172, 0.5366211, -0.6386719, -9.2682924, -125.2439041, -58.9024391, -0.0449836
-0.609375, 0.5424805, -0.6357422, -9.2073174, -117.4390259, -57.0731735, -0.0459907
-0.628418, 0.5932617, -0.6074219, -8.4146347, -113.6585388, -56.8902435, -0.0406195
-0.6591797, 0.6240234, -0.6103516, -8.9024391, -108.4146347, -57.6219521, -0.0433051
-0.7163086, 0.671875, -0.6430664, -10.1219511, -107.9878082, -58.1707344, -0.0446479
-0.734375, 0.6757812, -0.6606445, -13.7195129, -110, -59.1463432, -0.0446479
-0.7495117, 0.6455078, -0.6611328, -16.280489, -110.6707306, -59.6341476, -0.0406195
-0.7485352, 0.6142578, -0.6474609, -22.3170738, -111.2804871, -59.7560997, -0.0443122
-0.7421875, 0.5415039, -0.6694336, -25.060976, -111.5243912, -59.1463432, -0.0439765
-0.7211914, 0.4624023, -0.7973633, -29.4512196, -113.4756088, -57.1341476, -0.0466621
-0.7109375, 0.4213867, -0.8935547, -31.280489, -115.0609818, -55.4878044, -0.0446479
-0.6914062, 0.3666992, -1.0449219, -32.9268303, -117.9268341, -51.6463432, -0.0409552
-0.6962891, 0.3603516, -1.0527344, -31.4024391, -115.9756088, -48.841465, -0.0446479
-0.7363281, 0.4067383, -0.9194336, -29.7560978, -113.6585388, -48.7804871, -0.0419623
-0.7700195, 0.4443359, -0.8149414, -23.6585369, -110.6097565, -49.7560997, -0.0379339
-0.8276367, 0.5361328, -0.6425781, -20.9146347, -112.0731735, -50.6097565, -0.0406195
-0.8398438, 0.5737305, -0.6005859, -19.2073174, -118.5975647, -52.4390259, -0.0446479
-0.8173828, 0.6113281, -0.5761719, -19.7560978, -122.5, -52.9878044, -0.0409552
-0.796875, 0.6064453, -0.5820312, -22.5, -126.8292694, -52.3170738, -0.0392767
-0.7436523, 0.5712891, -0.6098633, -23.4756107, -126.4024429, -51.4024391, -0.0379339
-0.7246094, 0.5375977, -0.625, -23.5975609, -122.3780518, -48.9634171, -0.0433051
-0.7304688, 0.515625, -0.6220703, -22.9268303, -119.3292694, -48.0487823, -0.0449836
-0.7607422, 0.4848633, -0.6030273, -20.4268303, -114.4512253, -47.1341476, -0.0459907
-0.7915039, 0.4848633, -0.5839844, -18.9634151, -111.7073212, -48.2926826, -0.0459907
-0.8530273, 0.5048828, -0.5317383, -18.8414631, -111.4634171, -48.841465, -0.0449836
-0.8754883, 0.5166016, -0.5161133, -18.780489, -111.8902435, -49.2073174, -0.0419623
-0.8945312, 0.5439453, -0.5107422, -18.9024391, -112.1951218, -49.0853653, -0.0459907
-0.8925781, 0.5571289, -0.5258789, -19.939024, -112.9878082, -48.4146347, -0.0486763
-0.8774414, 0.5742188, -0.59375, -20.5487804, -113.4146347, -47.6829262, -0.0439765
-0.8598633, 0.5795898, -0.6425781, -22.9268303, -113.4146347, -45.9756126, -0.049012
-0.8261719, 0.5761719, -0.7006836, -23.8414631, -113.1707306, -45.5487823, -0.0439765
-0.8125, 0.5693359, -0.7280273, -24.3902435, -112.2561035, -45.4268303, -0.0399481
-0.815918, 0.5625, -0.7353516, -24.6951218, -111.646347, -45.9756126, -0.0446479
-0.8164062, 0.5263672, -0.7373047, -26.9512196, -111.5853653, -46.7682953, -0.0453193
-0.8232422, 0.4975586, -0.7270508, -29.8170738, -112.5609818, -47.0121956, -0.0449836
-0.8286133, 0.4311523, -0.6655273, -30.8536587, -113.5365906, -47.1341476, -0.0426337
-0.8359375, 0.4140625, -0.6323242, -31.2195129, -112.68293, -47.1951218, -0.0433051
-0.8579102, 0.4116211, -0.5996094, -30.8536587, -111.7073212, -46.8902435, -0.0453193
-0.8676758, 0.4155273, -0.5898438, -30.6097565, -110.0609818, -45.1829262, -0.0486763
-0.8681641, 0.4375, -0.5810547, -30.7317085, -109.2682953, -44.2682953, -0.0543832
-0.8701172, 0.4458008, -0.5771484, -31.4024391, -108.2317123, -42.9878044, -0.0513619
-0.8720703, 0.472168, -0.5473633, -32.3170738, -107.5609818, -42.4390259, -0.0500191
-0.887207, 0.4868164, -0.5263672, -33.6585388, -105.6707306, -41.7073174, -0.0473335
-0.8920898, 0.4951172, -0.5234375, -33.9634171, -104.5121994, -41.7073174, -0.0433051
-0.9013672, 0.4873047, -0.5375977, -34.7560997, -103.4756088, -41.341465, -0.0439765
-0.8984375, 0.4765625, -0.546875, -36.1585388, -103.8414688, -40.6097565, -0.0399481
-0.8886719, 0.4580078, -0.5527344, -37.2560997, -103.6585388, -40.5487823, -0.0433051
-0.8896484, 0.4550781, -0.5517578, -37.5609779, -102.9268341, -40.1829262, -0.0466621
-0.894043, 0.4614258, -0.543457, -37.0121956, -101.5243912, -40.3048782, -0.0459907
-0.9013672, 0.4672852, -0.5302734, -35.9146347, -100.0609818, -40.9146347, -0.0459907
-0.9165039, 0.4921875, -0.5249023, -35.1829262, -99.146347, -41.0365868, -0.0446479
-0.9296875, 0.5014648, -0.5317383, -34.9390259, -99.0243912, -41.4024391, -0.0446479
-0.9331055, 0.503418, -0.5371094, -35, -99.2682953, -41.341465, -0.0473335
-0.9301758, 0.4960938, -0.5375977, -35.1219521, -100.9146347, -41.4024391, -0.0412909
-0.9248047, 0.4926758, -0.5444336, -34.6951218, -100.9756088, -41.7682953, -0.0406195
-0.9233398, 0.4790039, -0.590332, -34.6951218, -100.0609818, -41.5853653, -0.0365911
-0.9204102, 0.4697266, -0.6171875, -36.4634171, -99.0853653, -40.7317085, -0.0386053
-0.9174805, 0.4306641, -0.6513672, -37.6219521, -98.9634171, -40, -0.0392767
-0.9140625, 0.4067383, -0.6533203, -40.3048782, -98.5975647, -39.2073174, -0.0412909
-0.9160156, 0.3686523, -0.625, -41.1585388, -98.4756088, -38.6585388, -0.0412909
-0.925293, 0.3564453, -0.6079102, -41.1585388, -97.8048782, -38.0487823, -0.0406195
-0.9414062, 0.347168, -0.5551758, -41.0975609, -97.3780518, -37.3170738, -0.0409552
-0.9477539, 0.3457031, -0.5209961, -40.1829262, -97.0731735, -36.341465, -0.0449836
-0.9575195, 0.3681641, -0.4785156, -39.8170738, -96.7073212, -35.9756088, -0.0473335
-0.9575195, 0.3994141, -0.4677734, -40.4878044, -96.2195129, -34.9390259, -0.0446479
-0.9545898, 0.4174805, -0.4658203, -40.4878044, -96.4024429, -34.3902435, -0.0473335
-0.9443359, 0.440918, -0.4755859, -40.9756088, -96.3414688, -33.1097565, -0.0473335
-0.9414062, 0.4477539, -0.4829102, -41.4024391, -94.2682953, -32.3780479, -0.0466621
-0.9326172, 0.4545898, -0.4926758, -41.4634171, -93.4146347, -32.0731697, -0.0473335
-0.9404297, 0.4516602, -0.4921875, -41.9512215, -92.3170776, -32.0121956, -0.0466621
-0.9516602, 0.4394531, -0.4853516, -41.9512215, -91.8292694, -32.0731697, -0.0473335
-0.9594727, 0.4321289, -0.487793, -42.0121956, -91.0365906, -32.2560997, -0.0453193
-0.9794922, 0.4233398, -0.4887695, -41.4024391, -90.3658524, -32.1341476, -0.0439765
-0.9882812, 0.4223633, -0.4897461, -40.4268303, -90.3048782, -32.0731697, -0.0436408
-0.9868164, 0.421875, -0.4868164, -39.6951218, -90.0609741, -32.0731697, -0.0459907
-0.9892578, 0.4291992, -0.4755859, -38.9024391, -89.7560959, -31.8292694, -0.0439765
-0.9897461, 0.434082, -0.4711914, -38.5975609, -89.7560959, -31.5853672, -0.0406195
-0.9780273, 0.4487305, -0.4609375, -38.2926826, -89.3902435, -31.5243912, -0.042298
-0.9726562, 0.4516602, -0.456543, -37.8658562, -88.5365906, -31.1585369, -0.0412909
-0.9580078, 0.4438477, -0.4423828, -37.8048782, -88.4146347, -31.341465, -0.0369268
-0.9550781, 0.4389648, -0.4345703, -38.5365868, -86.9512253, -31.5243912, -0.0399481
-0.9575195, 0.4189453, -0.4121094, -39.0243912, -86.0365906, -31.5853672, -0.0409552
-0.9580078, 0.4106445, -0.4057617, -39.2073174, -84.8780518, -31.341465, -0.0433051
-0.9580078, 0.3920898, -0.4003906, -39.5121956, -84.0853653, -31.341465, -0.0446479
-0.9667969, 0.3901367, -0.3999023, -39.2682953, -82.1951218, -31.4024391, -0.0433051
-0.9726562, 0.3964844, -0.3955078, -39.0243912, -80.9146347, -31.4634151, -0.0433051
-0.9902344, 0.4208984, -0.394043, -39.3902435, -79.0853653, -31.2195129, -0.0409552
-0.9926758, 0.434082, -0.4042969, -39.8780479, -78.0487823, -30.6707325, -0.042298
-0.9892578, 0.4291992, -0.4423828, -40.3048782, -78.0487823, -30.1829281, -0.0446479
-0.9746094, 0.4111328, -0.4609375, -41.9512215, -78.4146347, -29.0853672, -0.0439765
-0.9580078, 0.3759766, -0.4755859, -42.6219521, -77.9878082, -28.841465, -0.0433051
-0.9536133, 0.3647461, -0.4672852, -42.5609779, -76.4634171, -28.2317085, -0.0449836
-0.9550781, 0.3510742, -0.4414062, -41.7073174, -75.3658524, -28.1707325, -0.0433051
-0.9677734, 0.3540039, -0.4267578, -39.8170738, -73.7804871, -28.4146347, -0.0453193
-0.9931641, 0.3696289, -0.4165039, -38.5975609, -73.7195129, -28.3536587, -0.0446479
-1.0009766, 0.3745117, -0.4155273, -36.5243912, -74.2682953, -27.8658543, -0.0473335
-0.9960938, 0.3754883, -0.4135742, -36.0975609, -74.5121994, -27.0731716, -0.0449836
-0.96875, 0.359375, -0.409668, -35.3658562, -74.8170776, -25.8536587, -0.0439765
-0.9580078, 0.3442383, -0.3994141, -34.7560997, -74.3292694, -25, -0.0412909
-0.9482422, 0.3496094, -0.3632812, -34.0243912, -73.1097565, -25.1829281, -0.0409552
-0.9589844, 0.3603516, -0.3632812, -33.0487823, -70.4878082, -25.2439022, -0.0412909
-0.9814453, 0.3803711, -0.3569336, -32.7439041, -69.7560959, -25.1219521, -0.0439765
-0.9799805, 0.3862305, -0.355957, -32.8048782, -69.9390259, -23.5975609, -0.0459907
-0.956543, 0.3842773, -0.34375, -32.9878044, -69.9390259, -23.8414631, -0.0433051
-0.9506836, 0.3847656, -0.3364258, -34.3292694, -68.5975647, -23.780489, -0.0446479
-0.9399414, 0.387207, -0.3276367, -34.5731697, -67.8658524, -23.780489, -0.0459907
-0.9418945, 0.4057617, -0.3295898, -34.6341476, -65.9146347, -23.5365868, -0.0466621
-0.9414062, 0.4169922, -0.3276367, -34.8780479, -64.6951218, -23.780489, -0.0433051
-0.9453125, 0.4204102, -0.3032227, -35.3048782, -62.68293, -24.0243912, -0.0406195
-0.9458008, 0.4204102, -0.2895508, -36.0365868, -61.0365868, -24.2682934, -0.0419623
-0.9570312, 0.4204102, -0.300293, -36.5853653, -60.18293, -24.5121956, -0.0392767
-0.9609375, 0.4199219, -0.3129883, -37.5, -59.8170738, -24.4512196, -0.0419623
-0.9580078, 0.4101562, -0.3393555, -37.6219521, -59.7560997, -24.1463413, -0.0459907
-0.9511719, 0.402832, -0.3476562, -37.2560997, -58.7804909, -24.3292694, -0.0463264
-0.953125, 0.390625, -0.3535156, -37.0121956, -58.0487823, -24.2073174, -0.0433051
-0.9575195, 0.3852539, -0.3632812, -36.2195129, -57.0731735, -23.9634151, -0.0473335
-0.9560547, 0.3745117, -0.3925781, -35.9146347, -57.0121956, -23.9634151, -0.0513619
-0.9472656, 0.3588867, -0.425293, -34.3292694, -57.5, -23.5365868, -0.0439765
-0.9448242, 0.3515625, -0.4248047, -33.5365868, -57.5, -23.3536587, -0.0453193
-0.9438477, 0.3481445, -0.3896484, -32.5, -56.5243912, -23.2317085, -0.0433051
-0.9467773, 0.3466797, -0.3779297, -31.280489, -55.7317085, -23.0487804, -0.0466621
-0.9545898, 0.3613281, -0.3598633, -30.3658543, -56.0365868, -22.6219521, -0.0433051
-0.9545898, 0.3691406, -0.3505859, -29.5121956, -55.9756126, -22.3780499, -0.0500191
-0.9487305, 0.3808594, -0.3300781, -29.7560978, -55.4878044, -22.0121956, -0.0463264
-0.9438477, 0.3852539, -0.315918, -29.5121956, -54.4512215, -21.4634151, -0.0473335
-0.9296875, 0.3833008, -0.3037109, -29.5121956, -53.9024391, -21.0975609, -0.0473335
-0.9257812, 0.3842773, -0.3017578, -29.6951218, -52.8658562, -20.7317085, -0.0476692
-0.9194336, 0.3837891, -0.3032227, -29.5731716, -52.0731735, -20.8536587, -0.0473335
-0.9130859, 0.3833008, -0.3066406, -30, -50.3048782, -20.1829281, -0.0449836
-0.9140625, 0.3828125, -0.3095703, -29.7560978, -49.3292694, -20.1829281, -0.0433051
-0.9155273, 0.3896484, -0.3056641, -30.4878063, -47.7439041, -20.2439022, -0.0419623
-0.9179688, 0.390625, -0.3032227, -30.7926846, -46.4024391, -20.5487804, -0.0412909
-0.9243164, 0.3964844, -0.2856445, -31.0365868, -45.6707344, -20.7926826, -0.042298
-0.9262695, 0.3989258, -0.2753906, -31.7682934, -44.7560997, -21.1585369, -0.0439765
-0.9228516, 0.3901367, -0.2670898, -32.0731697, -44.6951218, -20.7317085, -0.0453193
-0.9130859, 0.3789062, -0.2705078, -32.9878044, -44.1463432, -20.1829281, -0.0372625
-0.8989258, 0.3598633, -0.2719727, -33.0487823, -43.6585388, -20.060976, -0.0339055
-0.8984375, 0.3598633, -0.2763672, -33.2926826, -41.6463432, -20.060976, -0.0372625
-0.9042969, 0.359375, -0.2797852, -33.1097565, -40.4268303, -20.2439022, -0.0359197
-0.9208984, 0.3657227, -0.2944336, -32.1341476, -38.6585388, -20.3658543, -0.0379339
-0.9287109, 0.3676758, -0.2973633, -31.5853672, -38.3536606, -20.4268303, -0.0453193
-0.9384766, 0.3745117, -0.3037109, -30.7317085, -37.7439041, -20.060976, -0.0453193
-0.9414062, 0.3769531, -0.2988281, -31.6463413, -36.7682953, -19.6951218, -0.0419623
-0.9472656, 0.3696289, -0.2875977, -31.8292694, -36.341465, -19.5121956, -0.0419623
-0.9433594, 0.3623047, -0.2822266, -30.9756107, -37.4390259, -18.2926826, -0.0412909
-0.9121094, 0.3505859, -0.2817383, -30.060976, -38.1707344, -17.6829281, -0.0419623
-0.8969727, 0.3422852, -0.2880859, -28.5365868, -37.0121956, -17.0731716, -0.0426337
-0.8867188, 0.3486328, -0.3037109, -27.7439022, -36.341465, -17.0121956, -0.0392767
-0.8867188, 0.3525391, -0.3144531, -27.2560978, -34.1463432, -16.9512196, -0.0392767
-0.8930664, 0.3569336, -0.3183594, -26.7682934, -33.2317085, -16.7682934, -0.0392767
-0.902832, 0.3588867, -0.3134766, -26.4634151, -32.2560997, -16.280489, -0.0433051
-0.9111328, 0.3666992, -0.3095703, -26.0365868, -32.0731697, -15.9146347, -0.0446479
-0.9267578, 0.3759766, -0.3027344, -25.6097565, -32.1341476, -15.6707325, -0.0359197
-0.9272461, 0.371582, -0.2963867, -24.3292694, -32.6829262, -15.060976, -0.0379339
-0.9194336, 0.3666992, -0.2851562, -23.7195129, -32.6219521, -14.8170738, -0.0406195
-0.909668, 0.3691406, -0.2768555, -23.4756107, -32.5, -14.3902445, -0.042298
-0.9116211, 0.3769531, -0.2680664, -23.3536587, -31.9512196, -14.3902445, -0.0433051
-0.9140625, 0.3823242, -0.2685547, -22.6829281, -30.7926846, -14.3292685, -0.0453193
-0.9033203, 0.3901367, -0.2797852, -22.6829281, -30.6097565, -14.0243902, -0.0439765
-0.8984375, 0.3886719, -0.2768555, -22.5, -30.3048782, -13.2926836, -0.0466621
-0.8867188, 0.3862305, -0.2719727, -22.560976, -29.9390259, -13.1097565, -0.0436408
-0.8945312, 0.3891602, -0.2695312, -22.9878063, -28.841465, -13.2926836, -0.0433051
-0.9038086, 0.387207, -0.2685547, -23.3536587, -28.5365868, -13.5975609, -0.0433051
-0.9038086, 0.3852539, -0.262207, -22.5, -28.2317085, -13.2317076, -0.0399481
-0.9033203, 0.3857422, -0.2641602, -20.7926826, -27.560976, -13.1707315, -0.042298
-0.9116211, 0.3969727, -0.2758789, -20.5487804, -27.0121956, -12.9268293, -0.0426337
-0.9150391, 0.4047852, -0.2792969, -20.3658543, -26.9512196, -13.1097565, -0.0486763
-0.9111328, 0.4052734, -0.2880859, -20.2439022, -27.0731716, -12.9268293, -0.0540475
-0.9091797, 0.4057617, -0.2919922, -19.5121956, -27.2560978, -12.3780489, -0.0466621
-0.902832, 0.3935547, -0.3037109, -18.9024391, -27.1951218, -12.1951218, -0.0466621
-0.8994141, 0.3852539, -0.3061523, -18.5365849, -26.5243912, -11.7682934, -0.0486763
-0.9072266, 0.3686523, -0.2929688, -18.1707325, -25.8536587, -11.6463413, -0.0436408
-0.9174805, 0.3613281, -0.2949219, -17.439024, -25, -11.341464, -0.0459907
-0.9291992, 0.3579102, -0.2861328, -17.0731716, -24.5731716, -11.0365858, -0.0365911
-0.9438477, 0.3549805, -0.265625, -16.4024391, -24.2682934, -10.1829271, -0.0419623
-0.9472656, 0.3535156, -0.2553711, -15, -24.2682934, -9.7560978, -0.0466621
-0.953125, 0.3588867, -0.2539062, -14.5121956, -24.0853672, -9.0853662, -0.0433051
-0.9511719, 0.3623047, -0.2563477, -13.2926836, -24.1463413, -8.3536587, -0.0439765
-0.9462891, 0.3764648, -0.265625, -13.1097565, -23.7195129, -8.0487804, -0.0459907
-0.9501953, 0.3808594, -0.2685547, -12.8048782, -22.9878063, -7.1341467, -0.0466621
-0.9438477, 0.3891602, -0.2724609, -12.1951218, -22.9878063, -6.7073174, -0.0436408
-0.9389648, 0.3920898, -0.2695312, -11.219512, -22.7439022, -6.0975609, -0.0433051
-0.9350586, 0.394043, -0.265625, -10.5487804, -22.3780499, -5.9756098, -0.0406195
-0.9370117, 0.3930664, -0.2592773, -9.5121956, -21.6463413, -5.9756098, -0.0453193
-0.9389648, 0.3896484, -0.2543945, -9.5731707, -21.5243912, -5.9756098, -0.0486763
-0.9423828, 0.3803711, -0.2446289, -8.3536587, -21.0975609, -5.4268293, -0.0446479
-0.9389648, 0.3745117, -0.2412109, -6.9512196, -20.7926826, -5.1829271, -0.0459907
-0.9516602, 0.3588867, -0.2446289, -6.0365853, -20.7317085, -4.9390244, -0.0459907
-0.9516602, 0.3535156, -0.2524414, -4.5121951, -20.4268303, -4.0853658, -0.0459907
-0.9511719, 0.3500977, -0.2626953, -3.7804878, -20.3658543, -3.9024391, -0.0379339
-0.9501953, 0.3457031, -0.262207, -2.3170731, -19.3902435, -3.0487804, -0.0436408
-0.9541016, 0.3486328, -0.2587891, -1.8292683, -18.8414631, -2.7439024, -0.0459907
-0.9511719, 0.3603516, -0.25, -0.6097561, -17.8658543, -2.0121951, -0.0419623
-0.9526367, 0.3759766, -0.2392578, -0.3048781, -17.6829281, -1.6463414, -0.0412909
-0.9326172, 0.3837891, -0.2348633, -0.1829268, -18.0487804, -1.0365853, -0.0406195
-0.921875, 0.3837891, -0.2324219, -0.1829268, -17.9268303, -0.8536586, -0.042298
-0.9130859, 0.378418, -0.2329102, -0.3658537, -17.0731716, -0.4878049, -0.0382696
-0.9111328, 0.3740234, -0.2304688, -0.2439024, -15.4878054, -0.1829268, -0.0406195
-0.9116211, 0.3671875, -0.2299805, -0.4268293, -14.7560978, -0.1829268, -0.0426337
-0.9165039, 0.3637695, -0.2285156, -0.4268293, -12.9878054, -0.0609756, -0.0466621
-0.9316406, 0.3686523, -0.2319336, -0.6707317, -12.560976, 0.3658537, -0.0433051
-0.940918, 0.3642578, -0.2294922, -1.1585366, -12.2560978, 0.2439024, -0.0369268
-0.9453125, 0.3530273, -0.2260742, -0.9146342, -12.0121956, 0.3658537, -0.0392767
-0.9516602, 0.3520508, -0.2260742, -0.4878049, -11.9512196, 0.8536586, -0.0436408
