Application:, Trigno Discover (1.6.5)
Date/Time:, 30/01/2025 09:36:12
Collection Length (seconds):, 35.775
wrist (81457), , , , , , bicep (81139)
sensor mode: 609, , , , , , sensor mode: 40
ACC X (G), ACC Y (G), ACC Z (G), GYRO X (deg/s), GYRO Y (deg/s), GYRO Z (deg/s), EMG 1 (mV)
370.3704 Hz, 370.3704 Hz, 370.3704 Hz, 370.3704 Hz, 370.3704 Hz, 370.3704 Hz, 2148.1481 Hz
-1.0361328, 0.0742188, 0.0131836, -24.5121956, -8.1097565, 1.7682927, -0.0433051
-1.0336914, 0.09375, 0.0039062, -24.2682934, -8.1097565, 2.0731707, -0.0446479
-1.0273438, 0.1030273, 0.0014648, -24.0243912, -8.2926826, 2.3170731, -0.0439765
-1.0297852, 0.1206055, -0.0029297, -24.0853672, -8.6585369, 2.3170731, -0.0466621
-1.0219727, 0.1396484, -0.0048828, -24.0853672, -8.5975609, 2.195122, -0.0446479
-1.0170898, 0.1469727, -0.0078125, -24.6341476, -8.780488, 1.7682927, -0.0446479
-1.0219727, 0.1464844, -0.0126953, -24.8170738, -8.780488, 1.7073171, -0.0493477
-1.0195312, 0.1411133, -0.0112305, -25.3048782, -8.9024391, 1.5243902, -0.0533761
-1.0244141, 0.1254883, -0.0029297, -24.8170738, -9.2073174, 1.3414634, -0.0459907
-1.0273438, 0.1142578, -0.0043945, -24.9390259, -9.3902445, 1.097561, -0.0426337
-1.0302734, 0.1030273, -0.0117188, -25.2439022, -9.2073174, 0.9756098, -0.0433051
-1.0317383, 0.1000977, -0.0126953, -25.7926826, -9.9390249, 0.7317073, -0.0459907
-1.034668, 0.0942383, -0.0112305, -26.3414631, -9.7560978, 0.4878049, -0.0459907
-1.0351562, 0.0996094, -0.0136719, -26.6463413, -10.2439022, 0.3048781, -0.0433051
-1.0283203, 0.1054688, -0.0219727, -27.3780499, -10.6707315, 0.4878049, -0.0433051
-1.0131836, 0.1132812, -0.0244141, -28.1707325, -10.6707315, 0.6707317, -0.0473335
-1.0087891, 0.1171875, -0.0273438, -29.2073174, -11.280488, 0.5487805, -0.0386053
-1.0014648, 0.1201172, -0.0258789, -29.7560978, -11.5853662, 0.4878049, -0.0446479
-0.9980469, 0.1132812, -0.0234375, -30.1829281, -11.5243902, 0.3048781, -0.0459907
-0.9956055, 0.1064453, -0.0185547, -30.1829281, -10.9146347, 0.4878049, -0.0412909
-1, 0.0976562, -0.0180664, -30.6707325, -11.0975609, 0.2439024, -0.0426337
-1.003418, 0.078125, -0.0112305, -31.0365868, -11.4024391, 0.2439024, -0.0412909
-1.0048828, 0.0698242, -0.0073242, -30.4878063, -11.341464, 0.2439024, -0.0433051
-1.0102539, 0.0522461, 0.0009766, -30.060976, -11.5853662, 0.5487805, -0.0409552
-1.012207, 0.0439453, 0.0048828, -28.9634151, -11.7682934, 0.8536586, -0.0500191
-1.019043, 0.03125, 0.0078125, -27.3780499, -12.4390249, 1.7073171, -0.0500191
-1.0117188, 0.0297852, -0.0009766, -26.4634151, -12.1951218, 1.8902439, -0.0446479
-1.0136719, 0.03125, -0.0048828, -25.7926826, -12.8048782, 2.6829269, -0.0446479
-1.0107422, 0.0488281, -0.0141602, -24.9390259, -12.8658543, 2.6829269, -0.0433051
-1.0112305, 0.0600586, -0.0185547, -24.0243912, -13.2317076, 3.2317073, -0.0419623
-1.0068359, 0.081543, -0.0244141, -23.5365868, -13.0487804, 3.7195122, -0.0379339
-1.0053711, 0.0908203, -0.0258789, -23.4146347, -13.2926836, 4.2073174, -0.0419623
-1.0009766, 0.1044922, -0.0292969, -23.8414631, -13.2317076, 4.5731707, -0.0446479
-0.9946289, 0.1103516, -0.0258789, -24.6951218, -13.2926836, 4.5121951, -0.0406195
-0.9970703, 0.121582, -0.0170898, -24.9390259, -13.4756098, 4.0243902, -0.0473335
-1.003418, 0.1186523, -0.0087891, -25.2439022, -14.0243902, 3.7804878, -0.0453193
-0.9995117, 0.1162109, -0.0117188, -24.9390259, -13.9634151, 4.0243902, -0.0439765
-0.9985352, 0.1079102, -0.0136719, -25.1829281, -14.0853662, 4.0243902, -0.0433051
-0.9970703, 0.1020508, -0.0151367, -25.3658543, -14.8780489, 3.4756098, -0.0473335
-0.9941406, 0.09375, -0.0205078, -25.5487804, -15.1829271, 3.6585367, -0.0500191
-0.9873047, 0.0888672, -0.0205078, -25.9756107, -15.1219511, 3.5365853, -0.0480049
-0.9848633, 0.0869141, -0.0185547, -26.4024391, -15, 3.7195122, -0.0439765
-0.9848633, 0.0898438, -0.0175781, -27.1341476, -14.6341467, 3.7195122, -0.0386053
-0.9838867, 0.0942383, -0.0097656, -27.0121956, -14.5731707, 3.9024391, -0.0379339
-0.9829102, 0.0942383, -0.0063477, -26.8292694, -14.3292685, 4.1463413, -0.0352483
-0.9853516, 0.0927734, 0.0029297, -26.6463413, -14.2682934, 4.3292685, -0.0359197
-0.9892578, 0.090332, -0.0004883, -26.2195129, -13.9634151, 4.2073174, -0.0453193
-0.9907227, 0.0849609, -0.0024414, -26.280489, -13.7195129, 3.9024391, -0.0493477
-0.9990234, 0.0800781, -0.0063477, -26.2195129, -13.6585369, 3.9024391, -0.0453193
-1.0004883, 0.0878906, -0.0092773, -26.6463413, -13.4756098, 4.1463413, -0.0446479
-0.9980469, 0.0947266, -0.0112305, -26.8292694, -13.3536587, 4.1463413, -0.0473335
-0.9926758, 0.097168, -0.012207, -26.9512196, -13.2926836, 4.4512196, -0.0439765
-0.9882812, 0.1074219, -0.0092773, -27.3170738, -13.4756098, 4.7560978, -0.0419623
-0.9882812, 0.1074219, -0.0136719, -27.9268303, -13.4146347, 4.5731707, -0.0459907
-0.9790039, 0.1152344, -0.0102539, -28.1097565, -13.2926836, 4.4512196, -0.0459907
-0.9770508, 0.1137695, -0.0058594, -28.6585369, -12.8658543, 4.1463413, -0.0446479
-0.9780273, 0.1157227, -0.0019531, -28.7195129, -12.6219511, 4.2073174, -0.0446479
-0.9853516, 0.109375, 0, -28.9634151, -12.1951218, 3.7804878, -0.0419623
-0.9882812, 0.1079102, 0.0053711, -29.5731716, -12.1341467, 3.2926829, -0.0446479
-0.9941406, 0.1000977, -0.0004883, -29.6341476, -12.0731707, 3.2317073, -0.0506905
-0.9995117, 0.0961914, 0, -29.6341476, -12.3170738, 3.1707318, -0.0500191
-1.0063477, 0.0942383, -0.0048828, -29.6951218, -12.3780489, 3.2317073, -0.0466621
-1.0029297, 0.0908203, -0.0107422, -30.1829281, -12.5, 3.4756098, -0.0520333
-0.9960938, 0.0893555, -0.0195312, -30.6097565, -12.7439032, 3.4146342, -0.0466621
-0.996582, 0.0922852, -0.0205078, -31.1585369, -12.3780489, 3.9024391, -0.0480049
-0.9926758, 0.0888672, -0.0224609, -31.341465, -12.0731707, 4.0853658, -0.0500191
-0.9892578, 0.0874023, -0.0200195, -31.5853672, -12.2560978, 3.9024391, -0.0486763
-0.9902344, 0.0859375, -0.0126953, -31.7682934, -12.2560978, 4.2073174, -0.0433051
-0.987793, 0.0864258, -0.0175781, -31.6463413, -12.2560978, 3.7195122, -0.0382696
-0.9926758, 0.0864258, -0.0209961, -32.3170738, -11.8902445, 3.7195122, -0.0446479
-0.9892578, 0.0991211, -0.0322266, -32.6219521, -11.7682934, 3.7804878, -0.0473335
-0.9902344, 0.1083984, -0.0366211, -33.6585388, -11.4634151, 3.5365853, -0.0406195
-0.9926758, 0.1191406, -0.0439453, -33.9024391, -11.5243902, 3.4756098, -0.0396124
-0.9946289, 0.1181641, -0.0449219, -35.0609779, -11.5853662, 3.1707318, -0.0419623
-0.9946289, 0.1220703, -0.0390625, -35.5487823, -11.8902445, 3.2317073, -0.0392767
-0.9941406, 0.1230469, -0.0419922, -36.9512215, -11.8292685, 2.9268293, -0.042298
-0.9902344, 0.1157227, -0.0410156, -37.5609779, -12.1951218, 3.2317073, -0.0453193
-0.9936523, 0.1132812, -0.0395508, -39.1463432, -11.9512196, 3.1097562, -0.0446479
-0.9916992, 0.1000977, -0.0424805, -39.3902435, -12.0731707, 2.804878, -0.0459907
-0.9912109, 0.0874023, -0.0400391, -40.4268303, -11.8292685, 2.9268293, -0.0439765
-0.9858398, 0.0839844, -0.0375977, -41.0975609, -11.219512, 3.1097562, -0.0386053
-0.9790039, 0.0732422, -0.027832, -41.2804871, -10.7926836, 3.1097562, -0.0406195
-0.9829102, 0.0639648, -0.0200195, -41.7073174, -10.3048782, 3.0487804, -0.0419623
-0.9873047, 0.0610352, 0.0004883, -41.5853653, -10.3048782, 3.2317073, -0.0372625
-0.9873047, 0.0576172, 0.0078125, -41.4634171, -9.9390249, 3.2317073, -0.0396124
-0.9887695, 0.0644531, 0.0097656, -41.4634171, -10.060976, 3.2926829, -0.0369268
-0.9916992, 0.0703125, 0.0087891, -40.9756088, -9.8780489, 3.2317073, -0.0365911
-0.9951172, 0.0791016, 0.0043945, -41.0975609, -9.8170738, 3.2926829, -0.0379339
-0.9926758, 0.0844727, 0.0009766, -40.9756088, -9.7560978, 2.9268293, -0.0406195
-0.9868164, 0.0893555, -0.0083008, -40.6097565, -9.6341467, 2.5, -0.0379339
-0.9873047, 0.1035156, -0.0112305, -40.2439041, -9.6341467, 2.2560976, -0.0453193
-0.9868164, 0.1074219, -0.0102539, -40.3048782, -9.2073174, 2.0121951, -0.0439765
-0.9848633, 0.1132812, -0.0097656, -40.1829262, -8.719512, 2.0121951, -0.0406195
-0.9824219, 0.112793, -0.0141602, -40.2439041, -8.1707315, 1.4634147, -0.0365911
-0.9868164, 0.1157227, -0.0195312, -40.3658562, -8.0487804, 1.5853659, -0.0379339
-0.9863281, 0.1142578, -0.0234375, -40.4268303, -7.8658538, 1.1585366, -0.0345769
-0.9887695, 0.105957, -0.0244141, -40.3048782, -7.6219516, 1.2195122, -0.0328985
-0.9951172, 0.0952148, -0.0239258, -40.4878044, -7.0121951, 0.6707317, -0.0372625
-0.9941406, 0.0825195, -0.0117188, -40.3048782, -7.3170733, 0.3658537, -0.0392767
-0.9936523, 0.0771484, 0, -39.3292694, -7.2560978, -0.1829268, -0.0379339
-1.0068359, 0.0751953, 0.0107422, -38.1097565, -7.1341467, -0.5487805, -0.0406195
-1.0166016, 0.0732422, 0.0141602, -36.9512215, -7.1951222, -0.6097561, -0.0406195
-1.0209961, 0.0751953, 0.0102539, -35, -7.5609756, -0.9146342, -0.0379339
-1.0214844, 0.0834961, 0.0048828, -34.1463432, -7.9878049, -1.097561, -0.0459907
-1.0268555, 0.0810547, 0.0014648, -32.6219521, -8.3536587, -0.3658537, -0.0500191
-1.0234375, 0.0800781, -0.0078125, -31.9512196, -8.6585369, -0.2439024, -0.0459907
-1.0180664, 0.0766602, -0.0078125, -31.0365868, -9.1463413, 0.1219512, -0.0446479
-1.0175781, 0.065918, -0.0048828, -30.060976, -8.780488, 0.0609756, -0.0459907
-1.0180664, 0.059082, -0.0087891, -29.2682934, -9.0243902, -0.0609756, -0.0412909
-1.019043, 0.0463867, -0.0146484, -28.7195129, -9.0853662, -0.2439024, -0.0339055
-1.0224609, 0.0429688, -0.0195312, -27.9268303, -9.4512196, -0.4268293, -0.0352483
-1.0195312, 0.0449219, -0.0244141, -26.6463413, -9.0243902, 0.1219512, -0.0459907
-1.0151367, 0.0507812, -0.0268555, -26.280489, -8.9024391, 0, -0.0379339
-1.0126953, 0.0576172, -0.0258789, -25, -7.8658538, 0.6097561, -0.0265202
-1.0151367, 0.0654297, -0.0219727, -24.6341476, -7.9878049, 0.8536586, -0.0339055
-1.0136719, 0.0693359, -0.019043, -23.1097565, -8.5365858, 0.3658537, -0.0352483
-1.0141602, 0.0625, -0.0117188, -21.2195129, -9.0243902, 0.4268293, -0.0372625
-1.015625, 0.0541992, -0.0068359, -18.2926826, -9.8170738, 0.7317073, -0.0339055
-1.015625, 0.0439453, -0.0224609, -17.2560978, -9.9390249, 1.0365853, -0.0285344
-1.0166016, 0.0356445, -0.027832, -16.0365849, -10.2439022, 1.5853659, -0.0352483
-1.012207, 0.0253906, -0.0327148, -15.9146347, -10.3048782, 2.195122, -0.0379339
-1.0107422, 0.0292969, -0.0317383, -14.9390249, -9.8170738, 2.0121951, -0.0339055
-1.0063477, 0.0498047, -0.0317383, -15.1829271, -9.1463413, 2.4390244, -0.0386053
-1.0043945, 0.0786133, -0.0424805, -15.1219511, -9.3902445, 2.5609756, -0.0409552
-1.0004883, 0.09375, -0.0400391, -15.4268293, -9.6951218, 2.5, -0.0419623
-0.9980469, 0.1010742, -0.0405273, -15.7317076, -9.8170738, 2.3170731, -0.0392767
-0.9960938, 0.1010742, -0.0380859, -16.6463413, -9.5731707, 2.0731707, -0.0406195
-1.003418, 0.0942383, -0.0263672, -16.9512196, -9.3292685, 1.9512196, -0.0419623
-1.0039062, 0.0888672, -0.0239258, -17.0731716, -9.5121956, 1.6463414, -0.0379339
-1.0058594, 0.0830078, -0.0185547, -17.2560978, -9.6341467, 1.6463414, -0.0325628
-1.0083008, 0.0820312, -0.0161133, -17.1341476, -9.2073174, 1.9512196, -0.03122
-1.0185547, 0.0864258, -0.0195312, -17.1951218, -9.3292685, 1.7682927, -0.0352483
-1.0234375, 0.0888672, -0.0224609, -17.0731716, -8.9634151, 1.5243902, -0.0332341
-1.0224609, 0.0913086, -0.0205078, -17.560976, -9.3292685, 1.402439, -0.0386053
-1.019043, 0.0874023, -0.0097656, -17.8048782, -9.8170738, 1.097561, -0.0412909
-1.0219727, 0.0849609, -0.0053711, -17.6219521, -9.3292685, 1.2195122, -0.0382696
-1.0234375, 0.0830078, -0.0175781, -16.2195129, -8.780488, 1.1585366, -0.0379339
-1.0244141, 0.0859375, -0.0234375, -16.7073174, -7.9878049, 2.2560976, -0.0382696
-1.0078125, 0.1064453, -0.03125, -17.439024, -7.9878049, 2.6829269, -0.0426337
-1.003418, 0.112793, -0.0385742, -18.5365849, -8.6585369, 2.5, -0.0436408
-0.996582, 0.1108398, -0.0258789, -18.9634151, -8.3536587, 2.4390244, -0.0433051
-0.9951172, 0.1010742, -0.0200195, -19.7560978, -8.3536587, 1.7682927, -0.0406195
-0.9912109, 0.0849609, -0.0166016, -19.6341476, -8.3536587, 1.7073171, -0.0433051
-0.9882812, 0.0771484, -0.0175781, -19.6951218, -8.3536587, 1.5243902, -0.0439765
-0.987793, 0.0615234, -0.0073242, -19.5731716, -7.7439027, 2.0121951, -0.0419623
-0.9873047, 0.0581055, -0.0014648, -18.9634151, -7.4390244, 2.0121951, -0.0433051
-0.9941406, 0.0571289, -0.0078125, -18.2926826, -7.1341467, 2.0731707, -0.0416266
-0.9980469, 0.0541992, -0.012207, -17.7439022, -7.0121951, 2.3780489, -0.0433051
-0.9975586, 0.0522461, -0.0131836, -17.8048782, -7.0121951, 1.9512196, -0.0419623
-1.0043945, 0.0537109, -0.0107422, -17.6219521, -7.0121951, 1.8902439, -0.0406195
-1.0083008, 0.0527344, -0.0097656, -16.8292694, -6.6463418, 1.8902439, -0.0446479
-1.0166016, 0.0527344, -0.0053711, -16.4024391, -6.5853658, 2.0121951, -0.0412909
-1.0166016, 0.0551758, 0, -14.9390249, -6.7682929, 2.7439024, -0.0419623
-1.0131836, 0.050293, -0.0039062, -14.0243902, -6.7682929, 3.4756098, -0.0459907
-1.0161133, 0.0473633, -0.0039062, -13.1097565, -6.7682929, 3.5975611, -0.0459907
-1.0107422, 0.0322266, 0.0014648, -11.1585369, -7.0121951, 3.6585367, -0.0406195
-1.015625, 0.027832, -0.0048828, -10.4268293, -7.2560978, 3.6585367, -0.042298
-1.0136719, 0.0317383, -0.0087891, -9.2682924, -7.1951222, 3.4146342, -0.0406195
-1.0175781, 0.0488281, -0.0185547, -8.9634151, -6.890244, 3.2926829, -0.0436408
-1.012207, 0.0581055, -0.0244141, -8.2317076, -6.8292685, 3.4756098, -0.0449836
-1.0112305, 0.0854492, -0.0297852, -8.1097565, -6.4024391, 3.6585367, -0.0459907
-1.0136719, 0.0966797, -0.0273438, -8.2926826, -6.0975609, 3.2317073, -0.0433051
-1.0151367, 0.1235352, -0.0195312, -8.4146347, -6.0975609, 3.1707318, -0.0439765
-1.0175781, 0.1352539, -0.0195312, -8.780488, -6.0365853, 3.1097562, -0.0463264
-1.0126953, 0.1469727, -0.0170898, -9.5731707, -5.7317076, 3.2317073, -0.0409552
-1.0141602, 0.1518555, -0.012207, -10.6097565, -5.7926831, 2.2560976, -0.0339055
-1.0214844, 0.152832, -0.0141602, -11.7073174, -5.7926831, 2.195122, -0.0345769
-1.0200195, 0.1420898, -0.0102539, -12.3170738, -5.7317076, 2.0121951, -0.0359197
-1.0229492, 0.1328125, -0.0146484, -13.4146347, -6.280488, 2.0121951, -0.0339055
-1.0214844, 0.1206055, -0.015625, -13.9634151, -6.2195125, 1.7073171, -0.0332341
-1.0170898, 0.1098633, -0.0136719, -14.3902445, -6.0365853, 1.097561, -0.0412909
-1.0102539, 0.0917969, -0.0117188, -14.7560978, -5.9756098, 0.8536586, -0.0433051
-1.012207, 0.0834961, -0.0107422, -14.4512196, -5.9756098, 0.9146342, -0.0406195
-1.0195312, 0.0839844, -0.012207, -14.5731707, -5.4878049, 0.7926829, -0.0392767
-1.0195312, 0.0820312, -0.0151367, -14.4512196, -5.1829271, 0.7926829, -0.0396124
-1.0200195, 0.0820312, -0.0234375, -14.3902445, -5.0609756, 0.5487805, -0.0419623
-1.0234375, 0.0849609, -0.0253906, -13.9634151, -5.0609756, 0.6097561, -0.0530404
-1.027832, 0.0791016, -0.0288086, -13.4146347, -5.2439027, 0.4268293, -0.0500191
-1.0317383, 0.0712891, -0.0356445, -13.3536587, -5.4268293, 0.3658537, -0.0513619
-1.0327148, 0.0678711, -0.0361328, -13.5975609, -5.4878049, 0.6707317, -0.0486763
-1.027832, 0.0620117, -0.0288086, -13.2926836, -5.3048782, 0.9146342, -0.0463264
-1.0253906, 0.0620117, -0.0219727, -13.5975609, -4.9390244, 1.4634147, -0.0433051
-1.0234375, 0.0625, -0.015625, -13.6585369, -4.8170733, 1.3414634, -0.0473335
-1.0234375, 0.0595703, -0.012207, -13.1707315, -5.1829271, 1.7073171, -0.0433051
-1.0136719, 0.0673828, -0.0087891, -12.9268293, -5.3658538, 1.5243902, -0.0486763
-1.0102539, 0.0703125, -0.0092773, -12.6219511, -5.4878049, 1.402439, -0.0486763
-1.0092773, 0.0668945, -0.0087891, -12.6219511, -4.8780489, 1.2195122, -0.0446479
-1.0092773, 0.0664062, -0.0078125, -12.3170738, -4.8780489, 1.0365853, -0.0459907
-1.0102539, 0.0776367, -0.0004883, -12.1341467, -4.5731707, 1.5243902, -0.0466621
-1.0053711, 0.0849609, 0.0024414, -11.7682934, -4.6341462, 1.5853659, -0.0392767
-1.0019531, 0.090332, 0.0009766, -12.0731707, -4.4512196, 1.5853659, -0.0399481
-1.0019531, 0.1035156, -0.0039062, -12.1951218, -4.0243902, 1.5853659, -0.0412909
-1.0019531, 0.105957, -0.0024414, -13.1097565, -4.390244, 1.0365853, -0.0426337
-0.9980469, 0.112793, -0.0126953, -13.5365858, -4.3292685, 1.0365853, -0.0372625
-0.9985352, 0.1157227, -0.0097656, -14.6951227, -4.0243902, 0.8536586, -0.0426337
-1.0024414, 0.1171875, -0.0092773, -15.3048782, -4.0853658, 0.8536586, -0.0433051
-1.0024414, 0.1196289, -0.0087891, -15.9146347, -3.9634147, 0.6097561, -0.0433051
-1.0073242, 0.1123047, -0.0097656, -16.7682934, -3.9634147, 0.6707317, -0.0406195
-1.0117188, 0.1142578, -0.0136719, -17.3780499, -3.9634147, 0.3658537, -0.0459907
-1.0136719, 0.1015625, -0.0180664, -18.2317085, -4.1463413, 0.1219512, -0.0453193
-1.015625, 0.0932617, -0.0185547, -18.7195129, -4.0243902, 0.3658537, -0.0459907
-1.0161133, 0.0913086, -0.0195312, -18.9024391, -4.1463413, 0.1829268, -0.0473335
-1.0205078, 0.0810547, -0.0219727, -19.2073174, -3.7804878, 0.4268293, -0.0473335
-1.0244141, 0.0712891, -0.0224609, -18.9024391, -3.5975611, 0.5487805, -0.0500191
-1.0283203, 0.0629883, -0.0229492, -18.7195129, -3.4756098, 0.6707317, -0.0480049
-1.0288086, 0.0556641, -0.0209961, -18.3536587, -3.8414636, 1.097561, -0.0476692
-1.0317383, 0.0478516, -0.015625, -17.560976, -4.0853658, 1.2195122, -0.0493477
-1.0307617, 0.0449219, -0.0151367, -16.6463413, -4.390244, 1.8292683, -0.0533761
-1.0317383, 0.0419922, -0.0185547, -16.0975609, -4.3292685, 2.1341465, -0.056733
-1.0263672, 0.0419922, -0.0195312, -15.060976, -4.7560978, 2.7439024, -0.0500191
-1.0205078, 0.0527344, -0.0170898, -14.2073174, -4.8780489, 3.0487804, -0.0500191
-1.0146484, 0.0629883, -0.0087891, -13.780488, -4.8170733, 3.2926829, -0.0520333
-1.0141602, 0.0668945, -0.0107422, -13.1097565, -4.6341462, 3.7804878, -0.0473335
-1.0136719, 0.0717773, -0.0078125, -12.9878054, -4.8780489, 4.0853658, -0.0436408
-1.0097656, 0.0737305, -0.0068359, -12.8658543, -4.390244, 4.5121951, -0.0459907
-1.0014648, 0.0834961, 0.0048828, -13.1097565, -4.5121951, 4.0243902, -0.0500191
-1.0014648, 0.0834961, 0.0068359, -13.1707315, -4.390244, 4.2073174, -0.0493477
-0.9926758, 0.0869141, 0.0146484, -13.0487804, -4.5121951, 4.3292685, -0.0446479
-0.9941406, 0.0844727, 0.0170898, -13.9024391, -4.390244, 4.4512196, -0.0500191
-0.9897461, 0.0898438, 0.0175781, -14.0243902, -4.2073174, 4.5121951, -0.0473335
-0.9873047, 0.0893555, 0.0205078, -13.841464, -3.9634147, 4.1463413, -0.0419623
-0.9873047, 0.0908203, 0.0205078, -13.6585369, -4.0243902, 3.9634147, -0.0486763
-0.9853516, 0.09375, 0.0170898, -13.7195129, -3.7804878, 3.9024391, -0.0446479
-0.9887695, 0.0927734, 0.015625, -13.7195129, -3.5365853, 3.5975611, -0.0433051
-0.9946289, 0.0898438, 0.0073242, -13.5365858, -3.6585367, 3.2926829, -0.0446479
-0.9985352, 0.0878906, 0.0048828, -13.5365858, -3.9024391, 3.5975611, -0.0469978
-1.0039062, 0.0893555, 0, -13.2926836, -3.9634147, 3.4146342, -0.0480049
-1.0063477, 0.0859375, -0.0053711, -13.1097565, -3.7195122, 3.3536587, -0.0453193
-1.0141602, 0.0883789, -0.0131836, -13.1707315, -3.6585367, 3.3536587, -0.0459907
-1.0112305, 0.0834961, -0.0185547, -13.0487804, -4.0243902, 3.0487804, -0.0463264
-1.0180664, 0.0825195, -0.0195312, -12.9268293, -4.390244, 3.3536587, -0.0486763
-1.0087891, 0.0825195, -0.0268555, -12.8048782, -4.6951222, 3.4756098, -0.0486763
-1.0087891, 0.0810547, -0.0273438, -12.9878054, -4.7560978, 3.3536587, -0.0466621
-1.0092773, 0.078125, -0.0283203, -12.8658543, -4.7560978, 3.6585367, -0.0446479
-1.0058594, 0.0771484, -0.0322266, -12.8048782, -5.0609756, 3.4146342, -0.0412909
-1.0039062, 0.0727539, -0.0292969, -12.5, -5.1219511, 3.2317073, -0.0419623
-1.0078125, 0.0703125, -0.0292969, -12.560976, -4.8170733, 3.4146342, -0.0439765
-1.0126953, 0.0751953, -0.0302734, -12.3780489, -4.8170733, 3.2926829, -0.0459907
-1.0166016, 0.0703125, -0.0258789, -12.3780489, -5.3048782, 3.5365853, -0.0406195
-1.0083008, 0.0683594, -0.0170898, -12.1341467, -5.4268293, 3.5975611, -0.0379339
-1.0068359, 0.065918, -0.0131836, -11.5243902, -5.7926831, 3.9024391, -0.0379339
-1.0083008, 0.0634766, -0.0029297, -10.8536587, -5.7926831, 4.0243902, -0.0412909
-1.0019531, 0.0571289, 0.0019531, -9.8780489, -5.9756098, 4.0243902, -0.0406195
-1.0039062, 0.0532227, 0.0024414, -9.1463413, -6.0365853, 4.2073174, -0.0392767
-0.9990234, 0.0541992, -0.0043945, -8.9024391, -5.9146342, 4.3292685, -0.0365911
-0.9980469, 0.0512695, -0.0073242, -8.4146347, -6.1585369, 4.5731707, -0.0339055
-0.9980469, 0.0576172, -0.0112305, -8.2926826, -6.2195125, 4.5731707, -0.03122
-0.9951172, 0.0639648, -0.0112305, -8.0487804, -5.9146342, 4.6951222, -0.035584
-0.9819336, 0.074707, -0.0200195, -8.2926826, -5.7926831, 4.7560978, -0.0406195
-0.9833984, 0.0834961, -0.015625, -8.5365858, -5.609756, 4.7560978, -0.0339055
-0.984375, 0.0976562, -0.0087891, -9.0853662, -5.609756, 4.6341462, -0.035584
-0.984375, 0.1000977, -0.0004883, -9.5731707, -5.3048782, 4.3292685, -0.0345769
-0.987793, 0.1030273, 0.0039062, -10, -5, 4.0853658, -0.0318914
-0.9868164, 0.1010742, 0.0014648, -10.6707315, -4.7560978, 3.6585367, -0.0302129
-0.9887695, 0.1010742, 0.0043945, -11.1585369, -4.5731707, 2.9878049, -0.0379339
-0.9970703, 0.1015625, 0.0039062, -11.4024391, -4.8780489, 2.3780489, -0.0406195
-1.0024414, 0.0966797, 0.0019531, -12.0121956, -4.6951222, 1.9512196, -0.0406195
-1.0102539, 0.1025391, -0.0024414, -11.8902445, -4.390244, 1.5853659, -0.0486763
-1.0126953, 0.0991211, -0.0102539, -12.0121956, -4.4512196, 1.402439, -0.0480049
-1.0209961, 0.0981445, -0.0151367, -12.3780489, -4.2073174, 1.2804878, -0.0466621
-1.0200195, 0.1025391, -0.0161133, -12.3780489, -4.2682929, 1.1585366, -0.0433051
-1.0219727, 0.0966797, -0.0185547, -12.6219511, -4.2682929, 1.2195122, -0.0412909
-1.0175781, 0.0961914, -0.0224609, -12.2560978, -4.5731707, 0.7926829, -0.0406195
-1.019043, 0.0864258, -0.0180664, -11.9512196, -4.7560978, 0.2439024, -0.0433051
-1.0161133, 0.0893555, -0.0151367, -11.6463413, -4.6341462, 0.2439024, -0.0459907
-1.0136719, 0.0869141, -0.0131836, -11.1585369, -4.8170733, 0.1219512, -0.0473335
-1.019043, 0.0820312, -0.0195312, -10.6707315, -5.0609756, 0.0609756, -0.0520333
-1.0214844, 0.0859375, -0.0239258, -10.3658543, -4.5121951, -0.1829268, -0.0493477
-1.027832, 0.09375, -0.0249023, -10.3658543, -4.4512196, -0.3048781, -0.056733
-1.0268555, 0.1020508, -0.0224609, -10.060976, -4.5121951, -0.3048781, -0.0580758
-1.0258789, 0.1074219, -0.0146484, -10.3048782, -4.5121951, -0.3658537, -0.0543832
-1.0249023, 0.1074219, -0.0107422, -10.3048782, -4.9390244, -0.9146342, -0.0540475
-1.0273438, 0.1054688, -0.0107422, -10.2439022, -5.0609756, -0.9756098, -0.0553902
-1.0239258, 0.1030273, -0.0063477, -10.3658543, -5.609756, -1.2804878, -0.0553902
-1.0166016, 0.0996094, -0.0048828, -10.3658543, -6.0365853, -1.4634147, -0.0500191
-1.0102539, 0.0981445, -0.0073242, -9.9390249, -5.9146342, -1.5243902, -0.0540475
-1.0073242, 0.0922852, -0.0048828, -10.060976, -5.4878049, -1.8902439, -0.0513619
-1.0102539, 0.097168, -0.0039062, -9.8780489, -5.3658538, -1.8902439, -0.0527047
-1.0083008, 0.0917969, -0.0024414, -9.5731707, -5.1219511, -2.3170731, -0.0516976
-1.0136719, 0.097168, 0.0004883, -9.8780489, -5.0609756, -2.4390244, -0.0520333
-1.0170898, 0.0986328, -0.0039062, -9.8780489, -5.3658538, -2.6829269, -0.0500191
-1.0214844, 0.0957031, -0.0087891, -10.1829271, -5.2439027, -2.6219513, -0.0513619
-1.0180664, 0.0952148, -0.0102539, -10.1829271, -5.609756, -2.7439024, -0.0506905
-1.0219727, 0.0966797, -0.012207, -10.3048782, -5.7317076, -2.8658538, -0.0473335
-1.0244141, 0.0976562, -0.0131836, -10.5487804, -5.3048782, -3.2926829, -0.0446479
-1.0327148, 0.0991211, -0.0126953, -10.7317076, -5.4878049, -3.0487804, -0.0459907
-1.0283203, 0.0957031, -0.0151367, -10.7317076, -5.3048782, -3.1707318, -0.0439765
-1.0263672, 0.0932617, -0.0141602, -11.1585369, -5.7317076, -3.1097562, -0.0433051
-1.0253906, 0.0932617, -0.0141602, -11.341464, -5.9146342, -2.9268293, -0.0392767
-1.0263672, 0.0913086, -0.0083008, -11.0365858, -5.9146342, -3.1707318, -0.0386053
-1.0195312, 0.0874023, -0.0087891, -11.1585369, -5.9146342, -3.2317073, -0.0379339
-1.0175781, 0.0820312, -0.0126953, -11.0365858, -6.0365853, -3.7804878, -0.0365911
-1.0209961, 0.0722656, -0.0117188, -10.6097565, -6.4024391, -4.0243902, -0.0396124
-1.0209961, 0.0712891, -0.0068359, -9.6341467, -6.2195125, -4.0243902, -0.0439765
-1.0283203, 0.0708008, -0.0170898, -9.3902445, -6.280488, -3.9024391, -0.0433051
-1.0307617, 0.0717773, -0.0234375, -8.4756098, -6.280488, -3.9634147, -0.0439765
-1.0366211, 0.0668945, -0.0307617, -8.4146347, -6.0975609, -3.7804878, -0.0382696
-1.0351562, 0.0698242, -0.0273438, -8.4756098, -6.0975609, -3.9024391, -0.0365911
-1.0410156, 0.0737305, -0.0263672, -8.2317076, -6.4024391, -3.5365853, -0.0352483
-1.0429688, 0.0820312, -0.0263672, -8.6585369, -6.4634147, -3.3536587, -0.0339055
-1.0385742, 0.0849609, -0.0263672, -8.9634151, -6.890244, -2.9268293, -0.03122
-1.0297852, 0.0898438, -0.0224609, -9.0853662, -6.9512196, -2.9878049, -0.0352483
-1.0249023, 0.0888672, -0.019043, -9.2073174, -7.4390244, -2.5, -0.0379339
-1.0166016, 0.0839844, -0.012207, -9.1463413, -7.1951222, -2.4390244, -0.0365911
-1.0131836, 0.0849609, -0.0112305, -9.0853662, -7.5609756, -2.6219513, -0.0359197
-1.0117188, 0.0766602, -0.0136719, -8.9024391, -7.4390244, -2.804878, -0.0379339
-1.0136719, 0.0712891, -0.0131836, -8.5975609, -7.5, -3.3536587, -0.0392767
-1.0219727, 0.0673828, -0.0161133, -8.9024391, -7.2560978, -3.0487804, -0.0412909
-1.0258789, 0.0732422, -0.0141602, -9.0243902, -7.6219516, -2.9878049, -0.0493477
-1.0253906, 0.0742188, -0.0151367, -9.3902445, -7.5609756, -2.7439024, -0.0459907
-1.0234375, 0.0839844, -0.0117188, -9.9390249, -7.5609756, -2.2560976, -0.0463264
-1.0205078, 0.0927734, -0.0087891, -10.9756098, -7.3780489, -2.0121951, -0.0396124
-1.0107422, 0.1005859, -0.0009766, -11.219512, -7.5, -2.195122, -0.0466621
-1.0136719, 0.1044922, 0.0043945, -11.8292685, -8.2317076, -2.0731707, -0.0446479
-0.9946289, 0.1074219, 0.0029297, -12.0731707, -8.2926826, -2.195122, -0.0480049
-0.9907227, 0.1064453, 0.003418, -13.4146347, -8.4756098, -2.4390244, -0.0486763
-0.9868164, 0.1088867, 0.0019531, -13.5365858, -8.4756098, -2.5609756, -0.0446479
-0.9858398, 0.1030273, 0.0097656, -14.1463413, -8.5975609, -2.6219513, -0.0486763
-0.9853516, 0.0927734, 0.0102539, -14.8780489, -8.2926826, -3.0487804, -0.0473335
-0.9936523, 0.0849609, 0.0053711, -14.8780489, -8.1097565, -3.1097562, -0.0459907
-1.0014648, 0.0844727, 0.0043945, -14.9390249, -8.1707315, -2.9878049, -0.0547189
-1.0146484, 0.0761719, -0.0053711, -14.5121956, -8.1707315, -3.1097562, -0.0513619
-1.0229492, 0.0727539, -0.0097656, -14.2073174, -8.4756098, -3.0487804, -0.0500191
-1.0317383, 0.0605469, -0.0161133, -13.780488, -8.5365858, -2.8658538, -0.0459907
-1.0371094, 0.0600586, -0.0234375, -13.3536587, -8.719512, -2.2560976, -0.0446479
-1.0424805, 0.0517578, -0.0253906, -13.5975609, -9.0243902, -1.9512196, -0.0446479
-1.0429688, 0.0493164, -0.0288086, -12.8658543, -9.6951218, -1.5243902, -0.0419623
-1.0336914, 0.0507812, -0.0322266, -12.4390249, -9.8170738, -1.5853659, -0.0426337
-1.0307617, 0.0517578, -0.0317383, -11.5853662, -9.9390249, -1.4634147, -0.0446479
-1.0292969, 0.0493164, -0.0317383, -10.9756098, -10.2439022, -0.9756098, -0.0433051
-1.0239258, 0.0581055, -0.0302734, -10.5487804, -10.060976, -0.7317073, -0.0446479
-1.0263672, 0.0625, -0.0322266, -10.060976, -10.2439022, -0.4878049, -0.0466621
-1.0292969, 0.0673828, -0.0361328, -9.5121956, -10.4268293, -0.5487805, -0.042298
-1.027832, 0.0703125, -0.0356445, -9.8170738, -10.4268293, -0.3048781, -0.0459907
-1.0302734, 0.0722656, -0.0297852, -10.1219511, -10.8536587, -0.3658537, -0.0426337
-1.0302734, 0.0771484, -0.0322266, -9.9390249, -11.4634151, -0.1829268, -0.0459907
-1.0244141, 0.0722656, -0.0234375, -10, -11.6463413, 0, -0.0480049
-1.0166016, 0.0737305, -0.0244141, -9.6951218, -12.2560978, 0.3658537, -0.0476692
-1, 0.078125, -0.0136719, -10, -12.1341467, 0.7317073, -0.0412909
-0.9926758, 0.0805664, -0.0097656, -10, -11.8902445, 0.5487805, -0.0439765
-0.9936523, 0.0854492, 0.0004883, -10.060976, -11.6463413, 0.7317073, -0.0419623
-0.9838867, 0.0932617, 0.0131836, -10.3048782, -11.5853662, 0.3048781, -0.0379339
-0.9824219, 0.0961914, 0.0166016, -10.7317076, -11.8292685, 0.1219512, -0.0386053
-0.9814453, 0.0991211, 0.0141602, -10.7926836, -11.8292685, 0.1829268, -0.0386053
-0.9833984, 0.0952148, 0.0136719, -11.219512, -12.3780489, -0.0609756, -0.0365911
-0.9873047, 0.090332, 0.019043, -11.1585369, -12.1951218, -0.0609756, -0.0332341
-0.9853516, 0.0844727, 0.0195312, -11.341464, -12.0731707, 0, -0.03122
-0.9926758, 0.0761719, 0.0087891, -11.341464, -12.1341467, 0.0609756, -0.0318914
-0.9946289, 0.0727539, 0.0068359, -11.341464, -12.0121956, -0.3048781, -0.0352483
-0.996582, 0.0673828, 0.0024414, -11.341464, -12.0731707, -0.1219512, -0.0365911
-1.003418, 0.0678711, -0.0029297, -10.6097565, -12.2560978, 0.0609756, -0.035584
-1.0014648, 0.0673828, -0.0092773, -10.3658543, -12.3170738, 0.5487805, -0.0379339
-1.003418, 0.0625, -0.019043, -10.4268293, -12.2560978, 0.6097561, -0.0439765
-1.0092773, 0.0634766, -0.0205078, -9.6951218, -12.4390249, 0.7317073, -0.0446479
-1.0092773, 0.0581055, -0.0253906, -9.6951218, -12.6219511, 0.6707317, -0.0406195
-1.0126953, 0.0585938, -0.0249023, -8.780488, -12.7439032, 0.6707317, -0.0342412
-1.0151367, 0.0556641, -0.0336914, -8.841464, -12.6829271, 0.9756098, -0.0318914
-1.0151367, 0.0556641, -0.0332031, -8.1707315, -12.8658543, 1.3414634, -0.0332341
-1.015625, 0.0561523, -0.0375977, -7.9268293, -12.9878054, 1.7073171, -0.0339055
-1.0195312, 0.0610352, -0.0361328, -7.5, -13.2317076, 2.1341465, -0.0325628
-1.0195312, 0.0664062, -0.0424805, -6.9512196, -13.4756098, 2.3780489, -0.027863
-1.019043, 0.0712891, -0.0429688, -6.4634147, -13.6585369, 2.2560976, -0.0275273
-1.015625, 0.0751953, -0.0424805, -5.9756098, -14.0243902, 2.1341465, -0.0224918
-1.0161133, 0.0820312, -0.0458984, -6.0365853, -14.0853662, 2.3170731, -0.024506
-1.0131836, 0.0854492, -0.0439453, -6.0975609, -14.4512196, 2.804878, -0.0298772
-1.0068359, 0.081543, -0.0380859, -5.9756098, -15.1219511, 2.9878049, -0.0369268
-1.0014648, 0.0795898, -0.0385742, -5.9756098, -15.3658543, 2.9268293, -0.0446479
-0.9946289, 0.081543, -0.0424805, -5.7317076, -15, 2.9268293, -0.0433051
-0.9946289, 0.0766602, -0.0410156, -6.1585369, -14.5731707, 2.7439024, -0.0406195
-0.9912109, 0.0805664, -0.0390625, -6.5853658, -14.7560978, 2.5609756, -0.0339055
-0.9921875, 0.0800781, -0.0351562, -6.7682929, -14.6341467, 2.5, -0.0318914
-0.9946289, 0.0874023, -0.0332031, -6.9512196, -14.6951227, 2.6219513, -0.0342412
-0.9980469, 0.0898438, -0.0302734, -7.3170733, -14.8170738, 2.6829269, -0.0325628
-0.996582, 0.0917969, -0.0200195, -7.5, -14.6951227, 2.5609756, -0.0379339
-0.9936523, 0.0913086, -0.0161133, -7.8658538, -14.6341467, 2.6219513, -0.0392767
-0.9931641, 0.090332, -0.0112305, -7.8048782, -14.5121956, 2.6829269, -0.035584
-0.9902344, 0.0874023, -0.0063477, -7.9878049, -14.5731707, 2.7439024, -0.0365911
-0.9887695, 0.0805664, -0.0068359, -7.8658538, -14.5731707, 2.8658538, -0.0359197
-0.9892578, 0.0712891, -0.0136719, -7.8658538, -14.4512196, 2.804878, -0.0352483
-0.9863281, 0.0673828, -0.0112305, -7.8658538, -14.4512196, 2.9268293, -0.0365911
-0.9902344, 0.0649414, -0.0102539, -8.1097565, -14.2073174, 2.9878049, -0.0332341
-0.9990234, 0.0698242, -0.0092773, -7.6219516, -13.780488, 2.9878049, -0.0379339
-0.996582, 0.078125, -0.0175781, -7.3780489, -13.9634151, 2.8658538, -0.0406195
-1.0029297, 0.0834961, -0.0239258, -7.1951222, -13.9634151, 2.6219513, -0.0352483
-1.0063477, 0.0878906, -0.0302734, -7.1951222, -13.6585369, 3.3536587, -0.0352483
-1.019043, 0.0839844, -0.0249023, -7.6219516, -13.841464, 3.3536587, -0.0339055
-1.0175781, 0.0825195, -0.0297852, -7.2560978, -14.0853662, 3.2926829, -0.0419623
-1.0180664, 0.0766602, -0.0351562, -7.3780489, -14.3292685, 3.1097562, -0.0406195
-1.0205078, 0.078125, -0.0390625, -7.4390244, -14.5731707, 3.1707318, -0.0339055
-1.019043, 0.078125, -0.0400391, -7.5609756, -14.6341467, 3.3536587, -0.0339055
-1.0229492, 0.0786133, -0.0400391, -7.1951222, -15.060976, 3.8414636, -0.0379339
-1.0146484, 0.0742188, -0.0429688, -7.1951222, -14.9390249, 4.0853658, -0.0412909
-1.015625, 0.0708008, -0.0483398, -7.1341467, -14.6951227, 3.8414636, -0.0449836
-1.0161133, 0.0766602, -0.0454102, -7.4390244, -14.5121956, 4.1463413, -0.0463264
-1.0039062, 0.0791016, -0.0385742, -7.5609756, -14.3292685, 3.9634147, -0.0446479
-1.0102539, 0.0859375, -0.0410156, -7.7439027, -14.1463413, 4.5731707, -0.0446479
-1.0107422, 0.0898438, -0.0395508, -8.0487804, -14.1463413, 4.5121951, -0.0419623
-1.012207, 0.0908203, -0.0371094, -8.4756098, -14.0853662, 4.4512196, -0.042298
-1.0073242, 0.090332, -0.0341797, -8.6585369, -14.2073174, 4.5731707, -0.0446479
-1.0048828, 0.0844727, -0.0361328, -9.1463413, -13.9634151, 4.390244, -0.0459907
-1.003418, 0.0800781, -0.0209961, -9.4512196, -13.9024391, 4.1463413, -0.0379339
-1.0048828, 0.0712891, -0.0126953, -9.6341467, -13.4146347, 4.2073174, -0.0443122
-1.0161133, 0.0600586, -0.0014648, -9.5121956, -13.4756098, 4.2073174, -0.0446479
-1.0219727, 0.0639648, -0.0043945, -8.719512, -13.841464, 4.5121951, -0.0473335
-1.0307617, 0.0649414, -0.0205078, -8.4146347, -13.841464, 4.390244, -0.0433051
-1.0297852, 0.0673828, -0.0288086, -8.780488, -13.5975609, 4.5121951, -0.0406195
-1.0336914, 0.0693359, -0.0327148, -8.719512, -13.5975609, 4.5731707, -0.0419623
-1.0332031, 0.0737305, -0.0371094, -8.9634151, -13.7195129, 4.7560978, -0.0439765
-1.0322266, 0.0742188, -0.0356445, -8.4756098, -13.841464, 4.8780489, -0.0459907
-1.03125, 0.078125, -0.0332031, -8.2317076, -13.841464, 5, -0.0426337
-1.0263672, 0.0805664, -0.0327148, -8.1707315, -13.9634151, 5.1219511, -0.0449836
-1.0224609, 0.0854492, -0.0288086, -7.8658538, -14.0243902, 5.1829271, -0.0486763
-1.0200195, 0.0849609, -0.0258789, -7.9268293, -14.0243902, 5.609756, -0.0473335
-1.0117188, 0.090332, -0.0200195, -7.7439027, -14.0243902, 5.670732, -0.0453193
-1.0112305, 0.0874023, -0.0229492, -7.7439027, -13.9024391, 5.5487804, -0.0449836
-1.0107422, 0.090332, -0.0209961, -7.5609756, -14.0853662, 5.1829271, -0.0466621
-1.015625, 0.0917969, -0.0166016, -7.7439027, -14.0243902, 4.9390244, -0.0473335
-1.0214844, 0.090332, -0.015625, -7.6219516, -13.5975609, 4.7560978, -0.0500191
-1.0273438, 0.0830078, -0.0161133, -7.6829271, -13.2926836, 4.8780489, -0.0466621
-1.0307617, 0.0825195, -0.0185547, -7.6829271, -13.7195129, 5.0609756, -0.0513619
-1.0268555, 0.081543, -0.0219727, -7.8048782, -13.9024391, 5.1829271, -0.0513619
-1.0224609, 0.0771484, -0.0200195, -7.7439027, -13.3536587, 5.3048782, -0.0459907
-1.0234375, 0.0698242, -0.0131836, -8.0487804, -13.2926836, 5.0609756, -0.0486763
-1.0229492, 0.0664062, -0.0078125, -7.6219516, -13.1097565, 5.3048782, -0.0486763
-1.0229492, 0.0605469, -0.0083008, -7.2560978, -12.9878054, 5.3658538, -0.0493477
-1.0219727, 0.0576172, -0.0087891, -6.7073174, -12.8658543, 5.3048782, -0.0433051
-1.0219727, 0.0571289, -0.0073242, -6.4634147, -12.8048782, 5.5487804, -0.0426337
-1.0249023, 0.0541992, -0.0009766, -5.670732, -12.8048782, 5.7317076, -0.0473335
-1.0244141, 0.0537109, -0.0019531, -5.3048782, -12.9268293, 5.5487804, -0.0446479
-1.0288086, 0.0522461, -0.0073242, -5.2439027, -12.9878054, 5.4878049, -0.0473335
-1.0332031, 0.0498047, -0.0083008, -4.9390244, -13.2317076, 5.609756, -0.0486763
-1.0297852, 0.0493164, -0.0078125, -4.6951222, -12.9268293, 5.9756098, -0.0436408
-1.0258789, 0.0527344, -0.0078125, -4.5731707, -13.1097565, 6.280488, -0.042298
-1.019043, 0.0561523, -0.0136719, -4.390244, -13.2926836, 6.280488, -0.0439765
-1.0146484, 0.0571289, -0.0195312, -4.390244, -13.2317076, 6.8292685, -0.0459907
-1.012207, 0.0629883, -0.0170898, -4.390244, -13.4756098, 6.5243902, -0.0412909
-1.0087891, 0.0634766, -0.015625, -3.9024391, -13.7195129, 6.4634147, -0.0433051
-1.0009766, 0.0717773, -0.0200195, -3.9024391, -13.7195129, 6.5243902, -0.0419623
-0.9941406, 0.0786133, -0.0229492, -4.1463413, -13.6585369, 6.4024391, -0.0513619
-0.9931641, 0.0830078, -0.0219727, -4.3292685, -13.4756098, 6.5853658, -0.0540475
-0.9956055, 0.0922852, -0.0209961, -4.5731707, -13.4146347, 6.280488, -0.0513619
-0.9946289, 0.0957031, -0.0195312, -5.1829271, -13.2926836, 5.8536587, -0.0406195
-1.0048828, 0.1000977, -0.0219727, -5.2439027, -13.4756098, 5.4878049, -0.0446479
-1.0078125, 0.1005859, -0.0195312, -5.1829271, -13.4146347, 5.3658538, -0.0433051
-1.0180664, 0.097168, -0.0151367, -5.3048782, -13.2926836, 5.1829271, -0.0406195
-1.0229492, 0.0957031, -0.0151367, -5.7926831, -13.5365858, 5.1219511, -0.0433051
-1.027832, 0.0805664, -0.0151367, -5.7926831, -13.7195129, 5.3048782, -0.0433051
-1.03125, 0.0698242, -0.019043, -5.4268293, -13.7195129, 5.2439027, -0.0433051
-1.0371094, 0.0541992, -0.0166016, -5.1219511, -13.841464, 5.1219511, -0.0486763
-1.0341797, 0.0361328, -0.0092773, -4.6951222, -14.0243902, 5.4268293, -0.0446479
-1.0336914, 0.0336914, -0.0087891, -4.0243902, -14.0243902, 5.7317076, -0.0406195
-1.0297852, 0.027832, -0.0170898, -3.5975611, -13.780488, 6.0365853, -0.0406195
-1.0288086, 0.0288086, -0.0161133, -2.3170731, -14.0243902, 6.6463418, -0.0426337
-1.0209961, 0.0307617, -0.0107422, -1.8902439, -13.7195129, 7.0121951, -0.0406195
-1.019043, 0.0288086, -0.0078125, -0.4268293, -13.7195129, 7.1341467, -0.0365911
-1.0224609, 0.0205078, 0.0043945, 0.6097561, -13.7195129, 7.7439027, -0.0382696
-1.0234375, 0.0200195, 0.0068359, 1.8902439, -13.841464, 7.6219516, -0.0365911
-1.0200195, 0.0087891, 0.0068359, 2.5609756, -13.9024391, 7.9268293, -0.03122
-1.019043, 0.0087891, 0.0078125, 3.4756098, -14.0853662, 8.1707315, -0.0365911
-1.0141602, 0.0078125, 0.0039062, 4.6951222, -14.5121956, 8.6585369, -0.0399481
-1.0112305, 0.0234375, -0.0039062, 5.1829271, -14.4512196, 8.6585369, -0.0318914
-1.003418, 0.0336914, -0.0058594, 5.7926831, -14.3902445, 9.5121956, -0.0345769
-0.9931641, 0.0546875, 0.0043945, 5.7926831, -14.2073174, 9.5121956, -0.0412909
-0.9892578, 0.0688477, 0.0083008, 5.7926831, -14.4512196, 8.841464, -0.0446479
-0.9926758, 0.0893555, 0.0097656, 6.1585369, -14.6951227, 8.841464, -0.0382696
-0.9916992, 0.1005859, 0.0068359, 5.5487804, -14.5121956, 8.780488, -0.0433051
-0.9931641, 0.1147461, 0.0024414, 5.1219511, -14.3292685, 9.0853662, -0.0386053
-0.9897461, 0.1132812, 0.0053711, 4.3292685, -14.5731707, 8.841464, -0.0419623
-0.9921875, 0.1157227, 0.0087891, 3.5975611, -14.7560978, 8.5975609, -0.0473335
-0.9926758, 0.1181641, 0.0131836, 2.7439024, -14.8780489, 7.9268293, -0.0459907
-1.0014648, 0.1030273, 0.0170898, 2.6219513, -14.6951227, 7.9268293, -0.0406195
-1.0073242, 0.0917969, 0.0126953, 2.5609756, -14.7560978, 7.7439027, -0.0399481
-1.0063477, 0.081543, 0.0087891, 2.195122, -14.9390249, 8.0487804, -0.0406195
-1.0102539, 0.0654297, 0.0078125, 2.1341465, -14.9390249, 7.8048782, -0.0406195
-1.0126953, 0.0556641, 0.0078125, 2.9878049, -14.8170738, 7.5609756, -0.0412909
-1.0136719, 0.0356445, 0.0229492, 3.5975611, -15.060976, 7.8658538, -0.0439765
-1.0146484, 0.0258789, 0.0327148, 5.5487804, -14.8780489, 8.6585369, -0.0459907
-1.0166016, 0.0131836, 0.0356445, 6.5853658, -15.060976, 9.2073174, -0.0433051
-1.0117188, 0.0004883, 0.0351562, 8.5365858, -15.4268293, 9.8780489, -0.0426337
-1.0117188, -0.0166016, 0.0297852, 9.0853662, -15.4268293, 10, -0.0382696
-1.0087891, -0.0253906, 0.0307617, 10.3658543, -16.1585369, 10.3658543, -0.0386053
-1.0107422, -0.027832, 0.0263672, 12.1341467, -16.5243912, 11.219512, -0.0426337
-1.0063477, -0.0141602, 0.0166016, 13.2317076, -16.4024391, 11.5853662, -0.0433051
-1.0019531, -0.0063477, 0.0126953, 15, -16.7073174, 11.9512196, -0.0359197
-0.9946289, 0.0161133, 0.0043945, 15.4268293, -16.5243912, 12.1951218, -0.0339055
-0.9931641, 0.0283203, 0.0019531, 16.280489, -17.3780499, 12.1951218, -0.0392767
-0.987793, 0.046875, -0.0068359, 16.4024391, -17.9268303, 12.3170738, -0.0396124
-0.9897461, 0.0522461, -0.0058594, 16.4634151, -18.3536587, 13.1707315, -0.0433051
-0.9848633, 0.0556641, 0.0048828, 17.2560978, -19.0243912, 13.6585369, -0.0433051
-0.9790039, 0.0512695, 0.0068359, 19.4512196, -19.939024, 14.7560978, -0.0436408
-0.9643555, 0.0361328, -0.0053711, 19.6341476, -20.1219521, 14.8780489, -0.0473335
-0.9584961, 0.0302734, -0.0166016, 19.4512196, -20.4878044, 14.7560978, -0.0436408
-0.956543, 0.0224609, -0.0288086, 18.4146347, -21.3414631, 14.1463413, -0.0486763
-0.9550781, 0.0317383, -0.0288086, 17.8048782, -22.0121956, 13.841464, -0.0473335
-0.9575195, 0.0429688, -0.0317383, 17.3780499, -22.8658543, 13.9634151, -0.0459907
-0.9624023, 0.0625, -0.0175781, 17.8658543, -23.3536587, 13.9634151, -0.0399481
-0.9663086, 0.0639648, -0.0083008, 19.8170738, -24.4512196, 13.4146347, -0.0399481
-0.9794922, 0.0683594, 0.0048828, 20.8536587, -25, 13.4756098, -0.0459907
-0.9902344, 0.0600586, 0.0141602, 21.8292694, -25.8536587, 13.5365858, -0.0473335
-1.0063477, 0.0478516, 0.0209961, 22.3780499, -26.280489, 13.5365858, -0.0433051
-1.0097656, 0.0395508, 0.0239258, 24.1463413, -27.6219521, 13.9634151, -0.049012
-1.0161133, 0.0263672, 0.0141602, 25, -27.8048782, 14.2682934, -0.0500191
-1.0175781, 0.0200195, 0.0112305, 26.2195129, -28.7195129, 14.8170738, -0.0476692
-1.0263672, 0.0019531, 0.012207, 28.1707325, -29.9390259, 15.2439032, -0.0500191
-1.0302734, -0.0288086, 0.0151367, 29.8780499, -30.4878063, 15.5487804, -0.0473335
-1.0302734, -0.0419922, 0.0219727, 34.0243912, -31.7073174, 16.280489, -0.0436408
-1.0214844, -0.0595703, 0.0405273, 36.2195129, -32.1951218, 17.439024, -0.0439765
-1.0151367, -0.0654297, 0.0493164, 40.4268303, -32.9268303, 18.8414631, -0.0459907
-1.0068359, -0.0600586, 0.0629883, 42.2560997, -33.3536606, 19.0853672, -0.0520333
-1.0053711, -0.0458984, 0.0664062, 45.6707344, -34.2073174, 20.1219521, -0.0493477
-0.9990234, -0.0043945, 0.0678711, 47.5609779, -34.6951218, 20.3658543, -0.0520333
-0.9975586, 0.0185547, 0.0625, 51.0975609, -35.4268303, 21.2195129, -0.0594186
-0.996582, 0.0644531, 0.0410156, 53.0487823, -35.6097565, 21.5243912, -0.0503548
-0.9946289, 0.0874023, 0.0292969, 54.3292694, -35.7317085, 22.0121956, -0.0506905
-0.9819336, 0.1132812, 0.0214844, 53.1097565, -36.6463432, 22.560976, -0.0486763
-0.9794922, 0.1176758, 0.0361328, 52.6829262, -37.7439041, 22.1951218, -0.0486763
-0.980957, 0.1157227, 0.0375977, 52.0731735, -39.7560997, 22.0121956, -0.0473335
-0.9707031, 0.0942383, 0.0444336, 51.5853653, -40.7317085, 21.7682934, -0.0500191
-0.9672852, 0.0820312, 0.0454102, 52.1341476, -40.6707344, 21.0365868, -0.0513619
-0.9589844, 0.0776367, 0.0307617, 52.9268303, -40.2439041, 20.8536587, -0.0473335
-0.9692383, 0.0800781, 0.0390625, 52.9878044, -41.1585388, 20.9146347, -0.0463264
-0.972168, 0.1025391, 0.0537109, 53.5365868, -42.2560997, 21.0975609, -0.0446479
-0.9692383, 0.1098633, 0.0576172, 55.9146347, -43.841465, 21.9512196, -0.0466621
-0.9755859, 0.09375, 0.1010742, 57.9878044, -44.2073174, 22.1341476, -0.0426337
-0.9775391, 0.0771484, 0.1083984, 61.4634171, -44.6951218, 21.4024391, -0.0433051
-0.9887695, 0.0463867, 0.1054688, 63.2926826, -46.0975609, 20.2439022, -0.0446479
-1.0068359, 0.0371094, 0.121582, 64.3902435, -46.2804871, 19.3292694, -0.0436408
-1.0170898, 0.0512695, 0.1313477, 68.7195129, -46.4024391, 19.0243912, -0.0513619
-1.0478516, 0.1000977, 0.1318359, 70.7317123, -46.2195129, 19.4512196, -0.0473335
-1.0600586, 0.1357422, 0.1201172, 73.2317123, -46.6463432, 21.7073174, -0.0443122
-1.0561523, 0.1860352, 0.09375, 73.4146347, -47.0731735, 22.560976, -0.0446479
-1.046875, 0.1948242, 0.09375, 72.5609741, -48.4146347, 22.6829281, -0.0486763
-1.0371094, 0.1865234, 0.105957, 72.5609741, -48.9024391, 22.3170738, -0.0466621
-1.0317383, 0.1831055, 0.1035156, 72.4390259, -49.8780518, 21.1585369, -0.049012
-1.0283203, 0.1845703, 0.1000977, 72.3170776, -50.0609779, 20.9146347, -0.0486763
-1.0200195, 0.1899414, 0.0991211, 72.5, -50.9146347, 21.5853672, -0.0453193
-1.0043945, 0.1811523, 0.1030273, 75.3048782, -51.7073174, 22.7439022, -0.0466621
-0.9956055, 0.1655273, 0.1166992, 77.0121994, -52.1951218, 22.6219521, -0.0463264
-0.9853516, 0.1577148, 0.1201172, 79.0853653, -52.2560997, 21.4024391, -0.0486763
-0.9750977, 0.1523438, 0.1210938, 78.9024429, -51.9512215, 20.7317085, -0.0449836
-0.9848633, 0.1591797, 0.1191406, 78.8414688, -52.1951218, 19.5121956, -0.0500191
-0.9946289, 0.1904297, 0.1049805, 78.4756088, -51.9512215, 19.4512196, -0.0399481
-0.9990234, 0.2119141, 0.1088867, 76.7682953, -51.1585388, 19.939024, -0.0352483
-1.019043, 0.2285156, 0.1430664, 76.3414688, -51.5853653, 20.3048782, -0.0396124
-1.0200195, 0.2294922, 0.1503906, 77.5, -52.8658562, 20.060976, -0.0359197
-1.0136719, 0.2036133, 0.168457, 78.7804871, -53.7804909, 19.6341476, -0.0365911
-1.0107422, 0.1826172, 0.1767578, 83.1707306, -54.4512215, 18.1097565, -0.0409552
-1.0063477, 0.1503906, 0.184082, 84.5121994, -54.8170738, 17.0731716, -0.0419623
-1.0039062, 0.1308594, 0.1723633, 85, -54.3902435, 16.3414631, -0.035584
-1.0053711, 0.1293945, 0.159668, 85.4878082, -54.0243912, 17.2560978, -0.0399481
-0.9990234, 0.1411133, 0.1235352, 84.9390259, -53.4146347, 17.560976, -0.0426337
-1.0019531, 0.152832, 0.1108398, 84.2073212, -52.6829262, 19.0853672, -0.0513619
-0.9863281, 0.1728516, 0.1152344, 83.6585388, -52.4390259, 19.3292694, -0.0473335
-0.9785156, 0.1767578, 0.1240234, 84.2073212, -52.6219521, 19.0853672, -0.0396124
-0.9755859, 0.2026367, 0.1083984, 83.4756088, -52.6829262, 18.4756107, -0.0443122
-0.9780273, 0.2216797, 0.0908203, 79.8780518, -53.0487823, 17.8658543, -0.0500191
-0.9755859, 0.2353516, 0.0805664, 77.8048782, -53.2926826, 18.0487804, -0.0473335
-0.972168, 0.2368164, 0.0986328, 76.2804871, -54.2073174, 18.4756107, -0.0449836
-0.9570312, 0.2290039, 0.1293945, 76.2195129, -54.3902435, 17.3780499, -0.0486763
-0.9516602, 0.2119141, 0.1328125, 75.7926865, -53.9024391, 16.7073174, -0.0459907
-0.9584961, 0.2124023, 0.1308594, 75, -53.0487823, 15.4878054, -0.0426337
-0.972168, 0.2231445, 0.1313477, 74.2073212, -53.2317085, 15.3658543, -0.0412909
-0.9765625, 0.2304688, 0.1293945, 73.7804871, -53.7804909, 15.4878054, -0.0493477
-0.9902344, 0.2285156, 0.1396484, 75.4878082, -53.841465, 15.4878054, -0.0466621
-0.9975586, 0.2250977, 0.1347656, 78.9024429, -54.0243912, 15.5487804, -0.0412909
-1.0048828, 0.2060547, 0.1206055, 79.9390259, -53.9024391, 15.6097565, -0.0379339
-1.0146484, 0.1977539, 0.1176758, 80.7926865, -53.7804909, 14.9390249, -0.035584
-1.0200195, 0.1826172, 0.1303711, 80.6707306, -54.0243912, 14.8170738, -0.0379339
-1.027832, 0.1835938, 0.1381836, 81.3414688, -53.841465, 15.3048782, -0.0439765
-1.0288086, 0.1928711, 0.140625, 82.68293, -53.2926826, 16.5243912, -0.0463264
-1.0244141, 0.2026367, 0.1206055, 82.9878082, -53.0487823, 17.0121956, -0.0426337
-1.0170898, 0.2001953, 0.1137695, 83.6585388, -53.1707344, 17.1341476, -0.0446479
-1.0048828, 0.1933594, 0.1225586, 84.0243912, -53.1707344, 16.8292694, -0.0419623
-0.9970703, 0.1938477, 0.1313477, 86.4634171, -53.5365868, 16.2195129, -0.0466621
-0.9838867, 0.1972656, 0.1352539, 87.7439041, -53.1707344, 16.1585369, -0.0486763
-0.9785156, 0.2011719, 0.1279297, 89.5121994, -51.7682953, 15.9146347, -0.0486763
-0.96875, 0.2128906, 0.1303711, 89.8780518, -51.5243912, 16.1585369, -0.0426337
-0.96875, 0.2216797, 0.1391602, 89.6951218, -50.9146347, 16.280489, -0.0433051
-0.9658203, 0.2514648, 0.1455078, 89.8170776, -50.8536606, 16.4634151, -0.0446479
-0.9604492, 0.2675781, 0.1484375, 89.8780518, -50.6097565, 15.8536587, -0.0459907
-0.9594727, 0.2719727, 0.15625, 90.3048782, -50, 15.1829271, -0.0459907
-0.9570312, 0.2612305, 0.1831055, 90.7926865, -50, 14.3292685, -0.0516976
-0.9584961, 0.2514648, 0.1889648, 92.8658524, -50.1219521, 12.9878054, -0.0540475
-0.9638672, 0.230957, 0.2060547, 93.9634171, -49.8780518, 12.3170738, -0.0560616
-0.9628906, 0.2241211, 0.2138672, 95.7317123, -48.4146347, 11.7682934, -0.056733
-0.9736328, 0.2177734, 0.2353516, 97.0121994, -48.2317085, 11.0975609, -0.056733
-0.9785156, 0.2182617, 0.2397461, 101.7682953, -47.8658562, 10.7317076, -0.0553902
-0.9770508, 0.2299805, 0.2387695, 103.4756088, -47.0121956, 10.6097565, -0.0527047
-0.9746094, 0.2397461, 0.2299805, 105.8536606, -44.5121956, 10.4268293, -0.0513619
-0.9780273, 0.2558594, 0.2016602, 106.646347, -43.7195129, 9.6951218, -0.0486763
-0.9770508, 0.2509766, 0.1411133, 106.7682953, -42.5, 9.3902445, -0.0439765
-0.9711914, 0.2470703, 0.1152344, 106.2804871, -40.8536606, 9.2073174, -0.0476692
-0.965332, 0.2241211, 0.0810547, 105.9146347, -40.3048782, 8.9634151, -0.0446479
-0.9633789, 0.2099609, 0.0722656, 105.5487823, -39.0243912, 9.0853662, -0.0453193
-0.9545898, 0.159668, 0.0825195, 105.8536606, -39.3292694, 8.9024391, -0.0433051
-0.9482422, 0.1391602, 0.109375, 109.6341476, -38.7195129, 8.9634151, -0.0392767
-0.940918, 0.1289062, 0.144043, 112.2561035, -38.2926826, 8.9634151, -0.0459907
-0.9423828, 0.1416016, 0.1430664, 116.0975647, -37.0121956, 9.0853662, -0.0419623
-0.9423828, 0.1704102, 0.1098633, 117.0731735, -36.4634171, 9.7560978, -0.0406195
-0.9379883, 0.1860352, 0.1054688, 117.68293, -36.2195129, 10.7926836, -0.0365911
-0.9277344, 0.2045898, 0.1137695, 118.6585388, -36.2804871, 10.7926836, -0.0352483
-0.9204102, 0.2236328, 0.0883789, 121.0365906, -36.0975609, 9.3902445, -0.0365911
-0.9282227, 0.2329102, 0.0737305, 121.9512253, -34.8170738, 7.7439027, -0.0359197
-0.9477539, 0.2539062, 0.0366211, 121.9512253, -34.2682953, 7.5, -0.0365911
-0.9584961, 0.2661133, 0.0166016, 122.0731735, -34.0243912, 6.890244, -0.0392767
-0.9750977, 0.269043, -0.0288086, 122.1951218, -34.3902435, 6.7682929, -0.0392767
-0.9790039, 0.2641602, -0.0454102, 121.9512253, -35.1219521, 7.0121951, -0.042298
-0.9902344, 0.2373047, -0.0546875, 121.7073212, -35.3658562, 6.890244, -0.0379339
-0.9907227, 0.2241211, -0.0507812, 121.4634171, -36.0975609, 7.5, -0.0332341
-0.9902344, 0.2036133, -0.0317383, 121.8902435, -36.0365868, 7.2560978, -0.0365911
-0.9873047, 0.1958008, -0.0175781, 123.2317123, -36.7682953, 7.3780489, -0.0379339
-0.9804688, 0.1923828, 0.003418, 124.3292694, -37.1341476, 7.5, -0.0352483
-0.9746094, 0.2041016, 0.0131836, 126.1585388, -37.1951218, 7.8048782, -0.0386053
-0.9672852, 0.2036133, 0.0185547, 128.2926788, -37.1951218, 7.5609756, -0.0399481
-0.9604492, 0.2094727, 0.0175781, 129.0243988, -37.4390259, 7.0731707, -0.0473335
-0.9584961, 0.2133789, 0.012207, 129.5731812, -37.7439041, 6.5243902, -0.0406195
-0.9545898, 0.2177734, 0.0014648, 128.9634247, -37.7439041, 6.2195125, -0.0359197
-0.9536133, 0.2163086, 0.0019531, 128.0487823, -37.4390259, 5.9146342, -0.0386053
-0.9570312, 0.2324219, -0.0039062, 127.8048782, -37.3170738, 5.9756098, -0.0406195
-0.9619141, 0.2338867, -0.0009766, 127.5609818, -36.5853653, 5.7926831, -0.0486763
-0.965332, 0.2363281, 0.0053711, 127.6219559, -36.5243912, 5.7926831, -0.0446479
-0.9658203, 0.234375, 0.0180664, 128.9024353, -36.5243912, 5.7317076, -0.0399481
-0.965332, 0.2207031, 0.0375977, 130.36586, -35.9756088, 5.5487804, -0.0453193
-0.9628906, 0.1982422, 0.0483398, 130.9756165, -35.5487823, 5.4268293, -0.0516976
-0.9633789, 0.1918945, 0.0498047, 131.7682953, -35.1829262, 4.9390244, -0.0527047
-0.9624023, 0.1831055, 0.0449219, 132.0121918, -34.8170738, 5.2439027, -0.0493477
-0.9658203, 0.1850586, 0.0444336, 131.7073212, -33.7804871, 5.609756, -0.0419623
-0.965332, 0.1928711, 0.0366211, 131.7073212, -32.6829262, 5.5487804, -0.0406195
-0.9648438, 0.1987305, 0.0327148, 131.0975647, -31.8902454, 6.3414636, -0.0406195
-0.9633789, 0.2075195, 0.0078125, 130.5487823, -31.6463413, 6.280488, -0.0396124
-0.9619141, 0.222168, 0.0014648, 129.6341553, -31.2195129, 6.4634147, -0.0392767
-0.9584961, 0.2421875, -0.0087891, 129.0853729, -30.7317085, 6.5853658, -0.0379339
-0.9584961, 0.2553711, -0.0097656, 128.5975647, -29.8780499, 6.280488, -0.0352483
-0.9624023, 0.2802734, -0.015625, 127.68293, -28.9634151, 6.1585369, -0.0419623
-0.9599609, 0.2998047, -0.0107422, 127.1951218, -28.5365868, 6.280488, -0.0399481
-0.9604492, 0.3081055, -0.0024414, 125.4268341, -28.2317085, 5.9146342, -0.0386053
-0.9638672, 0.3056641, 0.0131836, 124.6341476, -28.1097565, 5.9756098, -0.0409552
-0.9624023, 0.2983398, 0.0209961, 124.7561035, -27.4390259, 5.9756098, -0.0372625
-0.9541016, 0.2675781, 0.0229492, 125, -27.1951218, 5.7926831, -0.0409552
-0.953125, 0.2460938, 0.0234375, 124.9390259, -26.0975609, 5.4878049, -0.0399481
-0.9511719, 0.2133789, 0.034668, 124.5731735, -25.6707325, 5.3048782, -0.0332341
-0.9541016, 0.1958008, 0.0405273, 123.7804871, -25.060976, 5.2439027, -0.0339055
-0.9589844, 0.1787109, 0.0400391, 123.6585388, -24.6341476, 5.4268293, -0.0365911
-0.9575195, 0.1767578, 0.0341797, 123.5975647, -23.4146347, 5.5487804, -0.0339055
-0.9633789, 0.1826172, 0.0185547, 123.0487823, -22.0121956, 5.609756, -0.027863
-0.9702148, 0.2016602, -0.0019531, 122.68293, -21.5853672, 5.2439027, -0.0339055
-0.9726562, 0.2109375, -0.0141602, 121.4634171, -20.9756107, 5.3048782, -0.0379339
-0.9702148, 0.2397461, -0.0229492, 120.6097565, -20.5487804, 5.3658538, -0.0352483
-0.9736328, 0.2514648, -0.0244141, 118.5365906, -19.8780499, 5.9146342, -0.0359197
-0.9765625, 0.2788086, -0.015625, 117.7439041, -19.5731716, 5.9756098, -0.0419623
-0.9760742, 0.2919922, -0.0092773, 116.4024429, -19.3292694, 6.280488, -0.0439765
-0.9677734, 0.2973633, 0.0039062, 116.0365906, -18.9634151, 6.2195125, -0.035584
-0.9663086, 0.3017578, 0.0058594, 115.0609818, -18.3536587, 5.670732, -0.0412909
-0.9628906, 0.2924805, 0.0024414, 114.2073212, -17.8048782, 5.3658538, -0.0409552
-0.9633789, 0.2949219, 0.0024414, 111.5243912, -16.5853653, 4.390244, -0.0406195
-0.9609375, 0.3046875, -0.0053711, 108.0487823, -15.3048782, 3.7195122, -0.0433051
-0.9643555, 0.309082, -0.0234375, 106.5243912, -14.6341467, 3.7195122, -0.0473335
-0.9609375, 0.3105469, -0.03125, 102.5609818, -13.2317076, 3.9024391, -0.0486763
-0.9599609, 0.3154297, -0.0302734, 100.1219559, -12.7439032, 3.9634147, -0.0473335
-0.9575195, 0.3066406, -0.0229492, 97.5, -11.9512196, 3.8414636, -0.0459907
-0.9511719, 0.2851562, -0.0073242, 96.8292694, -11.7682934, 3.8414636, -0.0473335
-0.9511719, 0.2700195, 0, 95.3658524, -10.7317076, 3.8414636, -0.0439765
-0.940918, 0.2363281, 0.012207, 94.6951218, -10.3048782, 4.0243902, -0.0453193
-0.9404297, 0.2236328, 0.0185547, 93.1707306, -8.841464, 3.5365853, -0.0453193
-0.9438477, 0.2143555, 0.0239258, 92.68293, -8.2926826, 3.2317073, -0.0399481
-0.9472656, 0.2143555, 0.0161133, 91.8292694, -7.1341467, 2.4390244, -0.0392767
-0.9555664, 0.2304688, 0.003418, 90.5487823, -5.9146342, 1.7682927, -0.0386053
-0.9692383, 0.2548828, -0.0141602, 90, -5.9146342, 1.9512196, -0.0419623
-0.9726562, 0.2714844, -0.0219727, 88.9024429, -5.2439027, 2.1341465, -0.0480049
-0.9760742, 0.2856445, -0.0400391, 88.4756088, -4.8780489, 1.9512196, -0.0439765
-0.9731445, 0.2851562, -0.0576172, 87.8048782, -5, 1.8292683, -0.0396124
-0.9741211, 0.2788086, -0.0771484, 87.1341476, -5.0609756, 1.4634147, -0.0406195
-0.9750977, 0.2749023, -0.081543, 85.4268341, -5.7317076, 0.7926829, -0.0446479
-0.9829102, 0.2749023, -0.1005859, 84.4512253, -6.0365853, 0.6707317, -0.0399481
-0.9848633, 0.2822266, -0.1152344, 83.3536606, -6.1585369, 0.8536586, -0.0386053
-0.9873047, 0.2978516, -0.1508789, 83.1097565, -6.1585369, 0.6097561, -0.0365911
-0.9916992, 0.3081055, -0.1635742, 82.6219559, -7.0121951, -0.4878049, -0.0352483
-1.0019531, 0.3300781, -0.175293, 81.5853653, -7.8048782, -1.5853659, -0.0392767
-1.0112305, 0.3564453, -0.1757812, 80.6707306, -7.9878049, -2.0121951, -0.0386053
-1.0097656, 0.3681641, -0.1704102, 78.4756088, -8.5975609, -1.4634147, -0.0352483
-0.996582, 0.3735352, -0.159668, 77.1341476, -8.780488, -1.402439, -0.0386053
-0.987793, 0.3706055, -0.1538086, 74.6341476, -9.6951218, -1.2804878, -0.0365911
-0.9736328, 0.3432617, -0.1137695, 73.6585388, -10.1219511, -1.3414634, -0.0369268
-0.9707031, 0.3232422, -0.0913086, 73.9024429, -10.6707315, -2.195122, -0.0433051
-0.972168, 0.2880859, -0.0537109, 74.5731735, -10.4878054, -2.6219513, -0.0486763
-0.9682617, 0.269043, -0.0400391, 76.5243912, -10, -2.9268293, -0.0473335
-0.9780273, 0.2265625, -0.0073242, 77.68293, -9.4512196, -3.1707318, -0.0379339
-0.9780273, 0.2138672, 0.0078125, 79.6951218, -8.3536587, -3.9024391, -0.0406195
-0.9916992, 0.1860352, 0.0356445, 82.0731735, -8.0487804, -4.5121951, -0.0379339
-1.0078125, 0.1757812, 0.0527344, 83.4146347, -7.5, -4.5731707, -0.0419623
-1.0170898, 0.1772461, 0.0561523, 85.6097565, -7.3170733, -4.1463413, -0.0426337
-1.0224609, 0.1894531, 0.0449219, 86.0975647, -7.5, -3.7804878, -0.0419623
-1.0175781, 0.1938477, 0.0366211, 86.9512253, -7.6219516, -2.804878, -0.042298
-1.0053711, 0.2021484, 0.0268555, 87.5609741, -7.6219516, -2.5, -0.0406195
-1.0004883, 0.2050781, 0.0234375, 89.2682953, -7.7439027, -1.2195122, -0.0433051
-0.9804688, 0.2143555, 0.0151367, 90.18293, -7.8048782, -1.0365853, -0.0439765
-0.9716797, 0.2192383, 0.0102539, 91.5853653, -7.3170733, -0.6097561, -0.042298
-0.9541016, 0.2338867, -0.0004883, 91.7682953, -6.9512196, -0.3048781, -0.0419623
-0.9453125, 0.2426758, 0.0014648, 92.4390259, -6.3414636, -0.2439024, -0.0352483
-0.9345703, 0.2514648, -0.0004883, 92.68293, -5.8536587, -0.2439024, -0.0339055
-0.9384766, 0.253418, -0.0087891, 92.4390259, -5.1829271, -0.3658537, -0.0406195
-0.9418945, 0.2573242, -0.012207, 92.9268341, -4.0243902, -0.3048781, -0.0473335
-0.9467773, 0.2617188, -0.0209961, 92.68293, -3.8414636, 0, -0.0419623
-0.9516602, 0.2631836, -0.0244141, 92.8658524, -2.8658538, 0.4878049, -0.0406195
-0.9501953, 0.2670898, -0.0361328, 92.8048782, -2.8658538, 0.7926829, -0.0392767
-0.9545898, 0.2675781, -0.0424805, 92.4390259, -2.8658538, 1.3414634, -0.0392767
-0.9575195, 0.2666016, -0.0517578, 92.3170776, -3.1097562, 1.5243902, -0.0339055
-0.9584961, 0.2714844, -0.0522461, 92.1951218, -2.9268293, 2.4390244, -0.0352483
-0.9570312, 0.2666016, -0.0429688, 93.0487823, -2.9878049, 2.9878049, -0.0328985
-0.9584961, 0.2680664, -0.0449219, 94.3902435, -3.5975611, 3.7804878, -0.0325628
-0.9482422, 0.262207, -0.0493164, 95.8536606, -3.6585367, 3.7195122, -0.0412909
-0.940918, 0.253418, -0.0576172, 95.9756088, -3.5975611, 3.7804878, -0.0412909
-0.9418945, 0.2539062, -0.0595703, 96.3414688, -3.1707318, 2.8658538, -0.0392767
-0.9482422, 0.2573242, -0.0654297, 96.3414688, -3.1097562, 2.8658538, -0.0386053
-0.953125, 0.262207, -0.065918, 97.0121994, -3.2317073, 2.6829269, -0.0369268
-0.9526367, 0.2714844, -0.0761719, 97.0731735, -3.4146342, 2.9878049, -0.0325628
-0.9545898, 0.2739258, -0.0756836, 96.7073212, -3.9634147, 3.5975611, -0.0345769
-0.9541016, 0.2749023, -0.0649414, 96.5853653, -4.3292685, 3.8414636, -0.0345769
-0.9555664, 0.2792969, -0.0654297, 97.7439041, -5.1829271, 3.4146342, -0.0288701
-0.9438477, 0.2788086, -0.0839844, 98.3536606, -5.609756, 3.5365853, -0.0332341
-0.9389648, 0.2724609, -0.0874023, 98.6585388, -6.0365853, 3.4756098, -0.0396124
-0.9350586, 0.2626953, -0.0917969, 98.4756088, -5.9756098, 2.8658538, -0.0379339
-0.9248047, 0.2666016, -0.0981445, 98.4756088, -5.9756098, 2.5609756, -0.0342412
-0.9248047, 0.2714844, -0.1088867, 98.0487823, -6.0365853, 1.4634147, -0.0352483
-0.9306641, 0.2836914, -0.125, 97.68293, -5.9146342, 1.3414634, -0.0365911
-0.9316406, 0.2866211, -0.1279297, 96.7073212, -6.3414636, 0.9146342, -0.0406195
-0.9311523, 0.2924805, -0.1269531, 96.3414688, -6.5243902, 1.097561, -0.0298772
-0.9306641, 0.2988281, -0.1254883, 96.0365906, -6.6463418, 1.5853659, -0.0365911
-0.9262695, 0.3056641, -0.1196289, 95.7926865, -7.1951222, 1.6463414, -0.0386053
-0.9277344, 0.3085938, -0.1098633, 95.7926865, -7.7439027, 0.9146342, -0.0453193
-0.925293, 0.3022461, -0.0991211, 97.1341476, -8.2317076, 0.6707317, -0.0439765
-0.9287109, 0.2880859, -0.0966797, 101.1585388, -9.5121956, 0.8536586, -0.0419623
-0.9194336, 0.2509766, -0.0976562, 105.9146347, -9.5731707, 0.9756098, -0.0412909
-0.9165039, 0.2236328, -0.1132812, 108.1707306, -9.3292685, 1.0365853, -0.0459907
-0.9165039, 0.2104492, -0.1166992, 110, -8.5365858, 1.2195122, -0.0412909
-0.934082, 0.2055664, -0.1171875, 110.4268341, -7.8658538, 1.1585366, -0.0379339
-0.9472656, 0.2148438, -0.1147461, 110.6097565, -8.1707315, 0.8536586, -0.0433051
-0.9614258, 0.2441406, -0.1171875, 110.0609818, -8.3536587, 0.6707317, -0.0436408
-0.9707031, 0.2626953, -0.112793, 108.8414688, -9.9390249, 0.6097561, -0.0446479
-0.9658203, 0.2915039, -0.0957031, 108.5365906, -10.7317076, 0.9756098, -0.0433051
-0.9599609, 0.2919922, -0.0869141, 111.0975647, -13.2926836, 1.5853659, -0.0500191
-0.9375, 0.2939453, -0.0957031, 112.86586, -14.2073174, 1.9512196, -0.0500191
-0.9204102, 0.2866211, -0.1113281, 115.2439041, -13.6585369, 2.3780489, -0.0506905
-0.8964844, 0.284668, -0.1181641, 114.2073212, -12.0121956, 1.6463414, -0.0493477
-0.9052734, 0.3041992, -0.1044922, 112.9878082, -11.1585369, 0.9146342, -0.0406195
-0.9169922, 0.3232422, -0.1049805, 111.8902435, -11.1585369, -0.6097561, -0.0439765
-0.9545898, 0.3510742, -0.1113281, 111.0975647, -11.219512, -0.8536586, -0.0433051
-0.9599609, 0.3579102, -0.1054688, 108.9634171, -13.2926836, 0.1829268, -0.0463264
-0.9501953, 0.362793, -0.105957, 107.9268341, -13.841464, 0.7317073, -0.0459907
-0.9399414, 0.3510742, -0.1044922, 106.5243912, -14.5731707, 1.5853659, -0.0412909
-0.9277344, 0.3408203, -0.0893555, 105.7317123, -14.0243902, 1.5243902, -0.0449836
-0.9233398, 0.3374023, -0.0898438, 104.0243912, -13.2926836, 0.1219512, -0.0463264
-0.9311523, 0.3398438, -0.0961914, 102.8048782, -13.1097565, -0.3658537, -0.0513619
-0.9321289, 0.3486328, -0.1123047, 100, -13.4756098, -0.4878049, -0.0486763
-0.9321289, 0.3491211, -0.1157227, 95.7926865, -13.4146347, -0.1829268, -0.0473335
-0.9174805, 0.3544922, -0.105957, 94.146347, -13.6585369, -0.3048781, -0.0459907
-0.9174805, 0.3569336, -0.1000977, 92.7439041, -12.8658543, -0.5487805, -0.0436408
-0.9174805, 0.378418, -0.0976562, 91.7073212, -12.2560978, -0.7317073, -0.0419623
-0.9179688, 0.3862305, -0.0981445, 90.0609741, -11.7682934, -1.2804878, -0.0379339
-0.9262695, 0.3945312, -0.1025391, 89.0853653, -11.9512196, -1.3414634, -0.0433051
-0.9267578, 0.3911133, -0.105957, 86.2804871, -11.9512196, -2.5, -0.0379339
-0.9355469, 0.3935547, -0.1020508, 84.6341476, -11.7682934, -2.8658538, -0.0352483
-0.940918, 0.3886719, -0.0996094, 83.0487823, -11.280488, -3.5365853, -0.0399481
-0.956543, 0.3823242, -0.1010742, 83.1707306, -11.5243902, -3.9024391, -0.0386053
-0.9609375, 0.3637695, -0.105957, 82.3780518, -11.8292685, -3.2926829, -0.0379339
-0.9609375, 0.3510742, -0.1079102, 82.0731735, -11.7073174, -3.1707318, -0.0396124
-0.9648438, 0.3305664, -0.1103516, 81.5243912, -11.4634151, -2.9268293, -0.0369268
-0.9692383, 0.3286133, -0.109375, 80.7926865, -10.7317076, -3.7195122, -0.0392767
-0.9765625, 0.3354492, -0.1103516, 80.18293, -10.1219511, -3.8414636, -0.0409552
-0.984375, 0.3457031, -0.1108398, 78.1707306, -9.9390249, -3.9024391, -0.0433051
-0.9916992, 0.3583984, -0.0922852, 77.5609741, -10.1829271, -3.9634147, -0.042298
-0.9887695, 0.3666992, -0.1005859, 77.5, -11.5243902, -3.5975611, -0.0473335
-0.9736328, 0.3574219, -0.137207, 76.7073212, -12.2560978, -2.804878, -0.0466621
-0.9570312, 0.3496094, -0.1450195, 73.5365906, -12.0731707, -2.0121951, -0.0486763
-0.9428711, 0.3481445, -0.159668, 72.2560959, -11.4634151, -2.5, -0.0506905
-0.9614258, 0.3701172, -0.1655273, 69.9390259, -10.3658543, -3.9634147, -0.0473335
-0.9726562, 0.3813477, -0.1777344, 67.8048782, -10.6707315, -4.390244, -0.0459907
-0.9858398, 0.3959961, -0.1821289, 66.6463394, -11.280488, -4.0853658, -0.049012
-0.9814453, 0.3950195, -0.1899414, 64.9390259, -13.2317076, -3.6585367, -0.0493477
-0.9633789, 0.3745117, -0.1943359, 64.3902435, -13.5365858, -3.1707318, -0.0453193
-0.9560547, 0.3613281, -0.1972656, 62.5, -13.1707315, -2.8658538, -0.0446479
-0.9492188, 0.3452148, -0.1860352, 61.5853691, -12.6829271, -3.0487804, -0.0466621
-0.949707, 0.3476562, -0.1791992, 59.5731735, -11.9512196, -3.4146342, -0.0459907
-0.9614258, 0.3549805, -0.1547852, 58.5365868, -11.9512196, -3.7195122, -0.0486763
-0.9672852, 0.3618164, -0.1469727, 55.6097565, -12.6829271, -4.0853658, -0.0500191
-0.9760742, 0.3632812, -0.1367188, 54.5731735, -13.1097565, -3.9634147, -0.0486763
-0.9711914, 0.355957, -0.1318359, 52.1341476, -14.2073174, -3.4756098, -0.0496834
-0.9643555, 0.3520508, -0.128418, 49.4512215, -14.0243902, -2.8658538, -0.056733
-0.9541016, 0.3408203, -0.1181641, 48.1707344, -13.7195129, -2.804878, -0.0527047
-0.953125, 0.3417969, -0.1147461, 46.5853653, -13.0487804, -2.9878049, -0.0459907
-0.9536133, 0.3515625, -0.1152344, 45.3658562, -12.6829271, -3.2317073, -0.0486763
-0.953125, 0.3530273, -0.1088867, 42.8048782, -13.0487804, -3.3536587, -0.0459907
-0.9638672, 0.3530273, -0.0922852, 42.0731735, -13.3536587, -3.5975611, -0.0500191
-0.9697266, 0.3525391, -0.0917969, 42.1951218, -13.780488, -3.4146342, -0.0500191
-0.9633789, 0.3378906, -0.1074219, 43.0487823, -13.6585369, -3.1707318, -0.0486763
-0.9609375, 0.3291016, -0.1230469, 44.1463432, -13.780488, -3.1097562, -0.0493477
-0.9614258, 0.3237305, -0.1616211, 43.4146347, -13.4146347, -3.0487804, -0.0513619
-0.9692383, 0.3393555, -0.1791992, 42.5, -12.560976, -3.1707318, -0.0486763
-0.9790039, 0.3549805, -0.1816406, 40.4878044, -11.9512196, -2.6829269, -0.0493477
-0.9887695, 0.3818359, -0.1801758, 38.9634171, -12.0731707, -2.5609756, -0.0527047
-0.9838867, 0.3847656, -0.1757812, 35.9146347, -13.2317076, -1.8292683, -0.0473335
-0.965332, 0.3808594, -0.1630859, 34.1463432, -13.841464, -1.4634147, -0.0446479
-0.9594727, 0.3803711, -0.1552734, 31.341465, -14.3902445, -1.5853659, -0.0449836
-0.9462891, 0.375, -0.1337891, 29.8780499, -14.1463413, -1.4634147, -0.0473335
-0.9482422, 0.3681641, -0.128418, 27.3780499, -13.2317076, -1.3414634, -0.0493477
-0.9482422, 0.3579102, -0.1064453, 26.1585369, -13.2317076, -1.3414634, -0.0493477
-0.9511719, 0.3540039, -0.09375, 25.060976, -12.8048782, -1.8902439, -0.0459907
-0.9619141, 0.3310547, -0.0722656, 26.8292694, -12.8658543, -1.6463414, -0.0453193
-0.965332, 0.3208008, -0.0947266, 27.8658543, -12.7439032, -1.6463414, -0.0473335
-0.9638672, 0.3193359, -0.1025391, 27.1951218, -11.8292685, -1.402439, -0.0459907
-0.972168, 0.324707, -0.1088867, 25.9146347, -11.219512, -1.3414634, -0.0426337
-0.9848633, 0.3339844, -0.1088867, 24.1463413, -10.6707315, -1.9512196, -0.0386053
-1.0019531, 0.3623047, -0.1259766, 22.9878063, -10.5487804, -2.195122, -0.0339055
-1, 0.3769531, -0.1298828, 19.8780499, -11.4634151, -1.1585366, -0.0302129
-0.9775391, 0.3823242, -0.1337891, 18.2317085, -11.8292685, -0.6097561, -0.035584
-0.9716797, 0.378418, -0.1279297, 15.7926836, -12.3170738, -0.7317073, -0.0325628
-0.9663086, 0.3701172, -0.128418, 15.3048782, -12.3170738, -0.7926829, -0.0365911
-0.9624023, 0.3637695, -0.1386719, 14.6951227, -12.0731707, -0.6707317, -0.0379339
-0.9589844, 0.3530273, -0.1469727, 12.8658543, -11.4634151, -0.5487805, -0.0325628
-0.965332, 0.3491211, -0.1635742, 12.5, -11.5853662, -0.7926829, -0.0325628
-0.9736328, 0.3540039, -0.171875, 10.8536587, -11.0975609, -1.0365853, -0.0409552
-0.9892578, 0.3647461, -0.1855469, 10.060976, -11.4024391, -1.0365853, -0.0433051
-0.9926758, 0.3676758, -0.1865234, 7.3170733, -11.8902445, -0.5487805, -0.0406195
-0.9931641, 0.3623047, -0.1791992, 5.9146342, -12.0731707, -0.3658537, -0.0436408
-0.984375, 0.3579102, -0.1743164, 3.1097562, -12.9878054, -0.3048781, -0.0449836
-0.9794922, 0.355957, -0.1674805, 2.3780489, -13.3536587, -0.4878049, -0.0480049
-0.972168, 0.3515625, -0.1679688, 0.6097561, -13.780488, -0.3658537, -0.0500191
-0.9702148, 0.3520508, -0.1660156, -0.3048781, -13.841464, -0.3048781, -0.0459907
-0.9716797, 0.3457031, -0.1665039, -2.3780489, -14.3292685, -0.6097561, -0.0433051
-0.9736328, 0.3291016, -0.1772461, -4.7560978, -15.060976, -0.7317073, -0.0473335
-0.9824219, 0.3017578, -0.1474609, -5, -15.5487804, -0.6097561, -0.0500191
-0.9799805, 0.2890625, -0.1401367, -0.9756098, -16.3414631, -0.1829268, -0.0426337
-0.9765625, 0.2680664, -0.1586914, 1.1585366, -16.4024391, -0.0609756, -0.0392767
-0.9750977, 0.2583008, -0.1772461, 3.4146342, -17.1951218, -0.3658537, -0.0412909
-0.9775391, 0.2617188, -0.1982422, 3.6585367, -17.3170738, -0.4878049, -0.0419623
-0.9858398, 0.269043, -0.1958008, 4.3292685, -17.6219521, -1.0365853, -0.0372625
-0.9897461, 0.2929688, -0.1923828, 4.9390244, -17.9268303, -0.4268293, -0.0399481
-0.9829102, 0.2988281, -0.1943359, 6.4024391, -18.9634151, 0.3048781, -0.0399481
-0.9648438, 0.3056641, -0.1958008, 6.280488, -19.4512196, 0.6707317, -0.0419623
-0.956543, 0.3027344, -0.1958008, 6.0365853, -20.3658543, 0.1219512, -0.0419623
-0.9511719, 0.3027344, -0.1923828, 5.7317076, -19.6951218, -0.4268293, -0.0449836
-0.9599609, 0.3110352, -0.1850586, 5.609756, -19.4512196, -0.7926829, -0.0506905
-0.9643555, 0.3076172, -0.1787109, 4.6341462, -19.5121956, -0.6707317, -0.0500191
-0.9604492, 0.3007812, -0.1704102, 4.0243902, -19.6951218, -0.6097561, -0.0473335
-0.9619141, 0.2900391, -0.1694336, 1.7073171, -20.6707325, -0.7317073, -0.0446479
-0.9633789, 0.2792969, -0.1586914, 0.4878049, -20.4878044, -0.7317073, -0.0439765
-0.96875, 0.2763672, -0.1533203, -1.402439, -19.8780499, -0.6097561, -0.0419623
-0.9707031, 0.28125, -0.1445312, -2.3170731, -19.2073174, -0.6707317, -0.0406195
-0.9726562, 0.284668, -0.1455078, -4.4512196, -18.7195129, -0.4268293, -0.0419623
-0.9677734, 0.2905273, -0.1474609, -6.1585369, -18.8414631, -0.1829268, -0.0466621
-0.9638672, 0.293457, -0.1430664, -8.841464, -18.0487804, -0.0609756, -0.0459907
-0.9604492, 0.2978516, -0.140625, -11.0975609, -17.5, -0.0609756, -0.0446479
-0.9599609, 0.2998047, -0.1533203, -12.3170738, -17.1951218, -0.0609756, -0.0419623
-0.9589844, 0.3051758, -0.1591797, -14.3292685, -16.8292694, 0, -0.0406195
-0.9648438, 0.3046875, -0.1665039, -15.5487804, -17.2560978, 0.0609756, -0.0365911
-0.9638672, 0.3007812, -0.1767578, -17.3780499, -17.3780499, 0.4878049, -0.0339055
-0.9482422, 0.2963867, -0.184082, -18.5365849, -17.439024, 0.7926829, -0.0392767
-0.9433594, 0.293457, -0.1835938, -20.3658543, -16.9512196, 0.4268293, -0.0382696
-0.9458008, 0.2983398, -0.1728516, -21.2195129, -16.5243912, 0.3048781, -0.03122
-0.9516602, 0.296875, -0.1621094, -21.7073174, -15.6097565, 0.4268293, -0.0419623
-0.9716797, 0.2792969, -0.1166992, -20.9756107, -15.7317076, 0.1829268, -0.0459907
-0.9736328, 0.2636719, -0.1064453, -16.1585369, -15.7926836, 0.8536586, -0.0419623
-0.9682617, 0.2368164, -0.1113281, -14.1463413, -15, 1.3414634, -0.0433051
-0.9785156, 0.222168, -0.1069336, -13.9634151, -14.5731707, 0.9756098, -0.0396124
-0.9951172, 0.2265625, -0.1108398, -13.3536587, -13.4146347, -0.2439024, -0.0352483
-1.0229492, 0.2607422, -0.140625, -13.4756098, -13.6585369, 0.1219512, -0.03122
-1.0253906, 0.28125, -0.1572266, -14.7560978, -14.5731707, 1.9512196, -0.0305486
-0.9990234, 0.2944336, -0.1831055, -16.0975609, -15.2439032, 2.9878049, -0.0325628
-0.9824219, 0.293457, -0.190918, -18.2926826, -16.280489, 2.8658538, -0.0412909
-0.9501953, 0.2856445, -0.1879883, -18.2926826, -16.3414631, 2.9268293, -0.0443122
-0.9443359, 0.2817383, -0.1870117, -17.0731716, -15, 2.6829269, -0.0433051
-0.9453125, 0.2768555, -0.1982422, -16.3414631, -14.6341467, 2.6829269, -0.0426337
-0.9467773, 0.2729492, -0.2109375, -14.8170738, -14.1463413, 2.7439024, -0.0382696
-0.9526367, 0.2553711, -0.2294922, -14.8780489, -13.9024391, 2.8658538, -0.0426337
-0.9702148, 0.246582, -0.2358398, -15.3048782, -13.841464, 3.3536587, -0.0436408
-0.9741211, 0.2495117, -0.2319336, -15.1219511, -13.0487804, 4.2682929, -0.0480049
-0.9750977, 0.2612305, -0.2353516, -14.9390249, -12.9878054, 4.8780489, -0.0446479
-0.9726562, 0.2646484, -0.2324219, -16.0975609, -13.6585369, 5.9756098, -0.0446479
-0.9570312, 0.2675781, -0.206543, -16.4634151, -14.2073174, 6.280488, -0.0372625
-0.9526367, 0.2675781, -0.1899414, -17.1341476, -14.0243902, 6.4634147, -0.035584
-0.953125, 0.2822266, -0.1625977, -17.0731716, -13.9024391, 6.4024391, -0.0399481
-0.9545898, 0.2910156, -0.15625, -17.3170738, -12.560976, 6.7073174, -0.0449836
-0.953125, 0.2939453, -0.1538086, -17.8658543, -12.6829271, 6.7682929, -0.0459907
-0.9624023, 0.2929688, -0.1469727, -18.8414631, -12.3780489, 6.8292685, -0.0473335
-0.9814453, 0.2880859, -0.1396484, -19.3292694, -11.8292685, 7.0731707, -0.0476692
-0.9863281, 0.2856445, -0.1401367, -19.5121956, -11.4024391, 7.3170733, -0.0469978
-0.9887695, 0.2856445, -0.1450195, -20.5487804, -10.6097565, 7.3780489, -0.0466621
-0.9907227, 0.2915039, -0.1337891, -21.1585369, -10.4878054, 7.5, -0.0493477
-0.9907227, 0.2983398, -0.1245117, -21.9512196, -9.7560978, 7.7439027, -0.0466621
-0.9838867, 0.3056641, -0.1132812, -22.3780499, -9.3902445, 8.0487804, -0.0433051
-0.9785156, 0.3105469, -0.1088867, -23.5365868, -8.1097565, 8.1097565, -0.0473335
-0.9731445, 0.3198242, -0.0834961, -24.3292694, -7.6829271, 8.1707315, -0.0516976
-0.9741211, 0.3173828, -0.081543, -24.1463413, -6.4024391, 8.4756098, -0.0493477
-0.972168, 0.3066406, -0.0883789, -23.7195129, -6.2195125, 8.5975609, -0.0419623
-0.9633789, 0.2973633, -0.0957031, -23.2926826, -5.2439027, 8.780488, -0.0446479
-0.9726562, 0.2841797, -0.1181641, -22.0731716, -3.8414636, 8.780488, -0.0533761
-0.9868164, 0.2905273, -0.1518555, -21.5853672, -3.2926829, 8.780488, -0.0459907
-0.9960938, 0.2973633, -0.1655273, -21.4024391, -2.3170731, 9.2682924, -0.0486763
-1.0087891, 0.3217773, -0.1943359, -21.2195129, -2.2560976, 9.5121956, -0.0486763
-1.0141602, 0.3291016, -0.1982422, -20.1829281, -2.4390244, 10.2439022, -0.0527047
-1.0078125, 0.331543, -0.1992188, -19.3902435, -2.5, 10.4268293, -0.0520333
-1.0039062, 0.3320312, -0.1953125, -18.1707325, -2.1341465, 10.7317076, -0.0473335
-0.9985352, 0.3266602, -0.1938477, -17.6829281, -2.3780489, 11.1585369, -0.0406195
-1.0043945, 0.3271484, -0.1962891, -15.8536587, -2.0121951, 11.280488, -0.0459907
-1.0083008, 0.3286133, -0.206543, -15.060976, -1.9512196, 11.219512, -0.0486763
-1.0058594, 0.3222656, -0.21875, -13.0487804, -2.0731707, 12.560976, -0.0459907
-0.9907227, 0.3017578, -0.2255859, -11.5853662, -2.195122, 13.7195129, -0.0446479
-0.9770508, 0.2993164, -0.2368164, -10.7317076, -2.195122, 13.9024391, -0.0392767
-0.9707031, 0.3007812, -0.2421875, -8.6585369, -2.0121951, 14.3292685, -0.0446479
-0.9619141, 0.3071289, -0.2446289, -7.9878049, -1.1585366, 14.5121956, -0.0446479
-0.9560547, 0.3115234, -0.2373047, -7.1951222, -0.7317073, 15.1829271, -0.0459907
-0.9511719, 0.3271484, -0.2207031, -6.7682929, -0.6707317, 15, -0.0439765
-0.9580078, 0.331543, -0.2055664, -6.3414636, -0.7317073, 15.1829271, -0.0446479
-0.9555664, 0.3291016, -0.1821289, -6.3414636, -0.4268293, 15.4268293, -0.0392767
-0.9536133, 0.3256836, -0.1669922, -6.8292685, 0.5487805, 15.6707325, -0.0386053
-0.9707031, 0.3217773, -0.1425781, -7.1341467, 0.8536586, 15.4268293, -0.0379339
-0.9819336, 0.3203125, -0.1391602, -7.0731707, 1.8292683, 15.5487804, -0.0379339
-0.9960938, 0.3237305, -0.121582, -7.7439027, 2.6829269, 15.9756098, -0.0463264
-1.0083008, 0.3261719, -0.109375, -7.8048782, 3.0487804, 16.6463413, -0.0426337
-1.0068359, 0.3251953, -0.1069336, -7.8658538, 3.5975611, 17.6219521, -0.0339055
-1.0048828, 0.3232422, -0.1166992, -7.9268293, 4.2073174, 18.0487804, -0.0392767
-1.0048828, 0.328125, -0.1210938, -8.3536587, 5.1829271, 18.4146347, -0.0392767
-1.0117188, 0.331543, -0.1259766, -8.5365858, 5.609756, 18.5975609, -0.0386053
-1.0097656, 0.3388672, -0.1303711, -9.4512196, 7.0121951, 19.4512196, -0.0459907
-1.0087891, 0.3549805, -0.1313477, -9.5121956, 7.6219516, 19.7560978, -0.0433051
-1.0039062, 0.359375, -0.1337891, -9.3292685, 8.6585369, 20.2439022, -0.0379339
-0.9990234, 0.3579102, -0.1547852, -9.1463413, 8.841464, 20.7317085, -0.0365911
-0.9873047, 0.3588867, -0.1635742, -10.3658543, 9.8170738, 21.5243912, -0.0372625
-0.9746094, 0.3857422, -0.1704102, -11.4634151, 11.9512196, 22.2560978, -0.0379339
-0.9736328, 0.4018555, -0.1943359, -11.8292685, 12.9268293, 22.560976, -0.0372625
-0.9750977, 0.4033203, -0.2045898, -12.9878054, 13.841464, 22.8658543, -0.0345769
-0.9716797, 0.3994141, -0.2177734, -13.9634151, 13.9634151, 22.8048782, -0.0325628
-0.9677734, 0.3994141, -0.2172852, -15.2439032, 14.8170738, 22.5, -0.0392767
-0.9716797, 0.3808594, -0.2128906, -15.4268293, 15.4268293, 22.560976, -0.0345769
-0.9760742, 0.3720703, -0.2016602, -15.7926836, 16.7073174, 22.3780499, -0.0352483
-0.9921875, 0.3730469, -0.1855469, -16.0365849, 17.3780499, 22.439024, -0.0379339
-1.0004883, 0.3847656, -0.1767578, -16.5853653, 18.2926826, 22.6829281, -0.0345769
-1.012207, 0.3862305, -0.1723633, -16.5243912, 18.4146347, 22.9878063, -0.0382696
-0.9975586, 0.3706055, -0.1801758, -17.0731716, 18.9634151, 23.9634151, -0.035584
-0.9921875, 0.362793, -0.1826172, -17.7439022, 19.6341476, 24.0853672, -0.0396124
-0.9892578, 0.3613281, -0.1972656, -18.2317085, 20.2439022, 24.3292694, -0.0332341
-0.9897461, 0.3676758, -0.2109375, -18.780489, 21.5853672, 24.5731716, -0.0412909
-0.9824219, 0.3779297, -0.2485352, -19.3902435, 21.8902435, 25, -0.0453193
-0.9741211, 0.3764648, -0.2641602, -20.060976, 22.0731716, 26.0975609, -0.0493477
-0.965332, 0.387207, -0.2841797, -20.3048782, 22.0731716, 26.4634151, -0.0446479
-0.9628906, 0.4038086, -0.2871094, -19.5731716, 23.6585369, 26.6463413, -0.0399481
-0.9658203, 0.4262695, -0.2875977, -19.3292694, 24.3292694, 26.6463413, -0.0433051
-0.96875, 0.4267578, -0.2871094, -18.5365849, 25.060976, 27.3170738, -0.0382696
-0.9628906, 0.4082031, -0.2753906, -18.1097565, 24.6341476, 27.560976, -0.0386053
-0.9550781, 0.3671875, -0.2573242, -17.2560978, 25.1219521, 28.0487804, -0.0365911
-0.9604492, 0.3461914, -0.2495117, -16.1585369, 26.5853672, 28.5365868, -0.0386053
-0.9731445, 0.3193359, -0.2172852, -15.4878054, 27.5, 29.0243912, -0.0436408
-0.9833984, 0.3115234, -0.2036133, -12.8048782, 29.5731716, 30.2439022, -0.0433051
-0.9882812, 0.3037109, -0.2006836, -12.1951218, 30.3658543, 30.7926846, -0.0436408
-0.9897461, 0.3046875, -0.2011719, -11.0975609, 31.7073174, 32.0121956, -0.0433051
-0.9838867, 0.3154297, -0.1967773, -10.6707315, 32.6219521, 32.3780479, -0.0439765
-0.980957, 0.324707, -0.2055664, -9.4512196, 34.1463432, 33.9024391, -0.0379339
-0.9667969, 0.3461914, -0.2387695, -9.1463413, 35.1219521, 34.6341476, -0.0459907
-0.956543, 0.3544922, -0.2548828, -9.0853662, 37.0731697, 35.6707344, -0.0506905
-0.9448242, 0.3803711, -0.284668, -9.6951218, 37.5, 36.0975609, -0.0453193
-0.9418945, 0.4091797, -0.315918, -8.9634151, 39.2682953, 36.2195129, -0.0406195
-0.9423828, 0.4208984, -0.3349609, -8.5975609, 40.4268303, 36.9512215, -0.0433051
-0.9282227, 0.4262695, -0.3569336, -8.780488, 40.9146347, 37.1341476, -0.0466621
-0.9257812, 0.425293, -0.3515625, -9.2682924, 42.1951218, 37.6219521, -0.0433051
-0.9277344, 0.4335938, -0.3295898, -9.0853662, 43.0487823, 37.7439041, -0.0453193
-0.9350586, 0.4384766, -0.3256836, -8.2317076, 44.5121956, 37.7439041, -0.0513619
-0.9487305, 0.4360352, -0.2924805, -7.9878049, 45.4268303, 37.9878044, -0.0486763
-0.9624023, 0.4277344, -0.2758789, -8.1707315, 46.5243912, 38.2926826, -0.0547189
-0.9770508, 0.4169922, -0.2460938, -8.0487804, 47.1341476, 38.3536606, -0.056733
-0.9829102, 0.4101562, -0.2441406, -7.9268293, 48.4146347, 39.5731735, -0.0500191
-0.984375, 0.3979492, -0.2612305, -7.3780489, 49.8780518, 40.1829262, -0.0453193
-0.9931641, 0.3979492, -0.2675781, -7.3780489, 52.3170738, 41.1585388, -0.0446479
-1.0009766, 0.3945312, -0.2729492, -7.1341467, 54.9390259, 42.8048782, -0.0426337
-1.012207, 0.4077148, -0.2709961, -7.3780489, 56.4024391, 43.1707344, -0.0459907
-1.0151367, 0.4165039, -0.2705078, -7.3170733, 58.841465, 44.2073174, -0.0516976
-1.0063477, 0.4228516, -0.2856445, -7.0731707, 60, 44.8780479, -0.0486763
-0.9980469, 0.4248047, -0.2900391, -7.1341467, 62.1341476, 46.0365868, -0.0436408
-0.9785156, 0.4233398, -0.2910156, -6.7682929, 63.4756126, 46.4024391, -0.0392767
-0.9775391, 0.418457, -0.2832031, -5.609756, 65.7317123, 47.1951218, -0.0406195
-0.9697266, 0.4179688, -0.2866211, -4.390244, 66.9512177, 47.1951218, -0.0459907
-0.9619141, 0.4208984, -0.3056641, -3.7195122, 69.5121994, 46.4634171, -0.0419623
-0.9628906, 0.4418945, -0.340332, -3.8414636, 72.1341476, 47.0121956, -0.0459907
-0.9672852, 0.4658203, -0.3730469, -3.9634147, 73.2926865, 47.5609779, -0.0446479
-0.9658203, 0.4746094, -0.3867188, -4.3292685, 75.4268341, 48.9024391, -0.0439765
-0.9594727, 0.4682617, -0.4111328, -4.4512196, 75.9756088, 49.3902435, -0.0459907
-0.9487305, 0.4555664, -0.4169922, -3.2926829, 76.7682953, 49.9390259, -0.0379339
-0.9399414, 0.4335938, -0.4360352, -3.0487804, 77.1951218, 49.9390259, -0.0379339
-0.9379883, 0.4262695, -0.4448242, -0.8536586, 78.7195129, 50.0609779, -0.0433051
-0.9482422, 0.4106445, -0.4824219, 0.5487805, 79.8170776, 50.3048782, -0.0433051
-0.9594727, 0.4121094, -0.496582, 3.2317073, 81.0975647, 50.4268303, -0.0379339
-0.9868164, 0.4311523, -0.5195312, 4.3292685, 81.5243912, 50.5487823, -0.0382696
-0.9970703, 0.4399414, -0.5273438, 6.5243902, 81.7073212, 51.6463432, -0.0466621
-1.0063477, 0.4726562, -0.5322266, 8.1097565, 82.68293, 52.3780518, -0.0446479
-1.0043945, 0.4990234, -0.5288086, 8.4146347, 83.0487823, 52.9268303, -0.0446479
-0.9946289, 0.5053711, -0.5244141, 8.2926826, 83.8414688, 53.9024391, -0.0433051
-0.9755859, 0.4995117, -0.5058594, 8.0487804, 84.3292694, 53.9024391, -0.0439765
-0.9648438, 0.4897461, -0.5053711, 6.5853658, 84.5121994, 54.1463432, -0.0480049
-0.9467773, 0.4892578, -0.512207, 5.609756, 85.0609741, 54.2682953, -0.0500191
-0.9428711, 0.4985352, -0.5209961, 4.4512196, 86.8902435, 54.5121956, -0.0473335
-0.9433594, 0.4956055, -0.5209961, 4.0853658, 88.1707306, 54.5731735, -0.0480049
-0.9472656, 0.4873047, -0.5126953, 3.8414636, 90.5487823, 54.2073174, -0.0500191
-0.9672852, 0.4970703, -0.5332031, 3.2317073, 91.7682953, 54.0853653, -0.0473335
-0.9804688, 0.4970703, -0.5356445, 0.4878049, 93.1707306, 54.7560997, -0.0449836
-0.9780273, 0.512207, -0.4985352, 1.8902439, 94.2073212, 56.2195129, -0.042298
-0.9575195, 0.5507812, -0.5214844, 2.1341465, 95.7926865, 56.4634171, -0.0480049
-0.9633789, 0.5620117, -0.527832, -0.4878049, 99.2073212, 56.5243912, -0.0433051
-0.9541016, 0.550293, -0.503418, -1.1585366, 100.3048782, 56.7682953, -0.0426337
-0.9506836, 0.5302734, -0.4980469, 0.2439024, 102.0121994, 57.3780518, -0.0473335
-0.9414062, 0.4946289, -0.4951172, 0.8536586, 103.7195129, 57.1951218, -0.0446479
-0.9506836, 0.4794922, -0.4956055, 0.4878049, 107.9268341, 57.3170738, -0.0386053
-0.9697266, 0.4516602, -0.5097656, 1.2195122, 109.3902435, 57.4390259, -0.0419623
-0.9785156, 0.4331055, -0.5219727, 2.5, 111.7682953, 58.9634171, -0.0466621
-0.9897461, 0.4326172, -0.5263672, 2.5609756, 113.2926865, 59.5121956, -0.0406195
-0.9926758, 0.4414062, -0.5249023, 2.5609756, 116.4024429, 60.9146347, -0.0426337
-0.9916992, 0.4731445, -0.5522461, 3.2317073, 118.1707382, 62.3780518, -0.0446479
-0.9765625, 0.5146484, -0.6074219, 2.804878, 119.2682953, 62.8658562, -0.0459907
-0.9707031, 0.534668, -0.6391602, 2.2560976, 120.9146347, 64.2073212, -0.0439765
-0.9560547, 0.5708008, -0.7172852, 1.0365853, 122.1951218, 64.6341476, -0.0436408
-0.9487305, 0.5727539, -0.7358398, -1.6463414, 123.5975647, 66.1585388, -0.0459907
-0.9355469, 0.5737305, -0.7402344, -2.6219513, 124.3292694, 66.7073212, -0.0453193
-0.9306641, 0.574707, -0.7373047, -4.6951222, 126.0975647, 66.4634171, -0.0486763
-0.9394531, 0.5664062, -0.6938477, -6.4024391, 127.1341476, 66.0365906, -0.0459907
-0.9482422, 0.5629883, -0.6630859, -9.2682924, 128.2926788, 66.0365906, -0.0433051
-0.9516602, 0.5463867, -0.6235352, -9.8780489, 128.7804871, 65.8536606, -0.0382696
-0.9541016, 0.5473633, -0.6123047, -11.0365858, 130.1219482, 65.5487823, -0.0325628
-0.9511719, 0.5454102, -0.6166992, -11.7682934, 132.6219482, 66.3414612, -0.0325628
-0.9360352, 0.5380859, -0.6259766, -11.219512, 133.5975647, 66.5853653, -0.0419623
-0.9233398, 0.5410156, -0.6206055, -10.6097565, 136.646347, 67.6219559, -0.0352483
-0.9091797, 0.5400391, -0.6259766, -10.060976, 138.3536682, 67.8048782, -0.0328985
-0.9101562, 0.5390625, -0.6411133, -9.9390249, 139.9390259, 67.68293, -0.0419623
-0.909668, 0.5395508, -0.6845703, -9.3292685, 140.4268341, 67.9878082, -0.0386053
-0.9042969, 0.5380859, -0.6992188, -7.2560978, 141.3414612, 68.7804871, -0.0392767
-0.8891602, 0.5292969, -0.7124023, -5.4878049, 142.0731812, 69.5121994, -0.0352483
-0.8837891, 0.5288086, -0.7241211, -2.5, 143.9634247, 70.1219559, -0.0379339
-0.8779297, 0.5400391, -0.7568359, -1.7073171, 144.6951294, 70.3048782, -0.0359197
-0.8691406, 0.5444336, -0.7817383, -0.9146342, 144.8170776, 71.0975647, -0.0379339
-0.862793, 0.5507812, -0.8041992, 0.4878049, 145.3048859, 72.0731735, -0.0406195
-0.8481445, 0.5493164, -0.8071289, 1.4634147, 146.0365906, 72.5609741, -0.0365911
-0.84375, 0.5493164, -0.7998047, 2.5609756, 147.1341553, 73.4146347, -0.0365911
-0.8364258, 0.5571289, -0.7763672, 2.6219513, 147.5609741, 73.7195129, -0.042298
-0.8339844, 0.5644531, -0.7719727, 3.4146342, 147.9268341, 73.4756088, -0.0406195
-0.8320312, 0.5771484, -0.753418, 4.1463413, 147.9878082, 73.5975647, -0.0426337
-0.8183594, 0.5800781, -0.7402344, 6.7073174, 148.7804871, 73.6585388, -0.0453193
-0.8037109, 0.6064453, -0.7490234, 7.4390244, 149.5731812, 73.4756088, -0.0379339
-0.8007812, 0.6210938, -0.7773438, 6.0365853, 150.7317047, 72.9878082, -0.0332341
-0.8056641, 0.6279297, -0.855957, 4.8170733, 150.6707306, 73.6585388, -0.0325628
-0.8007812, 0.6367188, -0.878418, 2.8658538, 151.4634247, 75.2439041, -0.0365911
-0.8066406, 0.6494141, -0.8569336, 1.6463414, 154.4512177, 75.3658524, -0.0386053
-0.8198242, 0.6499023, -0.8198242, 0.9146342, 154.8170776, 75.2439041, -0.0399481
-0.815918, 0.6479492, -0.8251953, -0.7926829, 153.9024353, 74.6951218, -0.0433051
-0.8017578, 0.6220703, -0.8271484, -2.0121951, 153.2317047, 74.3292694, -0.0466621
-0.7802734, 0.6020508, -0.8066406, -1.8902439, 152.6829376, 74.3902435, -0.0426337
-0.7407227, 0.6166992, -0.7641602, -1.402439, 153.3536682, 74.0243912, -0.0433051
-0.7275391, 0.6298828, -0.7597656, -1.0365853, 155.8536682, 73.3536606, -0.0409552
-0.7124023, 0.6376953, -0.7861328, -0.3658537, 156.646347, 73.5975647, -0.0419623
-0.6933594, 0.6274414, -0.8041992, 1.2195122, 159.0243988, 74.0853653, -0.0439765
-0.6796875, 0.5942383, -0.8085938, 1.2195122, 160.3048859, 74.1463394, -0.0419623
-0.6816406, 0.5771484, -0.815918, 1.2195122, 162.2561035, 74.3902435, -0.0379339
-0.7070312, 0.5654297, -0.8583984, 0.6097561, 162.9268341, 75.2439041, -0.0379339
-0.7163086, 0.5649414, -0.8647461, 1.2804878, 162.4390259, 76.2195129, -0.0433051
-0.7041016, 0.5600586, -0.8466797, 5.4268293, 162.2561035, 77.5609741, -0.0419623
-0.6899414, 0.574707, -0.8544922, 6.890244, 162.6219482, 77.5, -0.0473335
-0.6933594, 0.5756836, -0.8803711, 8.3536587, 163.4146423, 77.8658524, -0.0466621
-0.6816406, 0.5620117, -0.9399414, 8.780488, 162.9268341, 78.4146347, -0.0392767
-0.6689453, 0.5605469, -0.9555664, 10.7317076, 163.1707306, 79.8170776, -0.03122
-0.6645508, 0.581543, -0.9287109, 10.7317076, 164.5731812, 80.18293, -0.0406195
-0.6728516, 0.6069336, -0.9052734, 10.1219511, 165.36586, 81.1585388, -0.0419623
-0.6772461, 0.652832, -0.8916016, 9.4512196, 164.5731812, 81.5243912, -0.0433051
-0.6723633, 0.6679688, -0.887207, 7.8658538, 161.3414612, 81.7073212, -0.0453193
-0.6245117, 0.6708984, -0.862793, 8.719512, 160.1219482, 81.7073212, -0.0426337
-0.6005859, 0.6796875, -0.8769531, 7.8658538, 161.3414612, 81.0365906, -0.0399481
-0.609375, 0.6831055, -0.8959961, 5.4878049, 163.4756165, 80.4878082, -0.0433051
-0.6254883, 0.6875, -0.9243164, 4.5731707, 164.0243988, 80.6707306, -0.0473335
-0.6254883, 0.6806641, -0.9179688, 3.5975611, 164.9390259, 80.9146347, -0.0466621
-0.621582, 0.668457, -0.8598633, 3.4146342, 165.2439117, 80.7926865, -0.0459907
-0.6162109, 0.6669922, -0.8291016, 2.4390244, 164.6341553, 80, -0.0459907
-0.6000977, 0.652832, -0.8041992, 2.5, 164.0853729, 79.5121994, -0.0473335
-0.5771484, 0.6518555, -0.815918, 3.1097562, 162.9268341, 79.146347, -0.0486763
-0.5410156, 0.671875, -0.8676758, 2.5, 163.2317047, 79.2073212, -0.0480049
-0.5249023, 0.6655273, -0.8808594, 1.097561, 164.3902435, 79.4512177, -0.0459907
-0.46875, 0.6279297, -0.8740234, 2.9878049, 165.1219482, 79.146347, -0.0412909
-0.4526367, 0.5854492, -0.8984375, 3.6585367, 166.0975647, 78.7804871, -0.0459907
-0.4692383, 0.5737305, -0.9082031, 3.5975611, 168.2926941, 78.3536606, -0.0486763
-0.5112305, 0.5844727, -0.8808594, 3.3536587, 169.3292694, 78.5365906, -0.0459907
-0.527832, 0.6025391, -0.8583984, 4.1463413, 170.1829376, 78.9634171, -0.0426337
-0.5263672, 0.6386719, -0.8422852, 4.0243902, 169.6341553, 79.3902435, -0.0419623
-0.5166016, 0.6508789, -0.8447266, 2.5, 167.6829376, 80, -0.0419623
-0.4624023, 0.6401367, -0.8408203, 1.8902439, 167.0121918, 80.2439041, -0.0459907
-0.4335938, 0.6289062, -0.8427734, 0.6707317, 167.0121918, 80.6097565, -0.0446479
-0.3974609, 0.5957031, -0.8867188, 0.7317073, 167.6219482, 80.9146347, -0.0459907
-0.394043, 0.5922852, -0.9316406, 0.6097561, 168.4756165, 81.0975647, -0.0446479
-0.4145508, 0.6230469, -1.0117188, -0.0609756, 169.3292694, 81.3414688, -0.0446479
-0.4545898, 0.6601562, -1.0209961, -0.6707317, 169.3292694, 81.5853653, -0.0409552
-0.4580078, 0.659668, -0.9790039, 0.8536586, 166.9512177, 82.3170776, -0.0446479
-0.4545898, 0.6645508, -0.90625, 1.2804878, 166.1585388, 81.2195129, -0.0436408
-0.46875, 0.6679688, -0.8911133, -0.4878049, 165.1219482, 79.6951218, -0.0446479
-0.4770508, 0.6679688, -0.9262695, -2.0731707, 163.7804871, 79.5121994, -0.0433051
-0.4731445, 0.6655273, -0.9599609, -4.0243902, 161.5853729, 80.7926865, -0.0453193
-0.4477539, 0.6733398, -0.9980469, -5.1829271, 161.2804871, 81.4024429, -0.0419623
-0.4399414, 0.6748047, -0.9707031, -7.6219516, 162.0731812, 81.2804871, -0.0406195
-0.4291992, 0.6767578, -0.8647461, -8.719512, 162.3170776, 80.1219559, -0.0406195
-0.4208984, 0.6782227, -0.8071289, -10.3048782, 161.5853729, 78.4146347, -0.0406195
-0.4033203, 0.6689453, -0.7670898, -10.6707315, 158.7195129, 77.3170776, -0.0406195
-0.3603516, 0.652832, -0.8393555, -11.280488, 157.9268341, 76.8902435, -0.0406195
-0.3374023, 0.6352539, -0.8603516, -12.0121956, 157.9878082, 77.3780518, -0.0365911
-0.2851562, 0.5883789, -0.8310547, -10.6707315, 159.0243988, 77.5609741, -0.0392767
-0.2817383, 0.5712891, -0.8139648, -6.7682929, 162.6219482, 75.8536606, -0.0392767
-0.3144531, 0.5385742, -0.8027344, -5.0609756, 163.7195129, 75.2439041, -0.0446479
-0.3369141, 0.5253906, -0.8027344, -4.1463413, 162.9268341, 75.8536606, -0.0406195
-0.3574219, 0.5151367, -0.7802734, -3.5365853, 162.3170776, 76.0365906, -0.0352483
-0.3564453, 0.5205078, -0.765625, -2.9878049, 161.646347, 77.0731735, -0.0409552
-0.3393555, 0.5512695, -0.7407227, -2.9878049, 161.5243988, 78.1097565, -0.0459907
-0.2949219, 0.5786133, -0.7348633, -2.8658538, 160.9756165, 79.2682953, -0.0433051
-0.269043, 0.5795898, -0.7431641, -2.3170731, 160.9756165, 79.4512177, -0.0419623
-0.2167969, 0.5605469, -0.8266602, -1.6463414, 160.6097565, 79.5731735, -0.042298
-0.1953125, 0.5429688, -0.8916016, -1.0365853, 159.4512177, 80.2439041, -0.0459907
-0.1826172, 0.5175781, -0.9692383, -0.8536586, 159.8170776, 80.4268341, -0.0386053
-0.1953125, 0.5166016, -0.9707031, -0.1829268, 161.2804871, 80.5487823, -0.0379339
-0.2451172, 0.5458984, -0.9438477, 0.7926829, 161.4634247, 80.4268341, -0.038941
-0.2773438, 0.5688477, -0.9267578, 1.9512196, 159.5731812, 80.0609741, -0.0433051
-0.3320312, 0.6230469, -0.9267578, 2.3170731, 157.5609741, 79.6341476, -0.0449836
-0.3486328, 0.6479492, -0.9438477, 0.9146342, 153.9024353, 80.1219559, -0.0446479
-0.3466797, 0.6889648, -0.9731445, -0.5487805, 152.3170776, 80.3658524, -0.0386053
-0.296875, 0.6879883, -0.9448242, -2.9268293, 150.1219482, 80.2439041, -0.0379339
-0.2734375, 0.6748047, -0.9145508, -4.1463413, 148.7804871, 78.8414688, -0.0365911
-0.2319336, 0.6342773, -0.8774414, -4.390244, 147.9268341, 77.8658524, -0.0318914
-0.2226562, 0.6210938, -0.8828125, -5.1829271, 146.4634247, 75.8536606, -0.0379339
-0.2280273, 0.6308594, -0.9194336, -5.3658538, 146.4634247, 75, -0.0406195
-0.2436523, 0.6469727, -0.9277344, -5.3658538, 147.9268341, 74.2682953, -0.0406195
-0.2744141, 0.6757812, -0.8793945, -5.5487804, 148.9634247, 73.9024429, -0.0406195
-0.2729492, 0.6689453, -0.8369141, -6.1585369, 148.4756165, 72.7439041, -0.0352483
-0.2719727, 0.6259766, -0.7314453, -7.5, 146.8902435, 71.9512177, -0.0446479
-0.2441406, 0.5756836, -0.6772461, -6.5853658, 142.9268341, 70.8536606, -0.0396124
-0.1855469, 0.4975586, -0.6347656, -5.3658538, 142.1341553, 69.9390259, -0.0396124
-0.168457, 0.4404297, -0.7397461, -5.9756098, 142.7439117, 69.1463394, -0.0412909
-0.1547852, 0.4316406, -0.7973633, -7.1951222, 143.3536682, 71.6463394, -0.0433051
-0.1430664, 0.4702148, -0.7851562, -7.1951222, 145.0609741, 72.68293, -0.0446479
-0.1513672, 0.5087891, -0.7246094, -7.5, 149.0853729, 72.6219559, -0.0406195
-0.1728516, 0.5878906, -0.6298828, -7.5, 149.3292694, 71.8292694, -0.0412909
-0.1640625, 0.6064453, -0.6572266, -8.2317076, 144.6951294, 71.2195129, -0.0409552
-0.1152344, 0.5952148, -0.8066406, -8.9024391, 141.7073212, 71.9512177, -0.0439765
-0.0810547, 0.5620117, -0.8618164, -10.9756098, 142.3170776, 73.1097565, -0.0446479
-0.043457, 0.4990234, -0.8647461, -11.219512, 145.1829376, 72.9878082, -0.0513619
-0.0561523, 0.4760742, -0.8217773, -10, 149.8170776, 71.8902435, -0.0473335
-0.1083984, 0.4604492, -0.7832031, -8.4756098, 149.4512177, 71.0975647, -0.0459907
-0.1552734, 0.484375, -0.8198242, -5.4878049, 145.1219482, 70.4878082, -0.0446479
-0.1650391, 0.503418, -0.8369141, -5.1829271, 143.9634247, 71.1585388, -0.0449836
-0.1635742, 0.5244141, -0.8266602, -5, 144.3292694, 71.7682953, -0.0433051
-0.1484375, 0.5288086, -0.8071289, -5.3048782, 143.5365906, 72.9878082, -0.0446479
-0.0986328, 0.5131836, -0.815918, -5.3658538, 141.7682953, 72.9878082, -0.0439765
-0.074707, 0.5087891, -0.8383789, -5.7317076, 138.5365906, 73.0487823, -0.0412909
-0.0380859, 0.5097656, -0.90625, -5.9146342, 137.7439117, 73.4146347, -0.0419623
-0.0283203, 0.5161133, -0.9370117, -5, 137.9268341, 73.1707306, -0.0406195
-0.0517578, 0.5473633, -0.9501953, -4.1463413, 138.7195129, 72.9268341, -0.0392767
-0.0732422, 0.5595703, -0.9208984, -1.8902439, 140.1219482, 71.3414688, -0.0433051
-0.1293945, 0.5834961, -0.8588867, -0.1219512, 137.0121918, 69.6341476, -0.0493477
-0.1547852, 0.6000977, -0.8676758, 0.3658537, 134.3902435, 69.0243912, -0.0433051
-0.1396484, 0.6030273, -0.8837891, 0.8536586, 130.5487823, 68.4756088, -0.0352483
-0.1079102, 0.597168, -0.8510742, 0.4268293, 130.1219482, 68.2317123, -0.0406195
-0.090332, 0.5830078, -0.8134766, -0.4878049, 130.6097565, 67.3170776, -0.0392767
-0.0629883, 0.565918, -0.7958984, -1.402439, 129.7561035, 66.8902435, -0.0412909
-0.050293, 0.5615234, -0.8046875, -5, 127.0121994, 65.8536606, -0.0480049
-0.012207, 0.5356445, -0.7563477, -5.3658538, 125.8536606, 65.7926865, -0.0476692
-0.0039062, 0.5371094, -0.699707, -4.7560978, 128.0487823, 63.2926826, -0.0476692
-0.0161133, 0.5390625, -0.6318359, -5.3048782, 129.6341553, 62.0121956, -0.0486763
-0.0170898, 0.543457, -0.6376953, -7.9268293, 127.5, 61.7073174, -0.0476692
0.0205078, 0.5234375, -0.6679688, -9.2682924, 125.0609818, 62.0121956, -0.0463264
0.0712891, 0.4931641, -0.7182617, -9.3902445, 125.6097565, 61.9512215, -0.0466621
0.0810547, 0.4770508, -0.7651367, -8.9024391, 126.3414688, 62.1951218, -0.0433051
0.0820312, 0.4746094, -0.8554688, -8.1707315, 126.8292694, 62.0731735, -0.0365911
0.0751953, 0.480957, -0.8583984, -7.4390244, 128.2926788, 61.7682953, -0.0406195
0.0356445, 0.4853516, -0.7714844, -7.8048782, 129.2682953, 61.0365868, -0.0406195
0.0083008, 0.4731445, -0.7333984, -8.780488, 126.7073212, 60.1219521, -0.0365911
0.0200195, 0.4213867, -0.7670898, -8.2317076, 122.8048782, 60.8536606, -0.0406195
0.034668, 0.4233398, -0.8193359, -7.6829271, 119.8170776, 61.341465, -0.0426337
0.0351562, 0.4516602, -0.9013672, -8.1097565, 121.0365906, 62.0121956, -0.0433051
0.0297852, 0.4750977, -0.90625, -9.0853662, 122.4390259, 63.9634171, -0.0446479
0.046875, 0.5058594, -0.8554688, -9.0243902, 119.5731735, 64.0853653, -0.0480049
0.081543, 0.5117188, -0.7939453, -9.2682924, 117.0731735, 63.2926826, -0.049012
0.1020508, 0.4975586, -0.7612305, -8.719512, 114.4512253, 61.4024391, -0.0446479
0.1289062, 0.4589844, -0.7192383, -7.6829271, 114.146347, 60.9756126, -0.0473335
0.1279297, 0.4526367, -0.7182617, -4.4512196, 115.4268341, 60.0609779, -0.049012
0.1108398, 0.4833984, -0.7900391, -4.2073174, 115.6097565, 60.0609779, -0.0480049
0.0996094, 0.4941406, -0.8232422, -5.0609756, 113.5975647, 60.9146347, -0.049012
0.1191406, 0.4926758, -0.8017578, -4.3292685, 112.1341476, 61.4024391, -0.0513619
0.1191406, 0.5, -0.78125, -2.9268293, 111.8902435, 59.8780518, -0.0486763
0.0947266, 0.515625, -0.7607422, -2.804878, 111.3414688, 59.3292694, -0.0473335
0.0878906, 0.5205078, -0.7412109, -2.4390244, 109.146347, 58.5365868, -0.0439765
0.1015625, 0.5, -0.659668, -1.6463414, 108.2926865, 57.4390259, -0.0446479
0.1352539, 0.4711914, -0.5678711, -1.402439, 108.0487823, 56.5853653, -0.0463264
0.1547852, 0.4619141, -0.5380859, -0.7926829, 107.0731735, 55.6097565, -0.0419623
0.2089844, 0.4506836, -0.5419922, -0.3658537, 106.5243912, 55.4268303, -0.0453193
0.2329102, 0.4604492, -0.5839844, 0, 106.4024429, 55.6097565, -0.0433051
0.2607422, 0.4804688, -0.699707, 0.1829268, 106.8902435, 55.9756126, -0.0459907
0.269043, 0.4916992, -0.7553711, -0.3658537, 107.3170776, 55.7317085, -0.049012
0.2490234, 0.487793, -0.793457, -0.4878049, 107.5, 55.6707344, -0.0486763
0.2333984, 0.4755859, -0.7734375, -1.3414634, 107.68293, 53.9024391, -0.0459907
0.1845703, 0.453125, -0.6933594, -1.2804878, 106.8292694, 52.8658562, -0.0406195
0.1611328, 0.4462891, -0.6635742, -0.9146342, 103.9024429, 51.9512215, -0.0379339
0.1445312, 0.4594727, -0.6557617, 0.8536586, 101.5243912, 51.8902435, -0.0365911
0.1796875, 0.4819336, -0.6953125, 0.7317073, 100.7926865, 51.9512215, -0.0379339
0.2045898, 0.4912109, -0.7167969, -1.7073171, 100.6097565, 52.5, -0.0365911
0.2651367, 0.4643555, -0.7119141, -4.0243902, 99.9390259, 52.8658562, -0.0352483
0.3115234, 0.4204102, -0.6723633, -3.9024391, 97.3170776, 52.9878044, -0.0352483
0.3354492, 0.3803711, -0.6411133, -2.804878, 97.68293, 51.5243912, -0.0419623
0.315918, 0.3769531, -0.6791992, -0.9146342, 97.9878082, 49.6341476, -0.0406195
0.2563477, 0.4150391, -0.7231445, -0.3658537, 97.8658524, 49.8780518, -0.0433051
0.2373047, 0.4399414, -0.7167969, 0.9146342, 97.8658524, 50.5487823, -0.0433051
0.1967773, 0.4907227, -0.6728516, 0.9146342, 97.1951218, 50.1829262, -0.0439765
0.1865234, 0.5161133, -0.6640625, -0.6097561, 92.9268341, 50.0609779, -0.0459907
0.2099609, 0.5302734, -0.7089844, -2.7439024, 87.7439041, 50.1219521, -0.0419623
0.2583008, 0.5405273, -0.8012695, -3.1707318, 86.2804871, 49.9390259, -0.0419623
0.2773438, 0.5356445, -0.8457031, -4.5731707, 84.8170776, 50.1829262, -0.0480049
0.3217773, 0.4589844, -0.8227539, -3.9634147, 83.4146347, 50.3658562, -0.0459907
0.3276367, 0.4204102, -0.7626953, -2.8658538, 83.4146347, 46.8902435, -0.0412909
0.2719727, 0.3613281, -0.6494141, -2.6829269, 83.7804871, 44.8780479, -0.0392767
0.2363281, 0.3554688, -0.6157227, -2.5, 80.8536606, 43.9024391, -0.0409552
0.2172852, 0.3779297, -0.5673828, -2.2560976, 79.2682953, 44.4512215, -0.0412909
0.2412109, 0.3896484, -0.5307617, -0.7317073, 77.1951218, 46.4634171, -0.0459907
0.2983398, 0.4296875, -0.4580078, -0.7317073, 77.1951218, 46.4024391, -0.0459907
0.3286133, 0.4501953, -0.4550781, -1.6463414, 76.7682953, 46.1585388, -0.0463264
0.3916016, 0.4863281, -0.5292969, -3.1097562, 76.4634171, 45.6097565, -0.0449836
0.4306641, 0.5053711, -0.5981445, -3.6585367, 77.3780518, 45.1829262, -0.0433051
0.434082, 0.503418, -0.5966797, -4.390244, 80.2439041, 42.9878044, -0.0419623
0.4013672, 0.4638672, -0.5444336, -3.9024391, 81.1585388, 41.6463432, -0.0433051
0.378418, 0.4360352, -0.5219727, -2.8658538, 80.1219559, 39.0243912, -0.0419623
0.3364258, 0.3828125, -0.5161133, -1.8902439, 79.0243912, 38.3536606, -0.0439765
0.3276367, 0.3696289, -0.5234375, -1.2195122, 77.0731735, 38.1097565, -0.0386053
0.3271484, 0.3725586, -0.5117188, -0.4268293, 76.7073212, 38.5975609, -0.0379339
0.331543, 0.3891602, -0.5063477, 1.6463414, 76.2804871, 38.9024391, -0.0402838
0.3500977, 0.4394531, -0.5722656, 2.3170731, 74.9390259, 38.7804871, -0.0433051
0.3676758, 0.4545898, -0.6518555, 2.6219513, 72.3780518, 38.7804871, -0.0419623
0.4072266, 0.4526367, -0.8232422, 0.6097561, 71.2195129, 39.3292694, -0.0433051
0.434082, 0.387207, -0.8081055, -0.3048781, 71.3414688, 39.3902435, -0.0406195
0.4291992, 0.3520508, -0.7451172, -0.7926829, 70.4878082, 38.1707344, -0.0453193
0.3891602, 0.3017578, -0.6323242, 0.4268293, 68.1707306, 37.0121956, -0.0453193
0.3652344, 0.3032227, -0.605957, 3.4756098, 63.7195129, 35.4878044, -0.0446479
0.3349609, 0.3613281, -0.5820312, 4.6341462, 62.5, 35.0609779, -0.0392767
0.3305664, 0.4023438, -0.5771484, 4.9390244, 61.2195129, 35.9146347, -0.0419623
0.3686523, 0.4614258, -0.5864258, 4.5121951, 59.9390259, 36.8292694, -0.0446479
0.4047852, 0.4658203, -0.5834961, 2.0121951, 58.0487823, 37.9268303, -0.0412909
0.4868164, 0.4589844, -0.5551758, 0.4878049, 57.0731735, 37.6219521, -0.0392767
0.5112305, 0.4399414, -0.5356445, -0.9146342, 56.7073174, 35.3658562, -0.0406195
0.527832, 0.4130859, -0.5112305, -0.3658537, 57.7439041, 32.9878044, -0.0406195
0.4936523, 0.402832, -0.512207, -0.3048781, 58.2317085, 32.0731697, -0.0372625
0.4643555, 0.4023438, -0.5244141, -0.0609756, 56.8902435, 31.0975609, -0.0365911
0.4365234, 0.4008789, -0.5541992, 0.1219512, 55.8536606, 31.1585369, -0.0365911
0.4321289, 0.4013672, -0.5576172, 0.1829268, 53.1707344, 31.0975609, -0.0379339
0.4360352, 0.3925781, -0.5522461, -0.0609756, 52.2560997, 30.7926846, -0.0412909
0.434082, 0.3994141, -0.5302734, 0.1219512, 50.4878044, 29.8170738, -0.0392767
0.4428711, 0.4208984, -0.4873047, 0.2439024, 49.8170738, 29.4512196, -0.0392767
0.4545898, 0.4360352, -0.4750977, 0.6097561, 48.3536606, 27.7439022, -0.0406195
0.4707031, 0.4697266, -0.4580078, 0.3658537, 47.4390259, 26.9512196, -0.0412909
0.4853516, 0.4790039, -0.456543, -1.0365853, 46.6463432, 25.1219521, -0.0406195
0.5004883, 0.4990234, -0.4541016, -2.804878, 46.5243912, 22.8048782, -0.0379339
0.5087891, 0.4960938, -0.4624023, -3.2317073, 46.4634171, 21.280489, -0.0433051
0.5126953, 0.4775391, -0.4848633, -4.2682929, 45.4268303, 19.2073174, -0.0386053
0.5200195, 0.4379883, -0.5419922, -4.390244, 45, 18.2926826, -0.0433051
0.5214844, 0.4111328, -0.5581055, -4.4512196, 45.0609779, 16.5853653, -0.0446479
0.512207, 0.3740234, -0.559082, -4.6951222, 45.3048782, 16.0365849, -0.0446479
0.503418, 0.3520508, -0.550293, -5, 44.0853653, 15.4878054, -0.0466621
0.4941406, 0.3305664, -0.5205078, -4.8170733, 43.1097565, 15.9146347, -0.0412909
0.4960938, 0.3266602, -0.5180664, -3.1707318, 41.1585388, 15.3048782, -0.0459907
0.5004883, 0.3222656, -0.5336914, -1.8902439, 40.3048782, 15.4268293, -0.0459907
0.5029297, 0.3291016, -0.5439453, -0.7317073, 38.841465, 16.3414631, -0.0459907
0.5332031, 0.3398438, -0.5805664, -0.3048781, 36.6463432, 17.6829281, -0.0459907
0.5483398, 0.3730469, -0.668457, -0.3658537, 35.5487823, 18.0487804, -0.0433051
0.546875, 0.3876953, -0.7119141, -3.7804878, 33.4756088, 19.2682934, -0.0426337
0.5864258, 0.3251953, -0.5942383, -2.9268293, 31.4634151, 20.3658543, -0.0446479
0.5820312, 0.3183594, -0.5112305, 0.1829268, 32.1341476, 16.7073174, -0.0486763
0.512207, 0.3242188, -0.5200195, 0.4268293, 31.0975609, 15.1219511, -0.0547189
0.4770508, 0.3579102, -0.5473633, -0.2439024, 27.3780499, 16.4024391, -0.0540475
0.4667969, 0.4238281, -0.5825195, -0.4878049, 26.5243912, 17.6829281, -0.0513619
0.480957, 0.4443359, -0.5693359, -2.4390244, 25.7926826, 18.5975609, -0.0426337
0.5205078, 0.4501953, -0.5146484, -4.0853658, 24.2073174, 18.4146347, -0.0453193
0.5493164, 0.4360352, -0.5126953, -6.8292685, 19.1463413, 17.7439022, -0.0406195
0.612793, 0.4106445, -0.5380859, -8.1707315, 18.2317085, 16.4634151, -0.0392767
0.6157227, 0.4116211, -0.5615234, -9.3902445, 18.8414631, 16.0975609, -0.0439765
0.6064453, 0.3911133, -0.5317383, -9.3902445, 18.1097565, 15.8536587, -0.0446479
0.5874023, 0.3520508, -0.4545898, -8.5365858, 17.8048782, 14.8170738, -0.0433051
0.5610352, 0.3481445, -0.4482422, -7.8048782, 16.4634151, 12.1341467, -0.0459907
0.5102539, 0.3735352, -0.4707031, -8.4146347, 15.060976, 12.2560978, -0.0466621
0.5029297, 0.3999023, -0.4716797, -9.2682924, 13.780488, 13.4756098, -0.0453193
0.527832, 0.4384766, -0.4399414, -9.9390249, 14.0853662, 13.6585369, -0.0419623
0.546875, 0.4482422, -0.4194336, -13.0487804, 12.3780489, 13.0487804, -0.0379339
0.5976562, 0.4467773, -0.4047852, -14.0853662, 11.0975609, 12.6219511, -0.0392767
0.6523438, 0.4101562, -0.4414062, -15.6097565, 10.2439022, 11.5243902, -0.0412909
0.6679688, 0.3896484, -0.4760742, -16.5853653, 10.8536587, 10.1219511, -0.0426337
0.6665039, 0.3413086, -0.5385742, -16.4024391, 11.219512, 10.060976, -0.0406195
0.6538086, 0.3110352, -0.5771484, -15.4878054, 10.3048782, 9.8170738, -0.0292058
0.6035156, 0.2661133, -0.6206055, -14.8780489, 9.6341467, 9.5731707, -0.03122
0.574707, 0.2553711, -0.6166992, -13.4756098, 7.6829271, 9.8780489, -0.0339055
0.515625, 0.2670898, -0.5678711, -12.3780489, 6.5243902, 10.2439022, -0.0352483
0.503418, 0.277832, -0.5415039, -10.4878054, 2.3170731, 11.8292685, -0.0352483
0.5180664, 0.3183594, -0.4995117, -10.1219511, -0.1219512, 12.3780489, -0.0365911
0.5439453, 0.3408203, -0.4956055, -8.9634151, -3.4756098, 13.1097565, -0.0419623
0.5976562, 0.3706055, -0.5341797, -8.1707315, -4.6951222, 13.0487804, -0.0426337
0.6289062, 0.4008789, -0.6098633, -7.5609756, -6.0975609, 12.6219511, -0.0412909
0.6298828, 0.409668, -0.6098633, -8.4756098, -6.4024391, 11.7682934, -0.0392767
0.6132812, 0.4047852, -0.5644531, -9.2682924, -6.5853658, 10.8536587, -0.0365911
0.6040039, 0.3916016, -0.5507812, -10.3048782, -9.3292685, 8.9634151, -0.0345769
0.5825195, 0.3540039, -0.5512695, -10.5487804, -10.9756098, 8.1707315, -0.0406195
0.574707, 0.3354492, -0.5458984, -10.1829271, -12.8658543, 6.6463418, -0.0382696
0.5527344, 0.3393555, -0.5073242, -9.9390249, -13.2317076, 6.2195125, -0.0433051
0.5410156, 0.3535156, -0.4960938, -9.4512196, -14.4512196, 5.609756, -0.0379339
0.5498047, 0.4003906, -0.5019531, -9.3902445, -15.9146347, 5.4268293, -0.0332341
0.5649414, 0.4228516, -0.5097656, -11.5243902, -17.9268303, 5.1219511, -0.038941
0.6015625, 0.4360352, -0.5, -12.560976, -18.5365849, 4.5731707, -0.0459907
0.6347656, 0.4160156, -0.4614258, -15.4268293, -19.0853672, 3.1097562, -0.0486763
0.6445312, 0.3945312, -0.4467773, -16.7682934, -19.3292694, 1.2804878, -0.0453193
0.6391602, 0.3657227, -0.4282227, -17.2560978, -19.2682934, 0.0609756, -0.0446479
0.6259766, 0.3525391, -0.4423828, -17.8048782, -19.2682934, -1.2195122, -0.0369268
0.6147461, 0.3564453, -0.4853516, -17.6219521, -19.8170738, -1.6463414, -0.0365911
0.6054688, 0.3564453, -0.5024414, -18.1707325, -20.4878044, -2.2560976, -0.0379339
0.5908203, 0.3647461, -0.5053711, -18.6585369, -20.9756107, -2.6829269, -0.0412909
0.5913086, 0.3608398, -0.4941406, -20.4268303, -22.7439022, -3.1707318, -0.0466621
0.597168, 0.3496094, -0.487793, -21.4024391, -23.4756107, -3.6585367, -0.0473335
0.5957031, 0.3359375, -0.5024414, -22.0731716, -25.2439022, -3.7195122, -0.0459907
0.5981445, 0.3242188, -0.5322266, -22.6829281, -26.0365868, -3.6585367, -0.0439765
0.5986328, 0.3193359, -0.5327148, -22.6219521, -26.4634151, -4.0243902, -0.0419623
0.5932617, 0.3208008, -0.5131836, -23.4146347, -27.3780499, -4.7560978, -0.0433051
0.5717773, 0.3286133, -0.5014648, -23.7195129, -28.5975609, -4.7560978, -0.0459907
0.5688477, 0.328125, -0.5317383, -22.1951218, -32.5609779, -4.6341462, -0.0459907
0.5864258, 0.3164062, -0.6235352, -21.0975609, -34.4512215, -4.2682929, -0.0433051
0.59375, 0.3066406, -0.6293945, -20, -35.3048782, -5.5487804, -0.0433051
0.5683594, 0.300293, -0.5561523, -19.8170738, -35.4268303, -6.3414636, -0.0446479
0.5454102, 0.3032227, -0.5166016, -19.0243912, -37.5609779, -7.1951222, -0.0446479
0.5234375, 0.3256836, -0.4804688, -18.5365849, -39.2682953, -7.4390244, -0.0433051
0.5131836, 0.347168, -0.4853516, -18.0487804, -42.4390259, -7.5609756, -0.042298
0.5234375, 0.375, -0.5258789, -17.439024, -45.2439041, -7.1951222, -0.0466621
0.5615234, 0.3798828, -0.5649414, -16.8292694, -46.4024391, -7.5, -0.0459907
0.5800781, 0.3735352, -0.5629883, -17.439024, -48.1097565, -8.780488, -0.0406195
0.5947266, 0.3364258, -0.5288086, -17.8658543, -48.9634171, -9.8170738, -0.0439765
0.5859375, 0.3178711, -0.5107422, -17.2560978, -50.4878044, -11.6463413, -0.0392767
0.5556641, 0.3100586, -0.5126953, -16.5853653, -51.4024391, -12.0121956, -0.0359197
0.5361328, 0.3178711, -0.5185547, -14.6951227, -52.1951218, -12.9268293, -0.0399481
0.5039062, 0.3369141, -0.519043, -14.6341467, -52.9878044, -13.0487804, -0.0446479
0.5009766, 0.3476562, -0.5083008, -15.4878054, -55.2439041, -13.1097565, -0.0446479
0.5161133, 0.3535156, -0.4760742, -16.1585369, -56.9512215, -13.2926836, -0.0392767
0.5283203, 0.3574219, -0.4516602, -17.7439022, -59.2073174, -13.7195129, -0.0419623
0.5581055, 0.3759766, -0.4223633, -19.1463413, -59.5121956, -14.3902445, -0.0416266
0.5703125, 0.4038086, -0.4189453, -20.1219521, -58.841465, -14.8780489, -0.0406195
0.565918, 0.4169922, -0.4296875, -22.9878063, -58.1707344, -16.0365849, -0.0419623
0.5444336, 0.4223633, -0.4799805, -24.6951218, -59.2073174, -16.4024391, -0.0419623
0.5410156, 0.4165039, -0.5302734, -27.0731716, -61.7682953, -16.9512196, -0.0453193
0.5463867, 0.3862305, -0.6186523, -28.2317085, -63.2926826, -17.0731716, -0.0493477
0.5424805, 0.3696289, -0.6196289, -30, -63.7804909, -18.9634151, -0.0459907
0.5053711, 0.3530273, -0.5615234, -30.9146347, -63.841465, -20.060976, -0.0446479
0.4755859, 0.3457031, -0.5336914, -31.8292694, -65.6097565, -22.0121956, -0.0459907
0.4389648, 0.3349609, -0.5395508, -32.1951218, -67.7439041, -22.2560978, -0.0459907
0.4350586, 0.3266602, -0.5605469, -32.3780479, -72.6219559, -21.4024391, -0.0459907
0.4589844, 0.2988281, -0.6157227, -31.5853672, -76.4634171, -20.060976, -0.0473335
0.5019531, 0.2744141, -0.6171875, -30.4268303, -77.8658524, -20, -0.0513619
0.5151367, 0.2700195, -0.5922852, -28.2317085, -78.9024429, -21.280489, -0.0466621
0.496582, 0.2792969, -0.5625, -26.7073174, -80, -22.1951218, -0.0399481
0.4873047, 0.2919922, -0.5810547, -22.7439022, -83.1097565, -23.1707325, -0.0392767
0.4633789, 0.3227539, -0.6264648, -21.280489, -84.5121994, -23.780489, -0.0386053
0.4521484, 0.3359375, -0.6279297, -19.0853672, -86.5853653, -23.9634151, -0.0379339
0.4350586, 0.3461914, -0.6147461, -18.2317085, -87.8048782, -24.0243912, -0.0359197
0.4370117, 0.3476562, -0.6054688, -17.2560978, -90.9756088, -24.3292694, -0.0352483
0.4487305, 0.3549805, -0.5883789, -17.0121956, -92.7439041, -24.3292694, -0.0352483
0.4487305, 0.3598633, -0.5820312, -16.7073174, -95, -25.6707325, -0.0365911
0.4453125, 0.3837891, -0.5825195, -16.3414631, -96.5243912, -25.9146347, -0.0419623
0.453125, 0.409668, -0.5922852, -16.9512196, -96.8292694, -26.280489, -0.0419623
0.4521484, 0.4223633, -0.6025391, -19.3292694, -98.7804871, -26.9512196, -0.0392767
0.4545898, 0.4287109, -0.6152344, -20.4878044, -99.6341476, -27.4390259, -0.0406195
0.4594727, 0.4326172, -0.6054688, -23.5975609, -101.0365906, -28.4756107, -0.0396124
0.4726562, 0.4306641, -0.5600586, -25.3048782, -101.2195129, -29.5121956, -0.0386053
0.4677734, 0.4311523, -0.5302734, -29.2073174, -100.9146347, -31.1585369, -0.0392767
0.4614258, 0.4453125, -0.4799805, -30.7317085, -100.8536606, -31.9512196, -0.0399481
0.4560547, 0.4628906, -0.4638672, -35.6097565, -101.0365906, -33.1097565, -0.0372625
0.4482422, 0.4941406, -0.4711914, -38.3536606, -101.0365906, -33.4146347, -0.0359197
0.4545898, 0.5092773, -0.480957, -45.0609779, -101.9512253, -33.7804871, -0.0345769
0.4633789, 0.5131836, -0.5166016, -50.5487823, -103.1097565, -34.6951218, -0.0392767
0.4614258, 0.4799805, -0.5883789, -51.7073174, -104.0243912, -35.3048782, -0.0365911
0.4614258, 0.4472656, -0.6547852, -49.6951218, -107.3780518, -37.3170738, -0.0365911
0.4609375, 0.3691406, -0.7895508, -47.9878044, -109.0853653, -38.5365868, -0.0359197
0.4448242, 0.3320312, -0.8081055, -44.7560997, -110, -41.4024391, -0.0315557
0.3754883, 0.28125, -0.7358398, -42.8048782, -109.0853653, -42.8658562, -0.0271916
0.3251953, 0.2734375, -0.6816406, -38.4756088, -108.7804871, -44.3902435, -0.0352483
0.2446289, 0.2773438, -0.6196289, -35.9146347, -110.6097565, -44.1463432, -0.0332341
0.2382812, 0.2900391, -0.6220703, -31.0365868, -118.0487823, -42.8048782, -0.0332341
0.2788086, 0.3115234, -0.6362305, -29.4512196, -121.646347, -41.6463432, -0.0339055
0.3208008, 0.3154297, -0.6308594, -25.7926826, -125.6097565, -40.0609779, -0.0365911
0.4130859, 0.3129883, -0.6132812, -22.6829281, -126.8292694, -39.8780479, -0.0392767
0.4726562, 0.3173828, -0.6445312, -21.4634151, -127.0731735, -39.6341476, -0.0352483
0.4838867, 0.3295898, -0.6748047, -18.7195129, -127.7439041, -40.5487823, -0.0412909
0.4624023, 0.3793945, -0.7275391, -17.3780499, -127.4390259, -41.1585388, -0.0412909
0.4257812, 0.4057617, -0.7329102, -15.8536587, -124.8170776, -42.5609779, -0.0359197
0.3427734, 0.4570312, -0.6943359, -15.9756098, -124.0243912, -43.4146347, -0.0359197
0.3051758, 0.4741211, -0.6791992, -17.1341476, -125.8536606, -43.841465, -0.0406195
0.2861328, 0.4824219, -0.6494141, -18.5975609, -128.5975647, -43.9634171, -0.0459907
0.2915039, 0.4819336, -0.6264648, -22.1951218, -133.2317047, -44.3292694, -0.0412909
0.3310547, 0.472168, -0.5595703, -23.6585369, -134.4512177, -44.8780479, -0.0392767
0.3579102, 0.4697266, -0.5419922, -24.8780499, -135.5487823, -45.4878044, -0.0392767
0.3999023, 0.4731445, -0.550293, -25.4878063, -135.4268341, -46.7073174, -0.0419623
0.4301758, 0.4882812, -0.5756836, -26.4634151, -134.2682953, -47.6219521, -0.0473335
0.4296875, 0.4941406, -0.5952148, -29.2073174, -132.0731812, -49.3292694, -0.0527047
0.3984375, 0.5009766, -0.625, -30.6097565, -131.0975647, -49.8780518, -0.0446479
0.3862305, 0.5, -0.6245117, -34.1463432, -129.2073212, -51.2195129, -0.0419623
0.3530273, 0.4897461, -0.5761719, -35.7926826, -128.2317047, -52.1951218, -0.0459907
0.3359375, 0.4829102, -0.5307617, -38.6585388, -127.1951218, -53.841465, -0.0466621
0.3076172, 0.449707, -0.4741211, -39.7560997, -127.4390259, -54.8170738, -0.0439765
0.3041992, 0.4248047, -0.4916992, -39.2682953, -131.2804871, -55.3658562, -0.0480049
0.3232422, 0.3588867, -0.625, -37.9878044, -133.9634247, -55.3048782, -0.0433051
0.3383789, 0.3359375, -0.7167969, -35.4878044, -137.86586, -54.3292694, -0.0392767
0.3500977, 0.3183594, -0.8393555, -32.1341476, -135.4878082, -54.3292694, -0.0396124
0.3066406, 0.3276367, -0.8232422, -29.9390259, -133.0487823, -54.6951218, -0.0392767
0.2675781, 0.3427734, -0.7998047, -25.5487804, -130.6707306, -55.9756126, -0.0352483
0.1679688, 0.3818359, -0.78125, -23.780489, -132.0731812, -56.4024391, -0.0406195
0.1381836, 0.4042969, -0.7783203, -21.4024391, -137.9878082, -56.7682953, -0.0436408
0.1098633, 0.4418945, -0.8061523, -20.6097565, -141.4024353, -56.6463432, -0.0396124
0.1210938, 0.4506836, -0.8154297, -18.6585369, -147.0121918, -55.9756126, -0.0446479
0.1850586, 0.4438477, -0.809082, -17.7439022, -148.7804871, -55.7926826, -0.0416266
0.2216797, 0.4272461, -0.7915039, -16.3414631, -150.9146423, -55.6707344, -0.0419623
0.293457, 0.3808594, -0.7353516, -15.5487804, -151.0975647, -56.0975609, -0.0419623
0.3154297, 0.3564453, -0.7114258, -13.4756098, -150.36586, -56.8292694, -0.0365911
0.3217773, 0.3452148, -0.6933594, -10.5487804, -149.2682953, -57.7439041, -0.0386053
0.2797852, 0.3901367, -0.684082, -9.3902445, -148.1097565, -58.2926826, -0.0392767
0.2553711, 0.4287109, -0.6689453, -8.2926826, -145, -58.2926826, -0.0379339
0.1938477, 0.5048828, -0.6420898, -8.9024391, -143.9634247, -58.1707344, -0.0386053
0.1723633, 0.5444336, -0.637207, -12.1951218, -144.0243988, -57.8658562, -0.0399481
0.1591797, 0.5996094, -0.6416016, -14.8170738, -144.7561035, -57.9268303, -0.0406195
0.1635742, 0.6157227, -0.6474609, -21.5243912, -146.9512177, -58.2926826, -0.0392767
0.1821289, 0.6181641, -0.6831055, -24.9390259, -147.6829376, -58.5365868, -0.0446479
0.1918945, 0.6123047, -0.7133789, -30.8536587, -147.9878082, -59.6341476, -0.0436408
0.1962891, 0.5898438, -0.7670898, -33.0487823, -147.1951294, -60.4878044, -0.0486763
0.1899414, 0.5761719, -0.7758789, -37.6829262, -144.6341553, -62.2560997, -0.0459907
0.1503906, 0.5366211, -0.7641602, -39.2682953, -143.6585388, -64.0853653, -0.0466621
0.1230469, 0.4682617, -0.7954102, -38.4146347, -145.1829376, -64.8170776, -0.0466621
0.1166992, 0.4301758, -0.8193359, -35.8536606, -148.7195129, -65.8536606, -0.0439765
0.1035156, 0.3833008, -0.8134766, -34.6951218, -149.3902435, -66.5243912, -0.0459907
0.090332, 0.3691406, -0.777832, -31.4634151, -147.86586, -67.0731735, -0.0500191
0.0605469, 0.3613281, -0.7070312, -29.2682934, -147.2561035, -66.9512177, -0.0486763
0.0483398, 0.3710938, -0.6982422, -23.5365868, -148.5365906, -66.0365906, -0.0493477
0.065918, 0.3886719, -0.7202148, -20.8536587, -149.9390259, -65.5487823, -0.0513619
0.0820312, 0.3969727, -0.722168, -17.2560978, -151.5853729, -65.3048782, -0.0480049
0.1030273, 0.4135742, -0.6899414, -16.2195129, -150.7926788, -65.3658524, -0.0473335
0.1044922, 0.4277344, -0.6708984, -14.0853662, -148.1097565, -65.2439041, -0.0503548
0.097168, 0.4541016, -0.6845703, -11.341464, -148.2926788, -64.9390259, -0.0503548
0.0834961, 0.4707031, -0.8144531, -9.9390249, -149.3902435, -64.6341476, -0.0466621
0.0771484, 0.4760742, -0.9033203, -7.9878049, -152.6829376, -64.0243912, -0.0486763
0.0410156, 0.4853516, -1.0195312, -7.2560978, -152.86586, -64.0853653, -0.0459907
0.0107422, 0.4970703, -1.0229492, -5.7317076, -150.4878082, -64.8780518, -0.0473335
-0.0566406, 0.5195312, -0.9248047, -4.5731707, -149.3902435, -65.7317123, -0.0466621
-0.0893555, 0.5332031, -0.8530273, -2.3780489, -149.8780518, -68.2317123, -0.0473335
-0.1264648, 0.5585938, -0.7841797, -2.0731707, -152.6829376, -69.5121994, -0.0433051
-0.1186523, 0.5629883, -0.7939453, -3.8414636, -160, -69.6341476, -0.0406195
-0.0610352, 0.5732422, -0.8574219, -5.7317076, -162.4390259, -69.5731735, -0.0473335
-0.0288086, 0.5742188, -0.894043, -10.3048782, -162.1341553, -68.7195129, -0.0476692
0.0136719, 0.5834961, -0.9448242, -15.9146347, -157.9878082, -67.6219559, -0.0493477
0.012207, 0.5878906, -0.9355469, -18.6585369, -155.8536682, -67.1341476, -0.0500191
0.0073242, 0.5864258, -0.90625, -22.6829281, -152.6829376, -69.0243912, -0.0459907
-0.0200195, 0.581543, -0.8178711, -24.8170738, -151.2195129, -70.3048782, -0.0473335
