Application:, Trigno Discover (1.6.5)
Date/Time:, 30/01/2025 09:27:09
Collection Length (seconds):, 45.171
wrist (81457), , , , , , bicep (81139)
sensor mode: 609, , , , , , sensor mode: 40
ACC X (G), ACC Y (G), ACC Z (G), GYRO X (deg/s), GYRO Y (deg/s), GYRO Z (deg/s), EMG 1 (mV)
370.3704 Hz, 370.3704 Hz, 370.3704 Hz, 370.3704 Hz, 370.3704 Hz, 370.3704 Hz, 2148.1481 Hz
-1.0253906, 0.152832, -0.027832, 6.5243902, -7.5, 11.219512, -0.0433051
-1.0200195, 0.1489258, -0.0249023, 6.7682929, -8.2317076, 11.219512, -0.0446479
-1.0161133, 0.140625, -0.0200195, 6.7682929, -8.1707315, 11.219512, -0.0439765
-1.0107422, 0.121582, -0.0239258, 6.8292685, -7.8048782, 11.4024391, -0.0392767
-1.0073242, 0.1206055, -0.027832, 7.1341467, -7.9268293, 11.0975609, -0.0419623
-1.0083008, 0.1142578, -0.0405273, 6.8292685, -8.1707315, 10.7317076, -0.0486763
-1.0058594, 0.1171875, -0.0478516, 6.2195125, -8.2317076, 10.3658543, -0.0439765
-1.0053711, 0.1225586, -0.0566406, 5.7926831, -7.6219516, 10.4878054, -0.049012
-1.0068359, 0.1245117, -0.0615234, 4.390244, -6.890244, 10.9756098, -0.0406195
-0.9980469, 0.1298828, -0.059082, 3.9634147, -6.7682929, 11.1585369, -0.0379339
-0.9863281, 0.1352539, -0.0585938, 2.6219513, -6.6463418, 11.280488, -0.0412909
-0.9785156, 0.1381836, -0.0595703, 1.8902439, -6.890244, 11.4024391, -0.0406195
-0.96875, 0.137207, -0.0649414, 1.7682927, -7.0121951, 10.9756098, -0.0419623
-0.9648438, 0.1386719, -0.0654297, 1.2804878, -6.4634147, 10.4878054, -0.0372625
-0.9658203, 0.1479492, -0.059082, 1.2804878, -6.280488, 10.1829271, -0.0406195
-0.9643555, 0.1572266, -0.0610352, 0.8536586, -5.2439027, 9.4512196, -0.0392767
-0.9790039, 0.1787109, -0.0581055, 0.1829268, -4.8780489, 9.5121956, -0.0433051
-0.9814453, 0.1928711, -0.0595703, -1.3414634, -4.8780489, 9.6341467, -0.0433051
-0.9907227, 0.2016602, -0.0576172, -2.5, -5.1219511, 9.4512196, -0.0406195
-0.9960938, 0.2050781, -0.0498047, -4.4512196, -5.7317076, 9.5121956, -0.0439765
-1.0019531, 0.1875, -0.0419922, -5.1829271, -6.280488, 9.3902445, -0.0399481
-1, 0.1503906, -0.0385742, -6.280488, -6.8292685, 9.2682924, -0.0372625
-1.0029297, 0.1289062, -0.03125, -6.7073174, -6.8292685, 9.2073174, -0.0406195
-1.0092773, 0.0922852, -0.0166016, -6.7682929, -7.0731707, 9.2073174, -0.0412909
-1.0126953, 0.0825195, -0.0083008, -6.1585369, -7.2560978, 9.1463413, -0.0493477
-1.0292969, 0.0771484, -0.0083008, -5.670732, -6.8292685, 9.3292685, -0.0506905
-1.0322266, 0.0820312, -0.019043, -4.9390244, -6.9512196, 9.3292685, -0.0412909
-1.0400391, 0.0976562, -0.0424805, -4.5731707, -7.3170733, 9.0243902, -0.0433051
-1.0415039, 0.1035156, -0.0522461, -4.0853658, -8.1097565, 9.1463413, -0.0369268
-1.0332031, 0.1044922, -0.065918, -3.9024391, -7.8048782, 9.2682924, -0.0352483
-1.0292969, 0.1044922, -0.0615234, -3.7195122, -6.9512196, 9.6951218, -0.0459907
-1.0170898, 0.1049805, -0.0483398, -3.5975611, -6.2195125, 9.8170738, -0.0433051
-1.0112305, 0.1108398, -0.0351562, -3.2317073, -6.0975609, 10, -0.0459907
-1.0058594, 0.1191406, -0.0400391, -2.9878049, -6.6463418, 9.8780489, -0.0480049
-1.0136719, 0.1337891, -0.0498047, -2.3170731, -7.4390244, 9.7560978, -0.0513619
-1.0112305, 0.1391602, -0.0532227, -1.6463414, -7.0731707, 10.1219511, -0.0459907
-1.0058594, 0.1401367, -0.0429688, -1.402439, -6.8292685, 10.3048782, -0.0453193
-1.0048828, 0.1386719, -0.0400391, -0.4268293, -7.6219516, 10.1219511, -0.0480049
-1.0019531, 0.1401367, -0.0517578, -0.4268293, -7.4390244, 9.8170738, -0.0433051
-1.0058594, 0.140625, -0.0605469, -0.5487805, -6.8292685, 9.7560978, -0.0406195
-1.0068359, 0.1401367, -0.0615234, -1.4634147, -7.1341467, 9.5731707, -0.0436408
-1.0024414, 0.1430664, -0.0605469, -1.4634147, -7.6219516, 9.3292685, -0.0406195
-1.0083008, 0.1503906, -0.059082, -1.8902439, -8.1097565, 9.3902445, -0.0453193
-1.0112305, 0.1474609, -0.0625, -2.2560976, -7.9878049, 9.8170738, -0.0433051
-1.003418, 0.1430664, -0.0639648, -2.7439024, -7.5609756, 9.8170738, -0.0419623
-0.9985352, 0.1254883, -0.0444336, -3.5365853, -7.3780489, 10.1829271, -0.0433051
-0.9897461, 0.1220703, -0.0375977, -3.4756098, -7.5, 10.060976, -0.0500191
-0.9956055, 0.1152344, -0.0302734, -3.5365853, -7.6829271, 9.8170738, -0.0540475
-0.9951172, 0.1166992, -0.0244141, -2.8658538, -8.780488, 9.5121956, -0.0493477
-0.9907227, 0.121582, -0.0288086, -2.7439024, -9.2073174, 9.0853662, -0.0503548
-0.9926758, 0.1225586, -0.0302734, -2.5, -8.3536587, 8.841464, -0.0486763
-0.9990234, 0.1293945, -0.03125, -2.6219513, -7.9268293, 8.841464, -0.0433051
-1.0068359, 0.1342773, -0.0302734, -2.5, -8.0487804, 8.6585369, -0.0446479
-1.0161133, 0.1416016, -0.0263672, -2.5, -8.2926826, 8.780488, -0.0439765
-1.0214844, 0.1401367, -0.0263672, -1.8902439, -9.2073174, 8.9024391, -0.0433051
-1.0214844, 0.140625, -0.0317383, -1.7682927, -8.841464, 9.0853662, -0.0392767
-1.0234375, 0.1318359, -0.0356445, -1.7073171, -8.719512, 9.0853662, -0.0332341
-1.0249023, 0.1259766, -0.034668, -2.0121951, -9.0853662, 8.780488, -0.0292058
-1.0292969, 0.1269531, -0.0322266, -1.6463414, -9.2073174, 8.780488, -0.0386053
-1.0327148, 0.1289062, -0.03125, -1.0365853, -9.9390249, 8.719512, -0.0386053
-1.027832, 0.1328125, -0.0336914, -0.4878049, -10.060976, 8.9634151, -0.0359197
-1.0249023, 0.1357422, -0.0400391, 0.1829268, -10.060976, 9.2073174, -0.0365911
-1.0180664, 0.1416016, -0.046875, 0.5487805, -9.8780489, 9.5121956, -0.0352483
-1.012207, 0.1435547, -0.0488281, 0.7317073, -9.4512196, 9.3292685, -0.042298
-1.0048828, 0.1508789, -0.0556641, 0.4878049, -9.1463413, 9.3902445, -0.0399481
-0.9985352, 0.1552734, -0.0610352, 1.0365853, -9.1463413, 9.5121956, -0.0392767
-0.9980469, 0.1591797, -0.059082, 0.6097561, -8.5975609, 9.1463413, -0.0392767
-0.9912109, 0.1611328, -0.0644531, 0.5487805, -8.6585369, 8.9024391, -0.0332341
-0.9897461, 0.1640625, -0.0649414, -0.5487805, -8.9024391, 8.4146347, -0.0339055
-0.9882812, 0.1582031, -0.059082, -1.097561, -8.780488, 8.1707315, -0.0419623
-0.9902344, 0.1557617, -0.0571289, -2.1341465, -8.841464, 7.4390244, -0.0406195
-0.9873047, 0.1435547, -0.0541992, -2.4390244, -8.719512, 7.3780489, -0.0439765
-0.9897461, 0.1401367, -0.0478516, -2.8658538, -8.9024391, 7.1341467, -0.0480049
-0.9960938, 0.1342773, -0.034668, -2.7439024, -8.9024391, 7.1341467, -0.0520333
-0.9921875, 0.1289062, -0.0327148, -2.5609756, -9.3902445, 6.7073174, -0.0594186
-0.9931641, 0.1206055, -0.0429688, -2.8658538, -9.4512196, 6.280488, -0.0533761
-0.9980469, 0.1137695, -0.0527344, -3.4756098, -9.3292685, 5.5487804, -0.0513619
-1.0043945, 0.1083984, -0.0532227, -4.0853658, -9.6951218, 5.3048782, -0.0530404
-1.0112305, 0.1088867, -0.0585938, -4.2682929, -9.7560978, 5.4268293, -0.0513619
-1.0151367, 0.1079102, -0.0629883, -4.4512196, -9.6951218, 5.4268293, -0.042298
-1.0141602, 0.0991211, -0.0625, -4.8170733, -9.7560978, 5.7926831, -0.0446479
-1.0151367, 0.0986328, -0.0600586, -4.9390244, -10.060976, 5.9756098, -0.0540475
-1.012207, 0.090332, -0.0620117, -4.5731707, -10.5487804, 6.0975609, -0.0486763
-1.0141602, 0.0869141, -0.065918, -3.8414636, -11.280488, 5.8536587, -0.0486763
-1.0126953, 0.0830078, -0.0629883, -3.6585367, -11.0365858, 5.7926831, -0.0419623
-1.0151367, 0.0825195, -0.0615234, -3.7195122, -11.0975609, 6.2195125, -0.0433051
-1.0170898, 0.0859375, -0.0634766, -3.2926829, -11.341464, 6.4024391, -0.0486763
-1.0214844, 0.0898438, -0.0732422, -3.2317073, -11.7073174, 7.0121951, -0.049012
-1.0239258, 0.0957031, -0.0786133, -2.5, -12.3780489, 7.5, -0.0493477
-1.0205078, 0.0917969, -0.0800781, -2.2560976, -12.3780489, 7.8658538, -0.0486763
-1.0200195, 0.090332, -0.0859375, -1.8292683, -13.3536587, 7.6829271, -0.0493477
-1.019043, 0.0805664, -0.097168, -1.2195122, -13.9024391, 8.1097565, -0.0513619
-1.015625, 0.0751953, -0.0981445, -0.8536586, -14.2682934, 8.1097565, -0.0533761
-1.0141602, 0.0727539, -0.0874023, -0.5487805, -14.3292685, 8.1707315, -0.0476692
-1.0185547, 0.0766602, -0.0810547, 0.0609756, -14.4512196, 8.5975609, -0.0506905
-1.0224609, 0.0825195, -0.0893555, 0.9146342, -14.6341467, 8.841464, -0.0473335
-1.0200195, 0.0913086, -0.0932617, 1.8292683, -14.8170738, 9.1463413, -0.0419623
-1.0141602, 0.1015625, -0.0898438, 1.5243902, -14.7560978, 9.4512196, -0.0396124
-1.0004883, 0.1230469, -0.0664062, 0.9756098, -14.8170738, 10.060976, -0.0406195
-0.9960938, 0.1381836, -0.0556641, 0.4268293, -15.1219511, 10.7317076, -0.0365911
-0.984375, 0.1572266, -0.0478516, 0.1219512, -15.5487804, 10.9146347, -0.0369268
-0.9775391, 0.1660156, -0.043457, -0.8536586, -15.7926836, 11.1585369, -0.0426337
-0.9692383, 0.1782227, -0.0361328, -1.2804878, -15.8536587, 10.6097565, -0.0399481
-0.9692383, 0.1865234, -0.0307617, -2.1341465, -15.5487804, 9.7560978, -0.0399481
-0.9697266, 0.1875, -0.0292969, -2.3170731, -15.3048782, 9.2682924, -0.0379339
-0.9750977, 0.1948242, -0.0297852, -2.9878049, -15.1219511, 8.719512, -0.0352483
-0.980957, 0.1943359, -0.0273438, -3.1097562, -15.1219511, 8.4756098, -0.0365911
-0.9868164, 0.1948242, -0.0268555, -3.3536587, -15.060976, 7.9268293, -0.0392767
-1, 0.1948242, -0.0302734, -3.7195122, -14.5731707, 7.8658538, -0.0325628
-1.0166016, 0.1938477, -0.0356445, -5.1219511, -14.0853662, 7.6829271, -0.0298772
-1.0214844, 0.1918945, -0.0351562, -6.280488, -13.9634151, 7.6219516, -0.0318914
-1.0258789, 0.1860352, -0.0268555, -6.8292685, -13.9024391, 7.7439027, -0.0325628
-1.027832, 0.184082, -0.0249023, -7.5, -14.1463413, 8.3536587, -0.0298772
-1.019043, 0.1767578, -0.0136719, -7.7439027, -14.2682934, 8.5975609, -0.03122
-1.0161133, 0.175293, -0.0102539, -8.780488, -14.5121956, 8.719512, -0.0419623
-1.0039062, 0.168457, -0.0019531, -9.4512196, -14.4512196, 8.841464, -0.0359197
-0.9985352, 0.1674805, 0.0097656, -10, -15.060976, 8.4146347, -0.0419623
-0.9873047, 0.1538086, 0.0219727, -10.1829271, -15.1219511, 8.2926826, -0.0436408
-0.9741211, 0.1450195, 0.0302734, -10.3658543, -15.1829271, 7.5609756, -0.0396124
-0.9736328, 0.1430664, 0.0297852, -10.2439022, -15.060976, 6.9512196, -0.0392767
-0.9750977, 0.1425781, 0.0322266, -10.2439022, -14.3902445, 6.1585369, -0.0433051
-0.9750977, 0.1499023, 0.0307617, -10.2439022, -14.0243902, 5.1219511, -0.0473335
-0.9770508, 0.168457, 0.0166016, -10.3048782, -13.841464, 4.5121951, -0.0345769
-0.9794922, 0.1796875, 0.0073242, -10.9146347, -13.5975609, 3.7804878, -0.0392767
-0.9882812, 0.2001953, -0.0004883, -11.6463413, -13.2926836, 3.2926829, -0.0433051
-0.9892578, 0.2080078, -0.0019531, -13.2926836, -12.8048782, 3.2317073, -0.0446479
-1, 0.2231445, -0.0078125, -14.0243902, -12.7439032, 3.0487804, -0.0459907
-0.9990234, 0.2216797, -0.0092773, -15.1829271, -13.4146347, 2.6829269, -0.0533761
-1.0053711, 0.2216797, -0.0146484, -15.9146347, -13.4146347, 2.4390244, -0.0476692
-1.0039062, 0.2055664, -0.0141602, -17.5, -13.4146347, 2.195122, -0.0426337
-1.0009766, 0.1977539, -0.0161133, -17.8048782, -13.4146347, 2.0121951, -0.0449836
-1.0058594, 0.1772461, -0.0205078, -18.0487804, -13.4756098, 1.7073171, -0.0459907
-1.0107422, 0.1660156, -0.0263672, -17.8048782, -13.3536587, 0.9756098, -0.0426337
-1.0126953, 0.1386719, -0.0307617, -17.8048782, -13.5365858, 1.2195122, -0.0406195
-1.0126953, 0.1333008, -0.0317383, -17.560976, -13.6585369, 1.2195122, -0.0473335
-1.003418, 0.1166992, -0.0356445, -17.439024, -13.4146347, 1.6463414, -0.0426337
-0.9980469, 0.1108398, -0.0341797, -17.2560978, -13.4146347, 1.7682927, -0.0365911
-0.9814453, 0.1152344, -0.0273438, -17.0121956, -13.5365858, 1.7682927, -0.0392767
-0.972168, 0.1210938, -0.0322266, -17.1951218, -13.4756098, 2.0731707, -0.0339055
-0.9580078, 0.1396484, -0.0229492, -17.6219521, -13.4146347, 2.0731707, -0.0365911
-0.953125, 0.1728516, -0.0141602, -18.5365849, -12.9268293, 2.0121951, -0.0399481
-0.9414062, 0.1899414, -0.0126953, -19.1463413, -12.9878054, 1.9512196, -0.0433051
-0.9399414, 0.2050781, -0.0126953, -20.3658543, -12.4390249, 1.2195122, -0.0369268
-0.9448242, 0.2055664, -0.0146484, -21.3414631, -11.5243902, 0, -0.0339055
-0.9536133, 0.2060547, -0.0136719, -22.0121956, -11.5243902, -0.7926829, -0.0379339
-0.9648438, 0.1977539, -0.0131836, -23.3536587, -11.0975609, -1.8902439, -0.0500191
-0.984375, 0.1757812, -0.0107422, -23.780489, -11.280488, -1.9512196, -0.0493477
-0.9921875, 0.1660156, -0.0141602, -24.3292694, -11.219512, -2.195122, -0.0433051
-1.0068359, 0.1435547, -0.0097656, -24.8780499, -10.9756098, -1.9512196, -0.0412909
-1.0112305, 0.1391602, -0.0058594, -24.9390259, -10.9146347, -1.5243902, -0.0449836
-1.0229492, 0.1303711, 0.0019531, -24.5731716, -10.7317076, -1.3414634, -0.0513619
-1.0239258, 0.125, -0.003418, -24.4512196, -11.1585369, -1.1585366, -0.0392767
-1.0249023, 0.128418, -0.0131836, -23.8414631, -11.4634151, -1.1585366, -0.0433051
-1.0229492, 0.1357422, -0.0273438, -23.4146347, -11.5853662, -0.6707317, -0.0446479
-1.0166016, 0.1318359, -0.0273438, -23.0487804, -11.4634151, -0.4268293, -0.0406195
-1.0166016, 0.1367188, -0.0419922, -23.1707325, -11.5853662, -0.3048781, -0.0399481
-1.012207, 0.1337891, -0.0449219, -23.6585369, -12.0731707, -0.3048781, -0.0382696
-1.0117188, 0.1328125, -0.0546875, -23.8414631, -12.1341467, -0.1829268, -0.0392767
-1.0112305, 0.1259766, -0.0541992, -23.4756107, -12.4390249, 0.6707317, -0.035584
-1.0092773, 0.1147461, -0.0581055, -23.1707325, -12.1341467, 0.9146342, -0.0399481
-1.0083008, 0.1083984, -0.0546875, -22.1951218, -12.0731707, 1.0365853, -0.0486763
-1.003418, 0.1040039, -0.0600586, -21.5853672, -12.5, 1.1585366, -0.0419623
-0.9970703, 0.1049805, -0.0517578, -20.6097565, -12.6829271, 1.5243902, -0.0379339
-0.9951172, 0.1098633, -0.0444336, -20.5487804, -12.1341467, 1.7682927, -0.0412909
-0.996582, 0.1333008, -0.0336914, -20.4878044, -12.1341467, 2.1341465, -0.0379339
-0.9970703, 0.1430664, -0.0297852, -20.7317085, -12.9878054, 2.6829269, -0.0433051
-0.9921875, 0.1533203, -0.0317383, -20.6707325, -12.7439032, 2.7439024, -0.0459907
-0.9946289, 0.1577148, -0.0239258, -20.6097565, -13.2317076, 2.6219513, -0.0379339
-0.9936523, 0.1513672, -0.0200195, -20.8536587, -13.1097565, 2.2560976, -0.0453193
-0.9980469, 0.1459961, -0.0161133, -20.9146347, -13.4146347, 2.0731707, -0.0520333
-0.9975586, 0.1381836, -0.0078125, -20.4878044, -13.2926836, 2.1341465, -0.0500191
-0.9975586, 0.1362305, -0.0068359, -19.8170738, -12.7439032, 2.1341465, -0.0419623
-1.0039062, 0.1323242, -0.0039062, -19.5731716, -12.6829271, 2.3170731, -0.0412909
-1.0053711, 0.1381836, 0.0053711, -19.0853672, -12.1951218, 2.9878049, -0.0439765
-1.0068359, 0.1396484, 0.0058594, -18.5975609, -12.0731707, 2.9878049, -0.0466621
-1.0024414, 0.1518555, -0.0053711, -19.2073174, -12.1341467, 3.1707318, -0.0446479
-1.0043945, 0.1567383, -0.0141602, -20.5487804, -11.8292685, 3.0487804, -0.0369268
-1.0087891, 0.1723633, -0.0249023, -20.8536587, -12.0731707, 2.9268293, -0.0459907
-1.0136719, 0.1748047, -0.0253906, -22.0731716, -12.7439032, 2.7439024, -0.0500191
-1.015625, 0.1723633, -0.0273438, -22.3170738, -12.6829271, 2.9268293, -0.0533761
-1.0175781, 0.1635742, -0.0234375, -21.8902435, -13.1097565, 3.2317073, -0.0446479
-1.0297852, 0.1459961, -0.0307617, -21.5853672, -13.1097565, 3.5365853, -0.0459907
-1.03125, 0.137207, -0.0356445, -20.8536587, -13.4756098, 3.1707318, -0.0473335
-1.0351562, 0.1245117, -0.0322266, -20.4268303, -13.5975609, 3.2317073, -0.0513619
-1.0444336, 0.128418, -0.03125, -19.939024, -14.3292685, 3.1097562, -0.0453193
-1.0449219, 0.137207, -0.0288086, -19.8170738, -14.3902445, 3.1707318, -0.0459907
-1.0473633, 0.1577148, -0.0332031, -19.5121956, -14.9390249, 3.7195122, -0.0459907
-1.0527344, 0.1655273, -0.0327148, -18.5365849, -15.3048782, 4.390244, -0.0392767
-1.050293, 0.1791992, -0.0229492, -18.5365849, -15.5487804, 4.8780489, -0.0392767
-1.0522461, 0.1845703, -0.0239258, -18.2317085, -15.9756098, 5.1219511, -0.0365911
-1.0458984, 0.1821289, -0.0229492, -18.5365849, -15.6707325, 5.3658538, -0.0379339
-1.0458984, 0.1757812, -0.0229492, -18.4146347, -15.6707325, 5.670732, -0.0480049
-1.0419922, 0.1601562, -0.0239258, -18.4146347, -15.9756098, 5.670732, -0.0459907
-1.034668, 0.1572266, -0.0258789, -18.4756107, -16.4024391, 5.7317076, -0.0466621
-1.027832, 0.1401367, -0.019043, -18.4756107, -16.8902435, 5.9146342, -0.0439765
-1.0166016, 0.1391602, -0.0083008, -19.2073174, -17.7439022, 6.5243902, -0.0459907
-1.0092773, 0.1352539, -0.0039062, -18.9024391, -17.9268303, 6.8292685, -0.0436408
-1.0004883, 0.1425781, -0.0009766, -17.6829281, -17.6829281, 7.0731707, -0.0433051
-0.9951172, 0.1484375, -0.0029297, -16.7073174, -17.8048782, 7.2560978, -0.0463264
-0.996582, 0.1547852, -0.0083008, -15.7317076, -17.560976, 7.0731707, -0.0433051
-1, 0.1606445, -0.0126953, -15.1219511, -17.3780499, 6.5853658, -0.0386053
-1.0087891, 0.168457, -0.0263672, -14.8780489, -17.439024, 6.5853658, -0.0379339
-1.0092773, 0.1699219, -0.034668, -15.1219511, -17.7439022, 6.6463418, -0.0382696
-1.0234375, 0.1655273, -0.0395508, -15.6707325, -17.9878044, 6.7682929, -0.0399481
-1.0229492, 0.1635742, -0.0395508, -15.9756098, -18.3536587, 7.5, -0.0406195
-1.0205078, 0.1494141, -0.0302734, -16.280489, -18.8414631, 7.8658538, -0.0406195
-1.0092773, 0.1401367, -0.0229492, -15.7317076, -19.0853672, 8.3536587, -0.0459907
-1.0083008, 0.1396484, -0.0136719, -15.6097565, -19.3292694, 8.6585369, -0.0500191
-0.9970703, 0.1445312, 0.0014648, -14.6951227, -19.0853672, 8.6585369, -0.0543832
-0.9985352, 0.1567383, 0.0043945, -13.841464, -18.4756107, 7.9268293, -0.0500191
-1.0039062, 0.1738281, 0.0175781, -13.6585369, -18.1707325, 7.7439027, -0.0386053
-1.0087891, 0.1865234, 0.0219727, -13.4146347, -17.0731716, 6.890244, -0.0379339
-1.0175781, 0.2158203, 0.0268555, -13.4146347, -16.8292694, 6.5853658, -0.0446479
-1.0249023, 0.2231445, 0.0288086, -13.7195129, -16.5853653, 6.0975609, -0.0486763
-1.0317383, 0.2412109, 0.0200195, -14.1463413, -16.4634151, 5.8536587, -0.056733
-1.0322266, 0.2402344, 0.0185547, -15.1829271, -15.8536587, 5.670732, -0.0580758
-1.0341797, 0.2358398, 0.015625, -16.0365849, -15.6707325, 5.7926831, -0.0540475
-1.0258789, 0.2250977, 0.0107422, -16.8902435, -15.6097565, 5.670732, -0.0520333
-1.0229492, 0.2119141, 0.0009766, -17.6219521, -15.5487804, 5.5487804, -0.0513619
-1.0219727, 0.1967773, -0.0170898, -18.7195129, -15.2439032, 5.3658538, -0.0533761
-1.0180664, 0.1923828, -0.0224609, -19.5121956, -15.2439032, 5.1829271, -0.049012
-1.0092773, 0.1772461, -0.0351562, -20.060976, -15.1829271, 5.3048782, -0.0500191
-1.0053711, 0.1665039, -0.0336914, -20.3048782, -14.5731707, 5.3048782, -0.0500191
-0.9990234, 0.1611328, -0.027832, -20.1219521, -14.1463413, 5, -0.0486763
-0.9985352, 0.1640625, -0.0234375, -19.6341476, -13.3536587, 5.1219511, -0.0433051
-0.9970703, 0.1621094, -0.0068359, -19.2682934, -13.2926836, 4.6951222, -0.0473335
-1.0009766, 0.1704102, -0.0043945, -18.9634151, -13.1097565, 4.5121951, -0.0359197
-0.9897461, 0.1831055, -0.0058594, -18.9024391, -13.0487804, 4.390244, -0.0433051
-0.984375, 0.1870117, -0.0102539, -19.3292694, -13.2926836, 4.0853658, -0.0419623
-0.9882812, 0.1879883, -0.015625, -19.4512196, -12.9268293, 2.804878, -0.0412909
-0.9926758, 0.1870117, -0.0253906, -20.1219521, -12.560976, 2.2560976, -0.0352483
-0.9956055, 0.1811523, -0.0249023, -21.3414631, -12.1951218, 1.8292683, -0.0392767
-1.0029297, 0.1743164, -0.0102539, -21.5853672, -11.7073174, 2.0121951, -0.0412909
-1.0048828, 0.1674805, -0.0014648, -22.1341476, -12.1341467, 2.0121951, -0.0419623
-1.0014648, 0.1645508, 0.0161133, -23.0487804, -12.1341467, 2.5, -0.0392767
-0.9980469, 0.1616211, 0.0229492, -24.5121956, -11.5243902, 2.2560976, -0.0439765
-0.9907227, 0.1679688, 0.0371094, -25.3048782, -11.0975609, 1.8902439, -0.0463264
-0.9853516, 0.1713867, 0.0532227, -27.2560978, -10.9756098, 0.8536586, -0.0459907
-0.984375, 0.1870117, 0.078125, -27.560976, -10.6097565, 0.6097561, -0.0412909
-0.9804688, 0.2041016, 0.1142578, -28.2317085, -9.4512196, -0.1829268, -0.0533761
-0.9833984, 0.2104492, 0.1367188, -28.780489, -7.9878049, -0.3048781, -0.0453193
-0.9760742, 0.2431641, 0.1601562, -28.9024391, -7.0121951, -0.3658537, -0.0352483
-0.9716797, 0.2558594, 0.1611328, -29.7560978, -4.8780489, -0.6097561, -0.0433051
-0.972168, 0.2758789, 0.1450195, -30.3048782, -4.1463413, -1.3414634, -0.0486763
-0.9770508, 0.2875977, 0.1318359, -31.2195129, -3.0487804, -2.3780489, -0.0433051
-0.9853516, 0.3027344, 0.1015625, -31.9512196, -2.6219513, -3.3536587, -0.0466621
-0.984375, 0.3051758, 0.0917969, -34.4512215, -1.5243902, -4.1463413, -0.0496834
-0.9853516, 0.2929688, 0.0654297, -35.5487823, -0.9146342, -4.6341462, -0.0436408
-0.9829102, 0.2758789, 0.0556641, -36.7682953, 0.0609756, -5.4268293, -0.0412909
-0.9863281, 0.234375, 0.0439453, -37.0121956, 0.4268293, -5.8536587, -0.0433051
-0.9799805, 0.1889648, 0.03125, -36.4024391, 0.6097561, -6.4024391, -0.0473335
-0.9785156, 0.1645508, 0.0244141, -34.4512215, 0.7317073, -6.280488, -0.0412909
-0.9707031, 0.1308594, 0.0009766, -33.6585388, 0.9756098, -6.0975609, -0.0396124
-0.9682617, 0.1171875, -0.0112305, -31.4024391, 1.097561, -5.9146342, -0.0439765
-0.9663086, 0.1088867, -0.0307617, -30.9146347, 1.0365853, -5.7926831, -0.0406195
-0.9614258, 0.105957, -0.0463867, -29.3292694, 0.6707317, -5.3048782, -0.0459907
-0.9624023, 0.1196289, -0.0688477, -28.3536587, 0.7317073, -4.9390244, -0.0419623
-0.9609375, 0.1303711, -0.0791016, -26.5243912, 0.4878049, -4.2682929, -0.03122
-0.956543, 0.1396484, -0.0927734, -25.9756107, 0.5487805, -3.9024391, -0.0379339
-0.9536133, 0.1450195, -0.1030273, -25.4878063, 0.2439024, -3.5975611, -0.0379339
-0.9555664, 0.1425781, -0.1142578, -25.3658543, 0, -3.5365853, -0.0406195
-0.9560547, 0.1362305, -0.1015625, -25.4268303, -0.6707317, -3.5365853, -0.0409552
-0.9536133, 0.137207, -0.0908203, -25.060976, -0.5487805, -2.8658538, -0.0466621
-0.9487305, 0.1430664, -0.0654297, -24.6341476, -0.7317073, -2.195122, -0.0439765
-0.9462891, 0.1508789, -0.0454102, -24.3902435, -0.9146342, -1.4634147, -0.0382696
-0.9453125, 0.1606445, -0.0229492, -24.2682934, -1.3414634, -1.2804878, -0.0379339
-0.9448242, 0.1635742, -0.0224609, -24.2073174, -2.0121951, -1.7682927, -0.0449836
-0.9428711, 0.1674805, -0.0195312, -24.6341476, -2.6219513, -2.1341465, -0.0459907
-0.9404297, 0.1674805, -0.0224609, -24.5121956, -3.1707318, -2.6219513, -0.0379339
-0.9462891, 0.1586914, -0.0234375, -24.0853672, -3.0487804, -2.9268293, -0.0298772
-0.9487305, 0.152832, -0.0327148, -24.3292694, -3.1097562, -2.7439024, -0.0352483
-0.953125, 0.1352539, -0.0449219, -24.6341476, -3.3536587, -2.7439024, -0.0406195
-0.9570312, 0.1064453, -0.0546875, -24.7560978, -3.7804878, -2.0731707, -0.0406195
-0.9570312, 0.0942383, -0.050293, -24.0853672, -3.9634147, -1.6463414, -0.0446479
-0.9633789, 0.0727539, -0.0551758, -23.9634151, -4.3292685, -1.097561, -0.0369268
-0.9663086, 0.0688477, -0.0600586, -22.8658543, -4.1463413, -0.5487805, -0.0379339
-0.9702148, 0.0615234, -0.0620117, -22.2560978, -4.1463413, -0.2439024, -0.0372625
-0.9716797, 0.0668945, -0.0556641, -20.7317085, -4.0243902, 0.8536586, -0.0372625
-0.9790039, 0.0844727, -0.0493164, -19.939024, -4.0243902, 0.8536586, -0.0352483
-0.984375, 0.0961914, -0.0498047, -18.0487804, -4.5121951, 1.5243902, -0.0386053
-0.9868164, 0.1191406, -0.043457, -17.439024, -4.6951222, 1.4634147, -0.03122
-0.9882812, 0.1323242, -0.0507812, -16.4024391, -5.9146342, 1.8902439, -0.0352483
-0.9907227, 0.1533203, -0.0561523, -16.280489, -6.7682929, 1.7682927, -0.0328985
-0.9931641, 0.1625977, -0.065918, -15.4268293, -7.3170733, 2.1341465, -0.0406195
-0.9926758, 0.1635742, -0.065918, -15.8536587, -8.0487804, 2.4390244, -0.0436408
-0.9882812, 0.1606445, -0.0639648, -15.6707325, -8.2926826, 2.804878, -0.0486763
-0.9882812, 0.1567383, -0.0581055, -15.6097565, -8.780488, 2.9268293, -0.0412909
-0.9873047, 0.1430664, -0.0444336, -15.6707325, -8.9024391, 3.2317073, -0.0345769
-0.984375, 0.1416016, -0.0351562, -15.6707325, -8.9634151, 3.5365853, -0.0332341
-0.9814453, 0.1430664, -0.0180664, -15.4878054, -9.1463413, 3.4756098, -0.0365911
-0.9794922, 0.1420898, -0.0092773, -14.5731707, -9.0853662, 3.9024391, -0.0412909
-0.9819336, 0.1401367, -0.0053711, -14.6341467, -8.9634151, 3.6585367, -0.0392767
-0.9863281, 0.1401367, -0.0019531, -14.3292685, -9.2682924, 3.7195122, -0.0392767
-0.9848633, 0.137207, -0.0083008, -14.1463413, -9.0853662, 3.5365853, -0.0365911
-0.9907227, 0.1323242, -0.0234375, -13.841464, -9.5121956, 3.5975611, -0.0433051
-0.9882812, 0.1264648, -0.0302734, -13.4146347, -9.5731707, 3.7195122, -0.0486763
-1.0009766, 0.112793, -0.0375977, -13.3536587, -9.8170738, 3.3536587, -0.0446479
-0.9956055, 0.1035156, -0.0439453, -13.0487804, -10.2439022, 3.8414636, -0.0433051
-1.0024414, 0.0947266, -0.0478516, -12.3780489, -10.3048782, 4.0853658, -0.0443122
-1.0068359, 0.0922852, -0.0493164, -11.8902445, -10.3048782, 5.3048782, -0.0463264
-1.0097656, 0.0908203, -0.0537109, -11.6463413, -10.6707315, 5.4268293, -0.0500191
-1.0117188, 0.0927734, -0.0546875, -11.0975609, -10.9756098, 5.9756098, -0.0493477
-1.0102539, 0.1069336, -0.0546875, -10.4878054, -11.4634151, 6.2195125, -0.0409552
-1.0097656, 0.121582, -0.0380859, -9.6951218, -11.5853662, 6.9512196, -0.0379339
-1.0092773, 0.1279297, -0.0258789, -9.4512196, -11.8902445, 7.1341467, -0.0439765
-1.0112305, 0.1455078, -0.012207, -8.5365858, -11.8292685, 7.4390244, -0.0516976
-1.0112305, 0.1552734, -0.0039062, -7.9878049, -12.0731707, 7.3170733, -0.0419623
-1.0180664, 0.1748047, 0.0131836, -7.8048782, -11.9512196, 7.5609756, -0.0443122
-1.0185547, 0.1850586, 0.0219727, -7.5, -11.8902445, 7.3170733, -0.0527047
-1.0253906, 0.2050781, 0.0283203, -7.6219516, -11.8902445, 7.2560978, -0.0473335
-1.0229492, 0.2075195, 0.0322266, -7.8658538, -11.4024391, 7.0121951, -0.0459907
-1.0195312, 0.2133789, 0.0473633, -8.3536587, -11.8292685, 6.8292685, -0.0500191
-1.0170898, 0.2089844, 0.0625, -9.2073174, -11.0975609, 6.5243902, -0.0506905
-1.0195312, 0.206543, 0.0893555, -9.6341467, -10.9146347, 6.0365853, -0.0459907
-1.0185547, 0.206543, 0.0986328, -9.6951218, -10.4878054, 5.609756, -0.0503548
-1.0214844, 0.2099609, 0.0976562, -9.7560978, -10.3658543, 5.0609756, -0.0439765
-1.0151367, 0.2167969, 0.0942383, -9.7560978, -9.9390249, 4.3292685, -0.0433051
-1.0141602, 0.2241211, 0.0849609, -9.5121956, -9.2682924, 3.8414636, -0.0446479
-1.0102539, 0.2241211, 0.0668945, -9.7560978, -8.780488, 3.3536587, -0.0419623
-1.0102539, 0.2197266, 0.0561523, -10.1219511, -7.9878049, 2.5, -0.0473335
-1.0126953, 0.2099609, 0.0380859, -10.4878054, -7.9878049, 2.3170731, -0.0493477
-1.0161133, 0.1992188, 0.0307617, -11.280488, -7.6829271, 2.0121951, -0.0446479
-1.0175781, 0.1772461, 0.0146484, -11.5243902, -7.5, 1.9512196, -0.0500191
-1.0175781, 0.1708984, 0.0068359, -12.0121956, -7.3170733, 2.1341465, -0.0486763
-1.0097656, 0.152832, -0.0009766, -12.5, -7.5, 2.0731707, -0.0486763
-1.0078125, 0.1347656, -0.0136719, -12.560976, -7.7439027, 2.0121951, -0.0352483
-1.0053711, 0.1293945, -0.0249023, -12.8658543, -8.1707315, 2.1341465, -0.03122
-1.0029297, 0.1279297, -0.0424805, -12.7439032, -8.2926826, 1.9512196, -0.0339055
-0.9990234, 0.1254883, -0.0507812, -12.6219511, -8.5975609, 1.8292683, -0.0352483
-0.9907227, 0.1293945, -0.0634766, -12.5, -8.5365858, 2.0731707, -0.0332341
-0.9907227, 0.1308594, -0.0625, -12.4390249, -8.4146347, 2.2560976, -0.0412909
-0.9916992, 0.137207, -0.0537109, -12.3170738, -8.719512, 2.2560976, -0.0419623
-0.9956055, 0.1396484, -0.0537109, -11.8292685, -8.4146347, 2.9268293, -0.0459907
-0.9985352, 0.1416016, -0.0395508, -11.341464, -8.780488, 3.2317073, -0.0439765
-0.9980469, 0.1430664, -0.0322266, -11.1585369, -9.2073174, 3.3536587, -0.0419623
-1, 0.1508789, -0.0234375, -10.9756098, -9.2682924, 3.3536587, -0.0419623
-1.0024414, 0.1542969, -0.015625, -10.4268293, -9.4512196, 3.2317073, -0.0500191
-1.0063477, 0.159668, -0.012207, -10.6707315, -9.6341467, 3.2926829, -0.0540475
-1.0112305, 0.1674805, -0.0043945, -10.3658543, -10.060976, 3.6585367, -0.0399481
-1.0112305, 0.1728516, -0.0024414, -9.7560978, -10.1219511, 4.1463413, -0.0399481
-1.0097656, 0.1738281, 0.0073242, -9.8780489, -10.1219511, 4.1463413, -0.0392767
-1.0063477, 0.1713867, 0.0141602, -9.7560978, -10.1829271, 4.3292685, -0.0365911
-0.9970703, 0.1708984, 0.0239258, -9.6341467, -10.1219511, 4.5121951, -0.0433051
-1.0014648, 0.1669922, 0.0258789, -9.8170738, -9.6951218, 4.390244, -0.0486763
-0.996582, 0.1674805, 0.0307617, -10, -9.6341467, 4.3292685, -0.0500191
-0.9970703, 0.1689453, 0.034668, -9.8780489, -9.5731707, 3.9634147, -0.0433051
-0.9931641, 0.1738281, 0.0395508, -9.5731707, -9.6951218, 3.9024391, -0.0412909
-0.9907227, 0.1777344, 0.0429688, -8.6585369, -9.2073174, 3.7195122, -0.0459907
-0.9916992, 0.1791992, 0.0405273, -8.3536587, -9.1463413, 4.0243902, -0.0493477
-0.9833984, 0.1845703, 0.0307617, -8.719512, -8.5975609, 4.0853658, -0.0540475
-0.987793, 0.1894531, 0.0249023, -8.9634151, -8.5975609, 3.3536587, -0.0486763
-0.9814453, 0.1889648, 0.0166016, -9.3292685, -8.6585369, 3.1097562, -0.0506905
-0.9833984, 0.1904297, 0.0112305, -9.4512196, -8.4146347, 3.0487804, -0.0527047
-0.980957, 0.1870117, -0.0063477, -9.6951218, -8.3536587, 2.8658538, -0.0553902
-0.9775391, 0.1767578, -0.0151367, -10.3048782, -8.3536587, 2.5, -0.0439765
-0.9829102, 0.1625977, -0.0307617, -10.3658543, -8.2926826, 2.5, -0.0459907
-0.987793, 0.152832, -0.0366211, -10.4878054, -7.9878049, 2.2560976, -0.0527047
-0.9887695, 0.1425781, -0.0375977, -10.4878054, -8.2926826, 2.3170731, -0.0500191
-0.9951172, 0.1313477, -0.0371094, -10.060976, -8.3536587, 2.6829269, -0.0439765
-0.996582, 0.1298828, -0.0400391, -9.5121956, -8.1097565, 3.2317073, -0.0486763
-0.9941406, 0.1347656, -0.0405273, -9.0243902, -8.2317076, 3.1707318, -0.0513619
-0.9941406, 0.1386719, -0.0463867, -8.5975609, -9.1463413, 3.2317073, -0.0439765
-1.0004883, 0.1459961, -0.0483398, -8.9634151, -9.0243902, 3.3536587, -0.0466621
-1.0009766, 0.1499023, -0.050293, -9.3902445, -9.3292685, 3.3536587, -0.0446479
-1.0004883, 0.1552734, -0.0522461, -9.5731707, -9.6341467, 3.4756098, -0.0459907
-0.996582, 0.1552734, -0.0458984, -9.5731707, -10, 3.7804878, -0.0386053
-0.9926758, 0.1542969, -0.0361328, -9.5121956, -10.060976, 3.7804878, -0.0339055
-0.9907227, 0.1538086, -0.027832, -8.9024391, -10.4878054, 4.1463413, -0.03122
-0.9868164, 0.1479492, -0.0214844, -9.0243902, -10.9756098, 4.3292685, -0.0392767
-0.9848633, 0.1435547, -0.0126953, -8.2926826, -10.7926836, 4.6341462, -0.0426337
-0.9804688, 0.1445312, -0.0146484, -8.1097565, -11.0365858, 4.6951222, -0.0433051
-0.9785156, 0.140625, -0.0092773, -8.2317076, -10.7926836, 4.6341462, -0.0419623
-0.9790039, 0.1396484, -0.0043945, -8.4756098, -10.1829271, 4.8170733, -0.0466621
-0.9755859, 0.1367188, 0.0024414, -8.1707315, -10.1829271, 4.8780489, -0.0527047
-0.9726562, 0.1411133, 0.0078125, -8.2317076, -10.1219511, 4.5121951, -0.0547189
-0.9682617, 0.1464844, 0.0112305, -8.5365858, -10, 4.6951222, -0.0527047
-0.9667969, 0.1494141, 0.0092773, -8.4756098, -9.5121956, 4.4512196, -0.0540475
-0.9707031, 0.1455078, 0.0087891, -8.4146347, -9.4512196, 4.5731707, -0.0527047
-0.9731445, 0.1459961, 0.0092773, -8.2317076, -9.0243902, 4.5731707, -0.0513619
-0.9790039, 0.1450195, -0.0048828, -8.3536587, -8.841464, 4.3292685, -0.0506905
-0.987793, 0.1386719, -0.015625, -8.9024391, -8.5365858, 4.3292685, -0.0476692
-0.9907227, 0.1367188, -0.0200195, -9.3292685, -8.0487804, 4.5121951, -0.0473335
-0.9887695, 0.1333008, -0.0224609, -10.060976, -7.6829271, 4.9390244, -0.0513619
-0.9912109, 0.1293945, -0.0180664, -10.6707315, -7.7439027, 5.1219511, -0.0433051
-0.9916992, 0.1362305, -0.0224609, -10.7317076, -7.7439027, 5.4878049, -0.0446479
-0.9912109, 0.1391602, -0.0205078, -10.6707315, -7.6219516, 5.3048782, -0.0473335
-0.9829102, 0.1381836, -0.012207, -10.8536587, -7.5609756, 5.3048782, -0.0453193
-0.9848633, 0.140625, -0.0117188, -10.060976, -7.5609756, 5.3658538, -0.0486763
-0.9868164, 0.1479492, -0.015625, -10.060976, -7.3170733, 5.2439027, -0.0540475
-0.9863281, 0.1518555, -0.0136719, -10.4878054, -6.6463418, 5.1219511, -0.0520333
-0.9897461, 0.1577148, -0.0078125, -10.5487804, -6.4024391, 5, -0.0419623
-0.9941406, 0.1704102, -0.0048828, -10.9756098, -6.4634147, 4.7560978, -0.0433051
-0.9990234, 0.1728516, -0.0092773, -10.9756098, -6.4024391, 4.7560978, -0.0419623
-1.0029297, 0.1821289, -0.0170898, -11.280488, -6.3414636, 4.7560978, -0.0369268
-1.0019531, 0.1835938, -0.015625, -12.0121956, -5.9756098, 4.9390244, -0.0466621
-0.9990234, 0.1811523, -0.0097656, -12.1951218, -5.670732, 4.8780489, -0.0459907
-0.9985352, 0.1757812, -0.003418, -12.7439032, -5.5487804, 4.5731707, -0.0473335
-1.0004883, 0.1708984, -0.0014648, -12.6219511, -5.4878049, 4.2682929, -0.0446479
-0.9970703, 0.1762695, 0.0014648, -12.8048782, -4.8780489, 4.2682929, -0.0466621
-0.9931641, 0.1772461, 0, -12.8658543, -4.9390244, 4.2073174, -0.0540475
-0.9897461, 0.1791992, -0.0004883, -13.9634151, -4.4512196, 4.1463413, -0.0527047
-0.9863281, 0.184082, -0.0024414, -14.0243902, -3.9024391, 3.9024391, -0.0540475
-0.984375, 0.1894531, -0.0063477, -14.1463413, -3.4756098, 3.5975611, -0.0459907
-0.9858398, 0.1879883, -0.0083008, -14.3902445, -3.3536587, 3.2317073, -0.0379339
-0.9853516, 0.1923828, -0.0019531, -14.6951227, -2.7439024, 2.7439024, -0.0372625
-0.9829102, 0.190918, -0.0053711, -15.1829271, -2.3780489, 2.6219513, -0.0399481
-0.9799805, 0.1821289, -0.0004883, -15.1219511, -2.3780489, 2.7439024, -0.0446479
-0.9765625, 0.1762695, 0.003418, -15.1829271, -2.1341465, 2.3170731, -0.049012
-0.9829102, 0.1713867, 0.003418, -15.3658543, -2.0731707, 2.0121951, -0.0453193
-0.9829102, 0.1689453, 0.0019531, -14.6341467, -1.6463414, 1.7682927, -0.0436408
-0.9838867, 0.1674805, -0.0024414, -15, -1.2195122, 1.5243902, -0.0486763
-0.9833984, 0.1743164, -0.0058594, -15.6707325, -0.4878049, 0.9756098, -0.0530404
-0.9882812, 0.1772461, -0.0078125, -15.6097565, -0.1219512, 1.1585366, -0.0480049
-1.0009766, 0.1748047, -0.0126953, -15.6707325, -0.2439024, 0.8536586, -0.0419623
-1.0048828, 0.175293, -0.0161133, -15.3048782, -0.7926829, 0.4268293, -0.0392767
-1.0019531, 0.1782227, -0.0283203, -15.2439032, -0.7317073, 0.3048781, -0.0406195
-1.0029297, 0.1757812, -0.0307617, -15.3048782, -0.6707317, -0.2439024, -0.0433051
-1.0073242, 0.1679688, -0.0332031, -15.6707325, -0.7317073, 0.1219512, -0.0446479
-1.0112305, 0.1625977, -0.0361328, -15.9146347, -0.8536586, 0.0609756, -0.0439765
-1.0117188, 0.1508789, -0.0390625, -15.7317076, -0.5487805, 0, -0.0406195
-1.0087891, 0.1503906, -0.0439453, -16.0365849, -0.1219512, 0.1219512, -0.0419623
-1.0112305, 0.1499023, -0.0463867, -16.2195129, -0.1219512, 0.3048781, -0.0365911
-1.0078125, 0.1499023, -0.0463867, -16.0975609, -0.7926829, 0.3658537, -0.0339055
-0.9975586, 0.1542969, -0.0410156, -15.7317076, -1.1585366, 0.3658537, -0.0399481
-0.9980469, 0.1508789, -0.0483398, -15.5487804, -1.402439, 0.1829268, -0.0446479
-0.9951172, 0.1513672, -0.0532227, -15.4878054, -1.8902439, 0.4878049, -0.0436408
-0.9897461, 0.1499023, -0.0551758, -15.3048782, -2.1341465, 0.5487805, -0.0406195
-0.9921875, 0.1484375, -0.0546875, -15, -1.8902439, 0.2439024, -0.0412909
-0.987793, 0.1484375, -0.0527344, -15.060976, -2.0121951, 0.4878049, -0.0439765
-0.9882812, 0.1523438, -0.0541992, -14.2682934, -2.0121951, 0.7317073, -0.0433051
-0.9814453, 0.1547852, -0.0483398, -13.9634151, -1.7682927, 0.6097561, -0.0446479
-0.9829102, 0.1557617, -0.0473633, -14.6951227, -1.4634147, 0.5487805, -0.0412909
-0.9819336, 0.1630859, -0.0419922, -14.8780489, -1.5243902, 0.5487805, -0.0406195
-0.9833984, 0.168457, -0.0361328, -15.1219511, -1.7682927, 0.1219512, -0.0406195
-0.9804688, 0.1743164, -0.0336914, -15.5487804, -2.0121951, 0.2439024, -0.0379339
-0.9804688, 0.1811523, -0.027832, -15.7317076, -1.8292683, 0.1829268, -0.0406195
-0.980957, 0.1782227, -0.0273438, -15.9146347, -1.9512196, -0.1219512, -0.0386053
-0.9897461, 0.1733398, -0.0200195, -16.280489, -1.5853659, -0.1829268, -0.0433051
-0.9902344, 0.1674805, -0.0195312, -16.0975609, -1.6463414, -0.3658537, -0.0412909
-1.0024414, 0.1508789, -0.0195312, -16.1585369, -1.8292683, -0.4878049, -0.0392767
-0.9995117, 0.1484375, -0.0200195, -15.7926836, -1.7682927, -0.3048781, -0.0500191
-1.0039062, 0.1401367, -0.0200195, -16.0365849, -1.6463414, -0.3048781, -0.0412909
-1.0097656, 0.1367188, -0.0175781, -15.4878054, -1.4634147, -0.2439024, -0.0392767
-1.0053711, 0.1323242, -0.0131836, -15.4268293, -1.6463414, 0, -0.0352483
-1.0053711, 0.1333008, -0.0146484, -15.060976, -1.5243902, 0.5487805, -0.03122
-1.0004883, 0.1318359, -0.0268555, -15.1219511, -1.6463414, 0.3658537, -0.0265202
-1, 0.1362305, -0.0336914, -15.3658543, -1.7682927, 0.9146342, -0.0372625
-0.9946289, 0.1420898, -0.034668, -15.4878054, -1.7073171, 1.1585366, -0.0352483
-0.9887695, 0.1411133, -0.0283203, -15.060976, -1.8292683, 1.5243902, -0.0258488
-0.9868164, 0.1411133, -0.0258789, -14.5731707, -1.5853659, 1.5853659, -0.0298772
-0.9755859, 0.1450195, -0.0283203, -14.2682934, -1.097561, 1.7073171, -0.0292058
-0.9726562, 0.1459961, -0.0327148, -14.3292685, -1.0365853, 1.0365853, -0.0271916
-0.9765625, 0.1499023, -0.0322266, -14.6951227, -1.3414634, 0.7926829, -0.03122
-0.9799805, 0.1542969, -0.0307617, -14.6951227, -1.097561, 0.5487805, -0.03122
-0.9863281, 0.1601562, -0.0297852, -14.5121956, -1.3414634, 0.3658537, -0.0271916
-0.9897461, 0.171875, -0.0273438, -14.8780489, -1.097561, -0.1219512, -0.0345769
-0.9931641, 0.1733398, -0.0258789, -14.9390249, -1.3414634, 0.2439024, -0.0325628
-0.9985352, 0.1723633, -0.0273438, -15.2439032, -1.402439, -0.0609756, -0.0365911
-1.0019531, 0.1694336, -0.0249023, -15.4878054, -1.8292683, 0, -0.0406195
-1.0043945, 0.1655273, -0.0200195, -15.7317076, -2.195122, 0.0609756, -0.0473335
-1.0083008, 0.1645508, -0.0214844, -15.4878054, -2.0731707, 0, -0.0406195
-1, 0.1586914, -0.0161133, -15.4268293, -2.1341465, 0.1829268, -0.0298772
-1.0014648, 0.1557617, -0.0146484, -15.4878054, -2.3780489, 0.4878049, -0.0352483
-0.9990234, 0.1557617, -0.0107422, -15.1829271, -2.3170731, 0.5487805, -0.0409552
-0.9990234, 0.1577148, -0.0102539, -14.9390249, -2.4390244, 0.1829268, -0.0412909
-1, 0.1572266, -0.0063477, -15.2439032, -2.4390244, -0.1829268, -0.0406195
-0.9995117, 0.159668, -0.0048828, -14.9390249, -2.5609756, -0.4878049, -0.0412909
-0.9990234, 0.1665039, -0.0014648, -14.7560978, -2.1341465, -0.6707317, -0.0382696
-1.0004883, 0.1655273, -0.0117188, -14.6341467, -2.3170731, -0.7317073, -0.038941
-1.0053711, 0.1704102, -0.0117188, -14.9390249, -2.1341465, -0.9146342, -0.0473335
-1.0024414, 0.1674805, -0.0185547, -15, -2.195122, -0.7926829, -0.0459907
-0.9956055, 0.1611328, -0.0161133, -15, -1.7682927, -0.9756098, -0.0406195
-0.9946289, 0.1557617, -0.0229492, -15.1219511, -1.9512196, -0.7317073, -0.0406195
-0.9912109, 0.1508789, -0.0224609, -15.1219511, -1.9512196, -0.4268293, -0.0446479
-0.9838867, 0.1391602, -0.0258789, -15, -1.8902439, -0.2439024, -0.0466621
-0.9819336, 0.1376953, -0.0244141, -15, -2.0731707, -0.7926829, -0.0540475
-0.9848633, 0.140625, -0.0249023, -14.8170738, -2.2560976, -0.9146342, -0.0486763
-0.9833984, 0.1401367, -0.027832, -14.1463413, -2.804878, -0.4878049, -0.0439765
-0.980957, 0.1430664, -0.0297852, -14.1463413, -2.9268293, -0.4878049, -0.0446479
-0.984375, 0.1489258, -0.0263672, -13.9024391, -2.6219513, -0.7317073, -0.0396124
-0.984375, 0.1508789, -0.0258789, -13.0487804, -2.7439024, -0.9146342, -0.0399481
-0.9897461, 0.1547852, -0.0283203, -12.6829271, -2.5, -0.8536586, -0.0446479
-0.9980469, 0.1567383, -0.0317383, -12.560976, -2.6829269, -1.2804878, -0.0486763
-1.0039062, 0.1674805, -0.0322266, -12.6829271, -2.804878, -1.4634147, -0.0459907
-1.0053711, 0.1669922, -0.0351562, -12.5, -3.1097562, -1.7682927, -0.0419623
-1.0151367, 0.1733398, -0.0341797, -12.3170738, -3.2926829, -1.5853659, -0.0433051
-1.015625, 0.1738281, -0.0292969, -12.0731707, -3.5975611, -1.5243902, -0.0325628
-1.0185547, 0.1616211, -0.0273438, -12.0731707, -3.5975611, -1.2804878, -0.0285344
-1.0126953, 0.1640625, -0.0224609, -11.8292685, -3.4756098, -0.9756098, -0.0365911
-1.0083008, 0.1635742, -0.0214844, -11.7682934, -3.6585367, -0.7926829, -0.0379339
-1.0073242, 0.1645508, -0.0166016, -11.4024391, -3.7195122, -1.097561, -0.0386053
-1.0073242, 0.1674805, -0.0151367, -11.1585369, -3.7804878, -1.097561, -0.0396124
-1.0024414, 0.175293, -0.0117188, -11.0365858, -3.7195122, -1.1585366, -0.0436408
-0.9985352, 0.1772461, -0.0092773, -10.6707315, -3.4146342, -1.402439, -0.0459907
-0.9975586, 0.1860352, -0.0161133, -10.7317076, -3.2926829, -1.7073171, -0.0426337
-0.9946289, 0.1860352, -0.0200195, -11.4024391, -3.1707318, -1.9512196, -0.0345769
-0.9980469, 0.1791992, -0.0151367, -11.8902445, -3.2317073, -2.195122, -0.0392767
-0.9916992, 0.1748047, -0.0185547, -12.1341467, -3.3536587, -2.0731707, -0.0446479
-0.9912109, 0.1713867, -0.0258789, -12.3170738, -3.4146342, -2.0731707, -0.049012
-0.9912109, 0.1679688, -0.0302734, -12.3780489, -3.1097562, -2.195122, -0.0419623
-0.9902344, 0.1645508, -0.0336914, -12.6829271, -3.1707318, -2.3170731, -0.0406195
-0.9936523, 0.1586914, -0.0493164, -13.0487804, -3.0487804, -2.0731707, -0.0459907
-0.9941406, 0.1611328, -0.0512695, -13.4146347, -2.9268293, -2.1341465, -0.042298
-0.9887695, 0.1577148, -0.0537109, -13.5975609, -3.3536587, -2.195122, -0.0439765
-0.9887695, 0.1513672, -0.0522461, -14.0243902, -2.9878049, -2.5609756, -0.0480049
-0.9936523, 0.1455078, -0.0498047, -14.0243902, -3.1707318, -2.6219513, -0.0419623
-0.9912109, 0.1401367, -0.0498047, -13.780488, -3.0487804, -2.5609756, -0.0409552
-0.996582, 0.1450195, -0.046875, -13.780488, -3.2926829, -2.5609756, -0.0433051
-0.9975586, 0.1420898, -0.0449219, -13.9024391, -3.4756098, -2.6219513, -0.0486763
-0.996582, 0.1420898, -0.0507812, -13.5365858, -3.4756098, -2.5609756, -0.0436408
-0.9956055, 0.1459961, -0.0512695, -13.7195129, -3.7804878, -2.195122, -0.0446479
-0.9960938, 0.1445312, -0.0507812, -13.780488, -3.7195122, -2.4390244, -0.0527047
-1.0024414, 0.1455078, -0.0444336, -13.4146347, -3.7195122, -2.3170731, -0.0446479
-1.0043945, 0.1455078, -0.0454102, -13.1707315, -3.7804878, -2.195122, -0.0392767
-1.003418, 0.1552734, -0.0493164, -13.2926836, -3.9024391, -2.4390244, -0.0419623
-1.0053711, 0.1582031, -0.0478516, -13.0487804, -4.1463413, -2.195122, -0.0486763
-1.0112305, 0.1601562, -0.0493164, -12.9878054, -4.2073174, -2.1341465, -0.0406195
-1.0136719, 0.1640625, -0.050293, -13.1707315, -3.7195122, -2.3780489, -0.0439765
-1.0117188, 0.168457, -0.0483398, -13.1707315, -3.7804878, -1.9512196, -0.0412909
-1.0068359, 0.1689453, -0.0449219, -13.9024391, -4.2073174, -2.195122, -0.0433051
-1.0029297, 0.1777344, -0.0483398, -13.9634151, -4.0243902, -2.195122, -0.0480049
-0.9970703, 0.171875, -0.0454102, -15.1219511, -2.8658538, -2.1341465, -0.0480049
-0.9936523, 0.1728516, -0.0410156, -15.6097565, -2.7439024, -1.9512196, -0.0433051
-0.9902344, 0.1713867, -0.0283203, -15.1829271, -4.1463413, -2.5609756, -0.0459907
-0.9887695, 0.1733398, -0.0268555, -14.7560978, -4.5731707, -2.5, -0.0459907
-0.9921875, 0.1669922, -0.0366211, -14.2682934, -4.0243902, -2.3170731, -0.0493477
-0.9926758, 0.1635742, -0.0419922, -14.7560978, -3.4146342, -2.7439024, -0.0493477
-0.9926758, 0.1572266, -0.0400391, -15.6097565, -3.2317073, -2.6219513, -0.0409552
-0.9956055, 0.1508789, -0.0390625, -15.1829271, -3.1707318, -2.9268293, -0.0379339
-0.9931641, 0.1474609, -0.0400391, -15.3048782, -2.9878049, -3.2317073, -0.0433051
-0.9995117, 0.1508789, -0.0419922, -15.6707325, -2.6829269, -3.7195122, -0.0412909
-1.0068359, 0.1513672, -0.0522461, -15.9756098, -2.3780489, -3.8414636, -0.0379339
-1.0078125, 0.1474609, -0.0546875, -16.3414631, -3.3536587, -3.9024391, -0.0446479
-1.0043945, 0.1450195, -0.0527344, -15.8536587, -3.6585367, -3.5365853, -0.0513619
-0.9980469, 0.137207, -0.0483398, -15.8536587, -3.0487804, -2.8658538, -0.0406195
-0.9897461, 0.1333008, -0.050293, -16.0975609, -2.6219513, -2.804878, -0.0412909
-0.9868164, 0.1323242, -0.0493164, -16.0975609, -2.7439024, -2.9268293, -0.0453193
-0.9873047, 0.1337891, -0.0454102, -15.7926836, -2.6219513, -3.4756098, -0.0439765
-0.9863281, 0.1420898, -0.0361328, -15.6097565, -2.5, -3.9634147, -0.0392767
-0.9848633, 0.1503906, -0.0361328, -14.9390249, -2.195122, -4.1463413, -0.0392767
-0.9926758, 0.15625, -0.0336914, -14.6951227, -2.0121951, -4.4512196, -0.0399481
-0.9951172, 0.1601562, -0.0307617, -15.1829271, -1.7682927, -4.8780489, -0.0352483
-1.0024414, 0.1699219, -0.0253906, -15.2439032, -1.4634147, -4.7560978, -0.0352483
-1.0063477, 0.1689453, -0.0258789, -15, -1.2804878, -5.1219511, -0.0412909
-1.0073242, 0.168457, -0.0307617, -15.3048782, -1.4634147, -5.2439027, -0.0409552
-1.015625, 0.1630859, -0.0332031, -15.2439032, -1.2804878, -5.3048782, -0.0412909
-1.0180664, 0.1552734, -0.0327148, -15.2439032, -1.402439, -5.1829271, -0.0412909
-1.0161133, 0.1503906, -0.027832, -14.6951227, -1.402439, -5.0609756, -0.0399481
-1.015625, 0.1489258, -0.0273438, -14.2682934, -1.2804878, -5.3048782, -0.0392767
-1.0151367, 0.1499023, -0.027832, -13.7195129, -1.5243902, -5.0609756, -0.0480049
-1.0102539, 0.15625, -0.0234375, -13.4146347, -0.8536586, -5, -0.0446479
-1.0058594, 0.1669922, -0.0214844, -13.0487804, -0.4268293, -5.1219511, -0.0459907
-1.0073242, 0.175293, -0.0273438, -12.8658543, -0.6707317, -5.2439027, -0.0463264
-0.9990234, 0.1787109, -0.0410156, -12.9878054, -0.9756098, -5.4268293, -0.0446479
-0.9951172, 0.1811523, -0.0522461, -13.9634151, -0.6707317, -5.9756098, -0.0453193
-0.996582, 0.1831055, -0.0512695, -14.6951227, -0.3658537, -5.8536587, -0.0433051
-0.9970703, 0.1728516, -0.0615234, -15.9146347, 0.3048781, -5.8536587, -0.0500191
-0.9960938, 0.1679688, -0.0693359, -17.2560978, -0.0609756, -5.5487804, -0.0480049
-0.9858398, 0.1503906, -0.078125, -18.1707325, 0, -5.7317076, -0.0412909
-0.9833984, 0.1342773, -0.0766602, -19.939024, 0, -5.8536587, -0.0433051
-0.9838867, 0.1098633, -0.0693359, -21.0365868, 0.3048781, -5.8536587, -0.0493477
-0.9873047, 0.0966797, -0.0708008, -21.4024391, -0.4268293, -6.2195125, -0.0459907
-0.9838867, 0.0766602, -0.0834961, -21.0365868, -1.2195122, -6.0365853, -0.0540475
-0.9790039, 0.0668945, -0.0893555, -20.6707325, -0.9146342, -5.7317076, -0.0513619
-0.9711914, 0.0498047, -0.0874023, -20.4268303, -0.4878049, -5.4878049, -0.0459907
-0.980957, 0.0488281, -0.0737305, -19.0853672, 0.4268293, -5.670732, -0.0530404
-0.9902344, 0.0595703, -0.0791016, -18.0487804, 0.1219512, -6.2195125, -0.0513619
-0.9985352, 0.0908203, -0.0927734, -16.4024391, -0.8536586, -6.9512196, -0.0439765
-1.003418, 0.1069336, -0.0991211, -16.280489, -1.3414634, -6.7682929, -0.0513619
-1.0161133, 0.1357422, -0.0952148, -16.280489, -0.9756098, -6.4634147, -0.0520333
-1.0224609, 0.1464844, -0.0922852, -16.8292694, -0.9756098, -5.9756098, -0.0433051
-1.0268555, 0.1572266, -0.0957031, -17.0121956, -1.7073171, -5.7317076, -0.0453193
-1.0268555, 0.159668, -0.0957031, -18.2317085, -2.6219513, -5.4268293, -0.0433051
-1.0253906, 0.1523438, -0.1035156, -18.9634151, -2.8658538, -5.2439027, -0.0439765
-1.0244141, 0.1425781, -0.0961914, -19.8780499, -3.7804878, -4.6951222, -0.0480049
-1.0249023, 0.1162109, -0.0961914, -19.7560978, -3.9634147, -4.5731707, -0.0513619
-1.0219727, 0.0805664, -0.0913086, -19.7560978, -4.6341462, -4.0243902, -0.052369
-1.0161133, 0.0595703, -0.0844727, -19.1463413, -4.8780489, -3.8414636, -0.0486763
-1.0107422, 0.0375977, -0.0908203, -16.8902435, -4.5121951, -2.804878, -0.0506905
-1.0063477, 0.03125, -0.09375, -15.4268293, -3.5365853, -2.1341465, -0.0439765
-0.9995117, 0.0390625, -0.0825195, -15.1219511, -3.4146342, -2.0731707, -0.0419623
-1.0024414, 0.0527344, -0.0756836, -14.3292685, -3.2926829, -2.3170731, -0.0439765
-1.0039062, 0.0874023, -0.0673828, -13.6585369, -3.5975611, -2.7439024, -0.0476692
-1.0078125, 0.1030273, -0.0668945, -13.1707315, -4.3292685, -3.1707318, -0.0500191
-1.0097656, 0.1264648, -0.0644531, -13.4756098, -4.5121951, -3.1097562, -0.0406195
-1.0087891, 0.1352539, -0.0561523, -13.1097565, -4.5121951, -2.7439024, -0.0392767
-1.0107422, 0.1464844, -0.0493164, -13.2926836, -4.5121951, -2.6219513, -0.0379339
-1.0107422, 0.1538086, -0.043457, -13.780488, -4.5121951, -2.3780489, -0.0392767
-1.0166016, 0.1538086, -0.0449219, -13.780488, -4.8170733, -2.7439024, -0.0399481
-1.0180664, 0.1474609, -0.0493164, -13.9024391, -5.0609756, -2.804878, -0.0392767
-1.0200195, 0.140625, -0.0498047, -14.2682934, -5.670732, -2.804878, -0.0339055
-1.0258789, 0.1191406, -0.0576172, -14.3292685, -5.7926831, -2.6829269, -0.0325628
-1.0283203, 0.109375, -0.0639648, -14.6341467, -6.1585369, -2.6219513, -0.0359197
-1.0253906, 0.0898438, -0.0585938, -14.5731707, -6.0975609, -2.5609756, -0.0325628
-1.027832, 0.0800781, -0.0615234, -14.0243902, -6.2195125, -2.2560976, -0.0359197
-1.027832, 0.0698242, -0.065918, -13.841464, -6.4634147, -2.0121951, -0.0433051
-1.0244141, 0.0664062, -0.0654297, -12.9268293, -6.5853658, -1.0365853, -0.0419623
-1.0180664, 0.0683594, -0.074707, -12.6829271, -6.4634147, -0.8536586, -0.0406195
-1.0073242, 0.0703125, -0.0737305, -11.4024391, -6.280488, -0.3048781, -0.0486763
-1.0058594, 0.078125, -0.0732422, -10.8536587, -6.3414636, -0.4878049, -0.0433051
-1.0053711, 0.0942383, -0.0712891, -10.3048782, -6.1585369, -0.6707317, -0.0406195
-1.0087891, 0.1025391, -0.0673828, -9.6951218, -5.9756098, -1.1585366, -0.0449836
-1.0161133, 0.1220703, -0.0708008, -9.3292685, -5.9756098, -1.1585366, -0.0453193
-1.0175781, 0.1298828, -0.0712891, -8.841464, -6.7682929, -1.097561, -0.0459907
-1.0170898, 0.1401367, -0.0708008, -9.1463413, -6.8292685, -1.2804878, -0.0480049
-1.0185547, 0.1430664, -0.0688477, -9.0243902, -7.0121951, -1.0365853, -0.0419623
-1.0180664, 0.1342773, -0.0664062, -8.9634151, -7.1951222, -0.6707317, -0.0453193
-1.0205078, 0.1279297, -0.0649414, -9.0243902, -7.5, -0.4268293, -0.0473335
-1.0175781, 0.1245117, -0.0625, -8.9024391, -7.7439027, -0.3658537, -0.0449836
-1.0073242, 0.1142578, -0.0649414, -8.5365858, -8.0487804, -0.1219512, -0.0399481
-1.0063477, 0.1088867, -0.0576172, -7.8658538, -8.2926826, -0.1219512, -0.0406195
-1.0078125, 0.1054688, -0.0634766, -7.6829271, -7.9878049, -0.3048781, -0.0298772
-1.0083008, 0.105957, -0.0605469, -7.0121951, -7.7439027, -0.4268293, -0.0325628
-1.0083008, 0.1088867, -0.0615234, -6.9512196, -7.8658538, -0.3658537, -0.0379339
-1.0073242, 0.1137695, -0.0610352, -6.2195125, -8.2317076, -0.1219512, -0.0406195
-1.012207, 0.1176758, -0.0581055, -5.9756098, -7.9878049, -0.3658537, -0.0406195
-1.0126953, 0.1186523, -0.0625, -6.1585369, -8.2317076, -0.4268293, -0.0352483
-1.0102539, 0.1220703, -0.0625, -5.7317076, -8.2926826, -0.2439024, -0.0365911
-1.0068359, 0.121582, -0.0546875, -5.7926831, -8.3536587, 0, -0.0406195
-1.0083008, 0.1240234, -0.0541992, -5.3658538, -8.5365858, 0.2439024, -0.0315557
-1.0048828, 0.1352539, -0.0566406, -5.0609756, -8.9024391, 0.3658537, -0.0352483
-0.9980469, 0.1342773, -0.0566406, -5.1219511, -8.841464, 0.3048781, -0.0406195
-0.9941406, 0.1323242, -0.0532227, -4.8170733, -9.2073174, 0.1219512, -0.0409552
-0.9921875, 0.1313477, -0.0522461, -4.390244, -9.2682924, 0, -0.0419623
-0.9912109, 0.1298828, -0.0522461, -4.2073174, -9.1463413, -0.1829268, -0.0459907
-0.996582, 0.1264648, -0.0556641, -3.9024391, -9.3902445, -0.4268293, -0.0500191
-0.9951172, 0.1196289, -0.0634766, -3.9634147, -9.3902445, -0.4268293, -0.0500191
-0.9951172, 0.1142578, -0.0673828, -4.2682929, -8.841464, 0.0609756, -0.0560616
-0.9980469, 0.1118164, -0.0664062, -3.9024391, -9.0243902, -0.1829268, -0.0540475
-0.9985352, 0.1118164, -0.0698242, -4.2682929, -8.9024391, -0.0609756, -0.0553902
-0.9970703, 0.1166992, -0.0766602, -4.4512196, -8.719512, 0, -0.06009
-0.9931641, 0.1269531, -0.0825195, -4.9390244, -8.841464, -0.1829268, -0.0607614
-0.9916992, 0.1298828, -0.0800781, -5.1829271, -8.841464, 0.2439024, -0.0553902
-0.9946289, 0.1293945, -0.074707, -5.0609756, -8.780488, 0.3658537, -0.0547189
-0.9907227, 0.121582, -0.0703125, -4.2682929, -9.1463413, 0.3658537, -0.0547189
-0.9897461, 0.1176758, -0.0732422, -4.3292685, -9.0853662, 0.6707317, -0.0557259
-0.9873047, 0.1118164, -0.0756836, -5.0609756, -8.780488, 0.8536586, -0.0533761
-0.9970703, 0.1088867, -0.0703125, -4.6341462, -9.2073174, 0.7317073, -0.0533761
-0.9946289, 0.1040039, -0.0678711, -4.2073174, -9.3292685, 0.5487805, -0.0580758
-0.9995117, 0.1166992, -0.0756836, -3.9634147, -8.9634151, 0.7317073, -0.0540475
-1.0019531, 0.1181641, -0.0830078, -3.6585367, -9.0853662, 0.6097561, -0.0513619
-0.9995117, 0.1186523, -0.0864258, -3.8414636, -8.719512, 0.6707317, -0.0513619
-1.0019531, 0.1264648, -0.0805664, -4.2682929, -8.3536587, 0.6097561, -0.0506905
-1.0014648, 0.1279297, -0.0756836, -4.390244, -8.4146347, 0.7926829, -0.0543832
-0.9990234, 0.1342773, -0.0703125, -4.5121951, -8.780488, 1.1585366, -0.0527047
-1.0029297, 0.1318359, -0.0708008, -4.390244, -9.0243902, 1.4634147, -0.0459907
-0.9980469, 0.1245117, -0.0708008, -4.5121951, -9.3292685, 1.1585366, -0.0480049
-0.9941406, 0.1225586, -0.0668945, -4.6341462, -9.1463413, 0.9756098, -0.049012
-0.996582, 0.1191406, -0.0605469, -4.8170733, -9.1463413, 0.9146342, -0.0500191
-0.9946289, 0.1191406, -0.0615234, -4.8170733, -8.9634151, 0.8536586, -0.0540475
-1.0004883, 0.1196289, -0.0654297, -5, -8.841464, 0.6097561, -0.0466621
-1.0078125, 0.1191406, -0.0566406, -5.1219511, -8.841464, 0.7317073, -0.0493477
-1.0043945, 0.1191406, -0.0551758, -4.6341462, -8.9024391, 0.4268293, -0.0520333
-1.0043945, 0.1142578, -0.0546875, -4.2682929, -9.1463413, 0.5487805, -0.0466621
-1.0039062, 0.1108398, -0.0556641, -3.7195122, -9.2682924, 1.097561, -0.0439765
-1.0004883, 0.1054688, -0.0576172, -3.3536587, -9.0243902, 1.097561, -0.0486763
-0.9946289, 0.1083984, -0.0571289, -3.5975611, -8.841464, 1.0365853, -0.056733
-0.996582, 0.112793, -0.0537109, -3.6585367, -8.719512, 1.1585366, -0.0473335
-0.9970703, 0.1171875, -0.0522461, -3.8414636, -8.719512, 1.5243902, -0.0486763
-0.9921875, 0.1269531, -0.0576172, -3.6585367, -8.719512, 1.3414634, -0.0392767
-0.9868164, 0.1279297, -0.0605469, -3.2926829, -8.9024391, 1.0365853, -0.0453193
-0.9892578, 0.1293945, -0.0644531, -3.4756098, -8.9634151, 1.097561, -0.0476692
-0.9902344, 0.1196289, -0.0688477, -3.0487804, -8.6585369, 0.9756098, -0.0493477
-0.9921875, 0.1157227, -0.0673828, -3.1707318, -8.841464, 0.6707317, -0.0446479
-0.9970703, 0.112793, -0.0712891, -2.9268293, -8.9634151, 0.7926829, -0.0419623
-0.9975586, 0.1083984, -0.0708008, -2.195122, -8.841464, 0.9146342, -0.0426337
-1.0029297, 0.1040039, -0.0761719, -2.3170731, -8.841464, 0.8536586, -0.0365911
-1.0083008, 0.1079102, -0.0737305, -1.9512196, -9.1463413, 1.1585366, -0.0426337
-1.0117188, 0.1049805, -0.0634766, -1.5853659, -9.6341467, 1.2195122, -0.0459907
-1.0131836, 0.1015625, -0.059082, -0.5487805, -10.2439022, 1.4634147, -0.0379339
-1.0185547, 0.1000977, -0.0683594, 0.2439024, -10.6707315, 1.6463414, -0.0365911
-1.0131836, 0.1015625, -0.0864258, 0.4268293, -9.8170738, 2.2560976, -0.0412909
-1.0083008, 0.125, -0.097168, -0.6097561, -9.3292685, 2.3170731, -0.0412909
-1.0019531, 0.1420898, -0.0898438, -2.3170731, -9.5731707, 2.4390244, -0.0392767
-0.9995117, 0.1557617, -0.0854492, -2.6219513, -9.8780489, 2.3170731, -0.0443122
-0.996582, 0.1630859, -0.0756836, -3.1707318, -9.8170738, 2.0731707, -0.0412909
-0.9951172, 0.1586914, -0.0683594, -3.2926829, -9.3292685, 2.0121951, -0.0379339
-0.9970703, 0.1337891, -0.0581055, -2.9268293, -9.6341467, 2.0731707, -0.0399481
-0.9960938, 0.1196289, -0.0537109, -1.8902439, -10.5487804, 1.9512196, -0.0412909
-1.0004883, 0.1044922, -0.0581055, -1.5853659, -10.7926836, 1.8292683, -0.0453193
-1, 0.0942383, -0.0605469, -0.6097561, -10.6707315, 2.1341465, -0.0433051
-1.0039062, 0.0908203, -0.0644531, -0.3658537, -10.7317076, 2.195122, -0.0392767
-1.0029297, 0.0947266, -0.0654297, -0.1219512, -10.4268293, 2.5, -0.0459907
-1.0058594, 0.0996094, -0.0649414, 0.1219512, -10.1219511, 2.8658538, -0.0453193
-1.0097656, 0.1035156, -0.0649414, 0.3658537, -10.7317076, 3.1707318, -0.0459907
-1.0126953, 0.1040039, -0.0693359, 0.9756098, -11.0365858, 3.0487804, -0.0473335
-1.0087891, 0.1010742, -0.0693359, 0.4878049, -11.6463413, 3.0487804, -0.0439765
-1.0083008, 0.097168, -0.0703125, 0.9756098, -11.8902445, 3.4756098, -0.0527047
-1.0078125, 0.1030273, -0.0605469, 1.0365853, -12.1341467, 3.5365853, -0.0540475
-1.0048828, 0.1079102, -0.0649414, 0.9146342, -11.7682934, 3.9634147, -0.0480049
-1, 0.1240234, -0.0644531, 0.7317073, -11.5243902, 3.5975611, -0.0513619
-0.9985352, 0.1298828, -0.0625, 0.4268293, -11.0365858, 3.2926829, -0.0506905
-1.0078125, 0.1293945, -0.0585938, 0.1829268, -11.1585369, 2.8658538, -0.0527047
-1.0117188, 0.128418, -0.0576172, 0.6707317, -11.6463413, 2.8658538, -0.0419623
-1.019043, 0.125, -0.0664062, 0.3048781, -12.1951218, 2.5609756, -0.0392767
-1.0180664, 0.1088867, -0.0688477, 0.0609756, -12.4390249, 3.0487804, -0.0439765
-1.0214844, 0.1044922, -0.0683594, 0.2439024, -12.8048782, 3.3536587, -0.0409552
-1.0214844, 0.0986328, -0.0556641, 0.9756098, -13.4146347, 3.7804878, -0.0412909
-1.0180664, 0.0966797, -0.0610352, 2.2560976, -14.2682934, 4.2073174, -0.0426337
-1.0092773, 0.0922852, -0.0615234, 2.5, -14.2682934, 4.5121951, -0.0446479
-1.0097656, 0.0966797, -0.0654297, 2.6829269, -13.9024391, 5, -0.0419623
-1.0039062, 0.1069336, -0.0571289, 2.5609756, -14.2682934, 5.4268293, -0.0409552
-1.0024414, 0.1113281, -0.0566406, 3.7804878, -15.060976, 4.7560978, -0.035584
-1.0102539, 0.1103516, -0.0595703, 4.5121951, -15.4878054, 4.6341462, -0.0406195
-1.0131836, 0.1054688, -0.0605469, 5.9146342, -16.280489, 4.7560978, -0.0392767
-1.0234375, 0.090332, -0.0493164, 7.0731707, -16.8292694, 4.8170733, -0.0345769
-1.0273438, 0.0874023, -0.0454102, 10.3048782, -17.7439022, 5.7317076, -0.0379339
-1.0249023, 0.0830078, -0.0478516, 12.0121956, -17.8048782, 6.1585369, -0.0379339
-1.0268555, 0.0708008, -0.0493164, 13.4146347, -18.3536587, 6.7073174, -0.035584
-1.0209961, 0.0654297, -0.0517578, 14.6341467, -18.5365849, 7.0731707, -0.0325628
-1.0239258, 0.0698242, -0.0537109, 15.3048782, -18.7195129, 7.1951222, -0.0325628
-1.0229492, 0.0688477, -0.0541992, 16.7682934, -19.5121956, 7.6829271, -0.0339055
-1.027832, 0.0708008, -0.0566406, 17.8048782, -20.1219521, 7.8658538, -0.0345769
-1.0219727, 0.0649414, -0.0585938, 20.9146347, -21.4024391, 8.6585369, -0.0379339
-1.0180664, 0.0551758, -0.0649414, 22.1951218, -21.7682934, 8.780488, -0.0412909
-1.0175781, 0.0498047, -0.0678711, 25.4878063, -22.0121956, 9.7560978, -0.038941
-1.0102539, 0.0458984, -0.0673828, 27.0121956, -22.0731716, 10, -0.0392767
-1.0161133, 0.059082, -0.0664062, 29.8170738, -22.1951218, 10.9146347, -0.0386053
-1.0185547, 0.0673828, -0.0727539, 30.8536587, -22.3780499, 10.7926836, -0.0372625
-1.0175781, 0.074707, -0.0786133, 32.0121956, -23.0487804, 10.9756098, -0.0392767
-1.0170898, 0.0761719, -0.0795898, 33.5975609, -24.3902435, 11.5243902, -0.0379339
-1.019043, 0.0649414, -0.0751953, 34.4512215, -25.1829281, 11.8292685, -0.0392767
-1.0239258, 0.0620117, -0.0732422, 36.8292694, -26.8292694, 13.3536587, -0.0339055
-1.0224609, 0.0478516, -0.0703125, 38.1097565, -27.3170738, 13.9634151, -0.0412909
-1.0209961, 0.0375977, -0.0703125, 40.4268303, -28.3536587, 15.7317076, -0.0365911
-1.012207, 0.0136719, -0.0717773, 41.8292694, -28.7195129, 16.4634151, -0.0392767
-1.0087891, 0.0058594, -0.0761719, 44.0853653, -29.3292694, 16.9512196, -0.0365911
-1.0073242, -0.0087891, -0.0737305, 44.8780479, -29.6341476, 16.7073174, -0.0325628
-1.0209961, 0.0039062, -0.0805664, 46.8902435, -30.3048782, 17.2560978, -0.027863
-1.0219727, 0.0117188, -0.0874023, 47.7439041, -30.5487804, 17.8048782, -0.027863
-1.0200195, 0.0439453, -0.0981445, 49.3902435, -30.9146347, 18.6585369, -0.0379339
-1.0136719, 0.0698242, -0.0966797, 49.3902435, -30.8536587, 19.2682934, -0.0302129
-1.015625, 0.105957, -0.0854492, 48.9024391, -30.6707325, 19.5731716, -0.0305486
-1.0102539, 0.128418, -0.0761719, 47.9878044, -30.6707325, 19.6341476, -0.0298772
-1.0078125, 0.1616211, -0.0571289, 47.5, -30.7926846, 19.4512196, -0.0288701
-1.0058594, 0.1655273, -0.0522461, 46.8902435, -31.1585369, 19.3292694, -0.0365911
-0.996582, 0.1660156, -0.0356445, 46.4634171, -31.341465, 19.3292694, -0.0439765
-0.9975586, 0.1616211, -0.03125, 45.9756126, -31.7073174, 18.9634151, -0.0412909
-0.9970703, 0.1425781, -0.0273438, 45.5487823, -31.8902454, 18.8414631, -0.0352483
-0.9946289, 0.1274414, -0.0249023, 43.9024391, -32.4390259, 18.780489, -0.0386053
-0.9960938, 0.1186523, -0.0258789, 43.0487823, -32.7439041, 18.7195129, -0.0379339
-0.9980469, 0.1083984, -0.0224609, 41.5853653, -33.1097565, 18.6585369, -0.0352483
-0.9975586, 0.0996094, -0.0205078, 41.1585388, -33.1707306, 18.4146347, -0.0379339
-0.9960938, 0.0869141, -0.012207, 41.4024391, -33.5975609, 18.3536587, -0.0446479
-0.9980469, 0.081543, -0.0083008, 41.9512215, -33.7804871, 18.2926826, -0.0399481
-0.9960938, 0.0717773, 0.0092773, 42.7439041, -34.1463432, 18.0487804, -0.0426337
-0.9975586, 0.0693359, 0.0161133, 43.9024391, -34.0853653, 17.9268303, -0.0493477
-0.9980469, 0.0742188, 0.0087891, 44.1463432, -34.3292694, 18.0487804, -0.0473335
-0.9946289, 0.081543, 0.0048828, 43.9634171, -34.3902435, 17.8048782, -0.0480049
-0.9941406, 0.097168, -0.003418, 44.0243912, -34.0853653, 17.9878044, -0.0439765
-1, 0.1206055, -0.0107422, 43.5365868, -34.2682953, 17.6219521, -0.0439765
-0.9990234, 0.1264648, -0.0083008, 43.4146347, -34.3292694, 17.1951218, -0.0473335
-0.9956055, 0.1333008, 0.0039062, 43.5975609, -34.5731697, 17.3170738, -0.0406195
-0.9960938, 0.1381836, 0.0073242, 43.841465, -35.0609779, 17.439024, -0.0325628
-0.9951172, 0.1455078, 0.0166016, 43.7195129, -35.1219521, 17.1341476, -0.0365911
-0.9970703, 0.1489258, 0.0131836, 43.7804871, -35.1829262, 16.3414631, -0.0359197
-0.996582, 0.1542969, 0.0043945, 43.5975609, -35.3048782, 15.7926836, -0.0352483
-1.0009766, 0.1547852, 0.0068359, 43.6585388, -35.4268303, 15.060976, -0.0439765
-1.0063477, 0.1577148, 0.0146484, 44.1463432, -35.4268303, 15, -0.0500191
-1.0083008, 0.1523438, 0.019043, 44.4512215, -35.2439041, 14.5731707, -0.0513619
-1.0043945, 0.1455078, 0.0253906, 44.9390259, -35.4268303, 14.5731707, -0.0433051
-1.0043945, 0.1337891, 0.0307617, 45.2439041, -35.7317085, 13.841464, -0.0369268
-0.9995117, 0.1337891, 0.0258789, 45.5487823, -36.2804871, 13.3536587, -0.0406195
-0.9897461, 0.137207, 0.0258789, 45.7926826, -36.341465, 12.5, -0.0399481
-0.9926758, 0.1416016, 0.0366211, 47.5, -36.9512215, 12.3170738, -0.0332341
-0.9956055, 0.1489258, 0.0600586, 49.3902435, -36.7682953, 12.3170738, -0.0433051
-0.9946289, 0.1479492, 0.0649414, 51.8292694, -36.7073174, 12.560976, -0.0503548
-0.9868164, 0.1303711, 0.0566406, 52.8048782, -36.7682953, 12.8658543, -0.0466621
-0.9931641, 0.1157227, 0.0551758, 54.2682953, -37.7439041, 12.0121956, -0.0446479
-0.9960938, 0.0791016, 0.0551758, 55.0609779, -38.2317085, 11.5243902, -0.0493477
-1.0019531, 0.0595703, 0.0478516, 57.3780518, -39.0853653, 11.1585369, -0.0530404
-1.0097656, 0.0444336, 0.0390625, 58.6585388, -39.0853653, 11.0975609, -0.0527047
-1.0146484, 0.0410156, 0.0400391, 62.1951218, -39.5121956, 12.0121956, -0.0543832
-1.0180664, 0.0424805, 0.0297852, 64.9390259, -40.6707344, 12.9878054, -0.0473335
-1.0087891, 0.065918, -0.0039062, 65.4878082, -40.7926826, 12.9878054, -0.0493477
-1.0078125, 0.078125, -0.0102539, 66.0975647, -41.2804871, 12.9268293, -0.0473335
-1.0014648, 0.1225586, -0.0141602, 66.4024429, -41.341465, 12.560976, -0.0433051
-1.0004883, 0.1445312, -0.0175781, 66.5853653, -41.7682953, 12.8048782, -0.0412909
-0.9946289, 0.1855469, -0.0195312, 66.5853653, -42.3780479, 12.7439032, -0.0386053
-0.9848633, 0.1972656, -0.0263672, 65.7926865, -42.6829262, 13.2926836, -0.0433051
-0.9790039, 0.2114258, -0.0200195, 64.0853653, -42.2560997, 12.8048782, -0.0459907
-0.9760742, 0.2177734, -0.0112305, 61.5243912, -42.1951218, 12.3170738, -0.0453193
-0.980957, 0.2231445, 0.0039062, 59.6951218, -42.0121956, 12.0121956, -0.0540475
-0.9990234, 0.2080078, 0.0395508, 58.1097565, -42.4390259, 11.341464, -0.0513619
-1.0058594, 0.1914062, 0.059082, 59.5121956, -43.841465, 11.0975609, -0.0520333
-1.0112305, 0.1342773, 0.074707, 60.5487823, -44.1463432, 10.7317076, -0.0580758
-1.0126953, 0.1020508, 0.0737305, 62.6219521, -44.5121956, 10.6097565, -0.0439765
-1.015625, 0.0507812, 0.0732422, 63.5365868, -44.7560997, 10.6097565, -0.0486763
-1.0209961, 0.0405273, 0.0727539, 64.8170776, -45.3658562, 10, -0.0500191
-1.03125, 0.0512695, 0.0664062, 65.8536606, -45.3048782, 10.1829271, -0.0412909
-1.0332031, 0.074707, 0.0639648, 68.9024429, -46.2804871, 11.4634151, -0.0426337
-1.0297852, 0.1279297, 0.0532227, 70.2439041, -46.0975609, 12.1951218, -0.0406195
-1.0258789, 0.1567383, 0.0493164, 70.9146347, -45.3658562, 12.8048782, -0.0419623
-1.0209961, 0.1953125, 0.0395508, 70.6707306, -45.4878044, 12.7439032, -0.0365911
-1.0141602, 0.2412109, 0.0356445, 70.18293, -46.0975609, 11.8902445, -0.0379339
-1.012207, 0.2524414, 0.03125, 68.4146347, -46.2804871, 11.4634151, -0.0379339
-1.0078125, 0.2709961, 0.0268555, 67.2560959, -46.0975609, 11.4634151, -0.0325628
-1.0112305, 0.277832, 0.027832, 63.841465, -45.3658562, 11.1585369, -0.0298772
-1.0136719, 0.2705078, 0.0361328, 62.3780518, -45.3658562, 11.1585369, -0.0325628
-1.015625, 0.2646484, 0.0419922, 60.0609779, -45.7317085, 10.6097565, -0.0318914
-1.0131836, 0.2363281, 0.0615234, 59.2682953, -45.8536606, 10.2439022, -0.0332341
-1.0117188, 0.2114258, 0.0732422, 59.4512215, -46.341465, 9.8780489, -0.0412909
-1.0073242, 0.1708984, 0.0966797, 60.18293, -46.341465, 9.2682924, -0.0399481
-1.0078125, 0.1582031, 0.1069336, 60.9146347, -45.7926826, 8.5975609, -0.0406195
-1.019043, 0.1508789, 0.0996094, 61.4024391, -45.7317085, 8.5365858, -0.0386053
-1.0107422, 0.1625977, 0.0854492, 62.3780518, -46.0365868, 8.2926826, -0.0433051
-1.0161133, 0.1733398, 0.0830078, 62.4390259, -45.3048782, 8.4146347, -0.0433051
-1.0126953, 0.2084961, 0.0737305, 62.68293, -45.3048782, 8.4756098, -0.0493477
-1.0083008, 0.2236328, 0.065918, 62.1341476, -44.8780479, 8.719512, -0.0533761
-0.9995117, 0.2431641, 0.0444336, 61.4024391, -44.5731735, 8.780488, -0.0480049
-0.9956055, 0.2495117, 0.0444336, 60.3658562, -44.2073174, 8.2926826, -0.0486763
-0.9887695, 0.2460938, 0.0522461, 59.4512215, -44.2073174, 8.1097565, -0.0486763
-0.984375, 0.234375, 0.0541992, 57.9878044, -43.9024391, 7.3170733, -0.0540475
-0.9760742, 0.2138672, 0.0698242, 57.2560997, -43.841465, 7.1341467, -0.0493477
-0.9770508, 0.2041016, 0.074707, 56.0975609, -43.5975609, 6.0975609, -0.0453193
-0.9853516, 0.1850586, 0.0834961, 55.7926826, -43.7804871, 5.670732, -0.0433051
-1.0019531, 0.1850586, 0.0712891, 55.18293, -44.3292694, 4.7560978, -0.0459907
-1.0112305, 0.1850586, 0.0556641, 54.8780518, -43.9634171, 4.390244, -0.0493477
-1.0263672, 0.1679688, 0.0532227, 55.9756126, -44.2073174, 4.3292685, -0.0486763
-1.0322266, 0.1567383, 0.0581055, 61.0975609, -46.2804871, 4.6951222, -0.0446479
-1.0283203, 0.1245117, 0.0532227, 63.9634171, -46.7073174, 5.2439027, -0.0493477
-1.0229492, 0.1083984, 0.0473633, 67.9268341, -46.0365868, 6.1585369, -0.0459907
-1.0292969, 0.0883789, 0.0488281, 69.4512177, -45.9756126, 6.2195125, -0.0459907
-1.0297852, 0.0966797, 0.0449219, 71.2195129, -47.1951218, 6.1585369, -0.0513619
-1.0317383, 0.1479492, 0.0327148, 72.1951218, -47.2560997, 6.1585369, -0.0527047
-1.0395508, 0.206543, 0.0307617, 72.8048782, -46.8292694, 6.9512196, -0.0513619
-1.0439453, 0.2324219, 0.0332031, 73.1097565, -46.4634171, 7.4390244, -0.0516976
-1.0424805, 0.2597656, 0.0424805, 73.2317123, -46.5243912, 7.8658538, -0.0459907
-1.0332031, 0.2666016, 0.0424805, 72.0121994, -47.0731735, 7.5609756, -0.0426337
-1.0258789, 0.2670898, 0.0390625, 70.9146347, -47.0731735, 7.0121951, -0.0433051
-1.0175781, 0.2597656, 0.0395508, 69.3902435, -46.6463432, 6.3414636, -0.0433051
-1.0107422, 0.2421875, 0.0522461, 69.0853653, -46.7073174, 6.280488, -0.0342412
-1.0078125, 0.2260742, 0.0605469, 69.6951218, -46.7682953, 6.5853658, -0.027863
-0.9941406, 0.1977539, 0.0742188, 70.4268341, -46.6463432, 7.1341467, -0.0325628
-0.9858398, 0.1816406, 0.0727539, 70.8536606, -46.5853653, 7.2560978, -0.0372625
-0.9707031, 0.1674805, 0.0683594, 70.9146347, -46.4024391, 6.890244, -0.0325628
-0.965332, 0.168457, 0.0751953, 70.4268341, -46.0365868, 5.9146342, -0.0369268
-0.9672852, 0.175293, 0.0708008, 70, -46.0975609, 5.4878049, -0.0426337
-0.9804688, 0.2119141, 0.0605469, 69.5121994, -45.4268303, 4.8170733, -0.038941
-0.984375, 0.2236328, 0.0546875, 68.5365906, -44.4512215, 4.5121951, -0.0365911
-0.9980469, 0.2426758, 0.0488281, 68.0487823, -44.3902435, 4.3292685, -0.0352483
-1, 0.2504883, 0.050293, 66.3414612, -43.841465, 4.1463413, -0.0382696
-1.0039062, 0.2543945, 0.0517578, 65.18293, -43.5975609, 4.2073174, -0.0392767
-1.0083008, 0.2568359, 0.0537109, 63.5365868, -43.1097565, 3.4756098, -0.0365911
-1.0063477, 0.2470703, 0.0507812, 62.8658562, -42.8658562, 3.2926829, -0.0392767
-1.0058594, 0.2402344, 0.0551758, 61.2195129, -42.0731735, 2.804878, -0.0386053
-1.0092773, 0.2260742, 0.0556641, 60.3048782, -41.9512215, 2.8658538, -0.0527047
-1.0053711, 0.2133789, 0.0605469, 59.8170738, -41.2195129, 3.0487804, -0.0453193
-1.0004883, 0.199707, 0.0595703, 59.7560997, -40.8536606, 2.7439024, -0.0406195
-0.9975586, 0.1738281, 0.0688477, 60.1219521, -40.4268303, 2.9268293, -0.0406195
-0.9980469, 0.15625, 0.0678711, 61.6463432, -40.3658562, 2.6219513, -0.0459907
-0.9960938, 0.1342773, 0.0537109, 62.4390259, -39.8780479, 2.4390244, -0.0506905
-0.9951172, 0.1269531, 0.0463867, 64.0243912, -39.2073174, 2.7439024, -0.0473335
-1.003418, 0.1181641, 0.0419922, 64.5731735, -39.0243912, 2.8658538, -0.0466621
-1.0043945, 0.1201172, 0.0356445, 65.5487823, -38.5365868, 3.0487804, -0.0433051
-1.0048828, 0.1352539, 0.019043, 65.9756088, -38.4146347, 3.2317073, -0.0486763
-1.0048828, 0.1474609, 0.0136719, 66.2804871, -38.2317085, 3.9024391, -0.0513619
-0.9985352, 0.1850586, 0.0009766, 66.0365906, -37.9878044, 3.7804878, -0.0459907
-0.9956055, 0.2211914, 0.0004883, 65.5487823, -37.5, 4.2073174, -0.0419623
-0.9868164, 0.2387695, 0.0043945, 65.2439041, -37.1341476, 4.2073174, -0.049012
-0.9882812, 0.2436523, 0.0371094, 64.5731735, -37.0121956, 3.8414636, -0.0513619
-0.9887695, 0.2368164, 0.0620117, 68.3536606, -38.0487823, 3.5365853, -0.0446479
-0.9775391, 0.1933594, 0.0913086, 70.7926865, -38.1097565, 3.3536587, -0.0500191
-0.9770508, 0.1630859, 0.1000977, 75, -37.5609779, 2.5609756, -0.0500191
-0.9829102, 0.1108398, 0.09375, 75.7926865, -37.6829262, 2.0121951, -0.0486763
-0.9907227, 0.0947266, 0.0908203, 77.3780518, -38.7195129, 0.9756098, -0.0540475
-1, 0.1137695, 0.0766602, 77.9268341, -38.7195129, 0.7317073, -0.0530404
-1.0078125, 0.1303711, 0.0629883, 78.9024429, -37.8048782, 1.3414634, -0.0409552
-1.0092773, 0.1811523, 0.0292969, 79.3292694, -37.3780479, 1.9512196, -0.0439765
-1.0024414, 0.2304688, -0.0019531, 78.5365906, -35.9756088, 2.8658538, -0.0372625
-0.9936523, 0.2416992, -0.0092773, 78.1097565, -35.9146347, 2.9878049, -0.0406195
-0.972168, 0.25, -0.0166016, 76.5243912, -35.6707344, 2.4390244, -0.0426337
-0.9697266, 0.246582, -0.019043, 74.7560959, -35.3658562, 1.7073171, -0.0392767
-0.9663086, 0.2236328, -0.0112305, 74.3292694, -34.8170738, 1.8292683, -0.0439765
-0.9633789, 0.2036133, -0.003418, 72.9268341, -34.1463432, 1.097561, -0.0473335
-0.965332, 0.1621094, 0.0180664, 72.9878082, -34.0243912, 1.5243902, -0.0500191
-0.965332, 0.1411133, 0.0253906, 74.0243912, -33.5975609, 1.2195122, -0.0449836
-0.9760742, 0.0996094, 0.0439453, 74.7560959, -33.1707306, 0.8536586, -0.0406195
-0.9794922, 0.0898438, 0.0522461, 75.7926865, -32.5, 0.5487805, -0.0439765
-0.9951172, 0.0825195, 0.0581055, 77.0731735, -32.1341476, 0.6707317, -0.0433051
-1.0083008, 0.1088867, 0.0527344, 78.4146347, -31.7682934, 0.5487805, -0.0386053
-1.0112305, 0.1269531, 0.0463867, 78.9634171, -31.2195129, 0.7317073, -0.0426337
-1.0195312, 0.1674805, 0.0371094, 79.8780518, -30.3048782, 1.5243902, -0.0473335
-1.0117188, 0.1865234, 0.0332031, 80, -29.4512196, 1.8902439, -0.0433051
-1.0048828, 0.2138672, 0.0292969, 79.6951218, -28.841465, 1.8902439, -0.0476692
-1.0004883, 0.2270508, 0.0229492, 78.9024429, -28.4146347, 1.5243902, -0.0365911
-0.996582, 0.2270508, 0.0253906, 78.4146347, -27.560976, 1.2195122, -0.0433051
-0.9941406, 0.2231445, 0.0253906, 77.6219559, -26.4634151, 1.097561, -0.0433051
-0.9936523, 0.2011719, 0.0307617, 77.1341476, -26.0365868, 1.0365853, -0.0379339
-0.9912109, 0.1870117, 0.0361328, 77.2560959, -24.8780499, 0.9756098, -0.0379339
-0.9892578, 0.1474609, 0.0488281, 77.6219559, -24.3292694, 1.0365853, -0.0345769
-0.9907227, 0.1123047, 0.050293, 78.4146347, -23.9024391, 0.7926829, -0.0382696
-0.9936523, 0.1025391, 0.0488281, 78.7804871, -23.8414631, 0.6707317, -0.0433051
-1, 0.1098633, 0.027832, 79.7560959, -23.1097565, 0.6097561, -0.0406195
-1.0019531, 0.1191406, 0.0131836, 81.3414688, -22.439024, 0.7926829, -0.0433051
-1.0087891, 0.1499023, -0.0224609, 81.2804871, -21.8902435, 1.097561, -0.0433051
-1.0068359, 0.1630859, -0.0351562, 80.4878082, -21.7682934, 1.8902439, -0.0386053
-0.9960938, 0.1938477, -0.0532227, 79.9390259, -21.8902435, 2.804878, -0.0433051
-0.9941406, 0.2045898, -0.0556641, 78.8414688, -22.2560978, 3.9024391, -0.0412909
-0.9824219, 0.2119141, -0.046875, 78.7195129, -22.0121956, 3.7804878, -0.0486763
-0.9741211, 0.215332, -0.0473633, 78.5975647, -21.4024391, 3.5365853, -0.0406195
-0.9677734, 0.2075195, -0.0405273, 78.1707306, -21.0975609, 2.9268293, -0.0392767
-0.9716797, 0.1962891, -0.0322266, 77.5, -21.7682934, 2.0731707, -0.0446479
-0.9755859, 0.1958008, -0.0297852, 77.68293, -21.9512196, 1.8292683, -0.0419623
-0.9750977, 0.1967773, -0.0263672, 77.5609741, -21.5853672, 1.5243902, -0.056733
-0.9790039, 0.1962891, -0.0268555, 77.3780518, -21.5853672, 1.5243902, -0.0459907
-0.9873047, 0.1958008, -0.0263672, 77.4390259, -22.0731716, 1.2195122, -0.0466621
-0.9892578, 0.2026367, -0.0292969, 78.1097565, -22.1341476, 1.097561, -0.0486763
-0.9848633, 0.2084961, -0.0415039, 78.5365906, -22.2560978, 0.7317073, -0.0459907
-0.9907227, 0.2114258, -0.0517578, 78.7195129, -22.5, -0.1219512, -0.0433051
-0.9907227, 0.2050781, -0.065918, 78.9024429, -22.560976, -0.0609756, -0.0412909
-0.9892578, 0.206543, -0.065918, 78.0487823, -23.2317085, 0, -0.0392767
-0.9902344, 0.2070312, -0.0595703, 78.0487823, -23.5365868, 0.2439024, -0.0359197
-0.9868164, 0.2133789, -0.0551758, 78.7804871, -23.3536587, 0.4268293, -0.0446479
-0.9833984, 0.2172852, -0.0473633, 79.3902435, -23.3536587, 0.3048781, -0.0419623
-0.9804688, 0.2172852, -0.0268555, 79.0853653, -23.2317085, -0.6097561, -0.0433051
-0.9863281, 0.2138672, -0.0209961, 78.0487823, -23.0487804, -1.6463414, -0.0426337
-1.0043945, 0.206543, -0.0200195, 78.0487823, -23.3536587, -2.3780489, -0.0419623
-1.0170898, 0.2075195, -0.0214844, 80.4878082, -24.1463413, -1.9512196, -0.0332341
-1.0205078, 0.203125, -0.0166016, 82.0121994, -23.5975609, -1.2195122, -0.0386053
-1.0141602, 0.2041016, -0.0087891, 84.3902435, -22.3780499, -0.6707317, -0.0439765
-1.0039062, 0.2114258, -0.0078125, 85, -22.3170738, -1.097561, -0.0453193
-1.0053711, 0.2060547, -0.0092773, 85.6707306, -23.4146347, -2.0121951, -0.0379339
-1.0102539, 0.203125, -0.0083008, 85.7317123, -23.2317085, -1.8902439, -0.0369268
-1.0039062, 0.1884766, -0.0043945, 86.4024429, -22.8658543, -0.7926829, -0.0466621
-0.9970703, 0.1835938, -0.0024414, 86.8292694, -22.8048782, -0.4878049, -0.0486763
-0.9746094, 0.1762695, -0.0136719, 87.8048782, -22.6219521, -0.1219512, -0.0459907
-0.9624023, 0.1762695, -0.0112305, 88.4146347, -21.6463413, -0.8536586, -0.0386053
-0.9750977, 0.1616211, 0.0224609, 88.7195129, -21.1585369, -1.2195122, -0.0446479
-0.9755859, 0.1669922, -0.0053711, 91.0975647, -23.1097565, -1.8292683, -0.0466621
-0.9716797, 0.1894531, -0.0375977, 91.5243912, -23.4756107, -1.8902439, -0.0459907
-0.9648438, 0.1923828, -0.0351562, 92.3170776, -22.6829281, -0.7926829, -0.0419623
-0.953125, 0.2070312, -0.0249023, 92.8048782, -22.6829281, -1.0365853, -0.0520333
-0.9501953, 0.2114258, -0.0175781, 94.2682953, -22.1951218, -1.097561, -0.0500191
-0.9511719, 0.2226562, -0.015625, 94.5121994, -22.0731716, -0.8536586, -0.0459907
-0.9472656, 0.2236328, -0.0219727, 95.3048782, -22.6829281, -1.7682927, -0.0459907
-0.9448242, 0.2211914, -0.0249023, 96.5243912, -23.3536587, -3.1707318, -0.0486763
-0.9536133, 0.2050781, -0.0371094, 96.9512253, -23.1097565, -3.5975611, -0.0493477
-0.9575195, 0.1967773, -0.0410156, 98.1097565, -23.8414631, -3.9024391, -0.0473335
-0.9658203, 0.1845703, -0.0429688, 98.5975647, -23.8414631, -4.0853658, -0.0540475
-0.9667969, 0.1811523, -0.0483398, 99.5121994, -23.780489, -3.9024391, -0.0486763
-0.9692383, 0.175293, -0.0585938, 99.5731735, -23.5365868, -4.2073174, -0.0379339
-0.9702148, 0.1757812, -0.0576172, 99.5731735, -24.3292694, -4.6951222, -0.0379339
-0.9765625, 0.1918945, -0.0668945, 99.7561035, -24.5731716, -5, -0.0446479
-0.9785156, 0.199707, -0.0708008, 99.3292694, -25.3048782, -5, -0.0459907
-0.9794922, 0.21875, -0.0795898, 98.9634171, -25.3658543, -5.0609756, -0.0496834
-0.9716797, 0.234375, -0.0800781, 98.7804871, -25.7926826, -4.5121951, -0.0513619
-0.9672852, 0.2397461, -0.0742188, 98.2317123, -26.1585369, -4.6951222, -0.0473335
-0.956543, 0.2475586, -0.0576172, 98.4146347, -26.2195129, -4.6951222, -0.0412909
-0.9501953, 0.2514648, -0.0488281, 98.0487823, -26.6463413, -5.5487804, -0.0433051
-0.9443359, 0.2504883, -0.0371094, 97.68293, -26.8292694, -5.609756, -0.0406195
-0.9438477, 0.2490234, -0.0322266, 97.1951218, -26.9512196, -6.7682929, -0.0433051
-0.9418945, 0.2470703, -0.0185547, 97.1341476, -27.4390259, -7.0731707, -0.0436408
-0.940918, 0.2416992, -0.0112305, 97.1341476, -27.6219521, -7.3170733, -0.042298
-0.9462891, 0.2285156, -0.0083008, 97.5609741, -27.3170738, -7.9878049, -0.0392767
-0.9453125, 0.21875, -0.0053711, 97.8048782, -27.0121956, -8.2317076, -0.0412909
-0.9511719, 0.1992188, 0.003418, 98.0487823, -27.0731716, -8.2317076, -0.0379339
-0.9511719, 0.1918945, -0.0004883, 98.8414688, -27.0731716, -8.4146347, -0.0409552
-0.9584961, 0.1904297, 0.0009766, 98.9634171, -27.0731716, -8.2926826, -0.0379339
-0.9624023, 0.1928711, 0.0126953, 99.5731735, -27.6829281, -8.2317076, -0.0352483
-0.9633789, 0.190918, 0.0175781, 102.0121994, -27.9878063, -8.2926826, -0.0379339
-0.9580078, 0.1918945, 0.0166016, 102.3780518, -27.9268303, -8.1097565, -0.0386053
-0.9589844, 0.1923828, 0.0273438, 103.8414688, -27.3780499, -7.9268293, -0.0433051
-0.9594727, 0.2006836, 0.0493164, 104.9390259, -27.3170738, -8.1097565, -0.0359197
-0.9609375, 0.2099609, 0.0595703, 108.0487823, -27.6829281, -8.5365858, -0.0379339
-0.9667969, 0.2260742, 0.0483398, 109.5731735, -27.8048782, -8.4146347, -0.0379339
-0.9609375, 0.2319336, 0.034668, 110.7926865, -28.3536587, -8.5975609, -0.0446479
-0.9506836, 0.2294922, 0.0146484, 109.9390259, -28.5975609, -8.4756098, -0.0446479
-0.9482422, 0.2373047, 0.0146484, 107.68293, -28.3536587, -8.5365858, -0.0446479
-0.9487305, 0.2431641, 0.0117188, 106.1585388, -28.1097565, -8.3536587, -0.0399481
-0.9492188, 0.2519531, 0.0180664, 105.9756088, -27.9268303, -7.9878049, -0.0352483
-0.9477539, 0.2412109, 0.0131836, 107.8048782, -29.0853672, -7.5, -0.0325628
-0.9326172, 0.2255859, -0.0083008, 108.5975647, -28.9024391, -7.6219516, -0.038941
-0.9267578, 0.2138672, -0.0205078, 107.3170776, -27.9268303, -7.7439027, -0.0419623
-0.9262695, 0.2006836, -0.0263672, 105.3048782, -27.5, -8.1097565, -0.0372625
-0.9379883, 0.2006836, -0.0332031, 101.5853653, -27.0121956, -8.2926826, -0.0412909
-0.9628906, 0.2124023, -0.0375977, 99.9390259, -26.8292694, -7.9268293, -0.0453193
-0.9702148, 0.2236328, -0.0307617, 97.1341476, -27.1951218, -6.5243902, -0.0419623
-0.972168, 0.2509766, -0.0214844, 95.8536606, -26.8902454, -5.9146342, -0.0379339
-0.9677734, 0.2758789, -0.0107422, 92.5609741, -27.1951218, -5.1219511, -0.0365911
-0.9663086, 0.2861328, -0.0087891, 88.0487823, -27.3170738, -5.5487804, -0.035584
-0.9746094, 0.2929688, 0.0004883, 86.0365906, -27.7439022, -5.8536587, -0.0386053
-0.9819336, 0.2900391, 0.0058594, 82.2560959, -27.6829281, -5.7926831, -0.0473335
-0.9829102, 0.2729492, 0.0043945, 80.7926865, -27.560976, -5.5487804, -0.0399481
-0.9833984, 0.2641602, 0.0107422, 78.0487823, -27.1341476, -5, -0.0365911
-0.9858398, 0.2304688, 0.0292969, 77.3780518, -27.3170738, -4.7560978, -0.0419623
-0.9819336, 0.2202148, 0.0322266, 77.1951218, -27.7439022, -4.3292685, -0.0459907
-0.9897461, 0.1938477, 0.0371094, 77.1341476, -27.5, -4.4512196, -0.0486763
-1.0004883, 0.1889648, 0.0454102, 76.7073212, -27.0731716, -4.5121951, -0.0500191
-1.0161133, 0.1943359, 0.0625, 76.7682953, -26.7682934, -4.1463413, -0.0473335
-1.0263672, 0.2163086, 0.0541992, 76.7073212, -26.280489, -3.7804878, -0.0500191
-1.0283203, 0.2290039, 0.0449219, 74.8170776, -26.7682934, -2.9268293, -0.0527047
-1.0380859, 0.2460938, 0.0317383, 73.9634171, -27.0121956, -2.5609756, -0.0419623
-1.0292969, 0.2514648, 0.0302734, 72.8048782, -27.6219521, -2.0121951, -0.0466621
-1.0244141, 0.2592773, 0.0292969, 72.6219559, -27.4390259, -1.2195122, -0.0513619
-1.0170898, 0.2602539, 0.0253906, 72.8658524, -26.8292694, -0.0609756, -0.0527047
-0.9995117, 0.2524414, 0.0102539, 72.3780518, -26.7682934, -0.0609756, -0.0533761
-0.9907227, 0.2514648, 0.0039062, 71.2195129, -26.5853672, 0.4268293, -0.0594186
-0.9858398, 0.2382812, -0.0063477, 70.18293, -26.4634151, 0.6707317, -0.0520333
-0.9819336, 0.2363281, -0.0161133, 67.8658524, -25.7926826, 0.4268293, -0.0446479
-0.987793, 0.2397461, -0.0102539, 67.0731735, -25.6707325, 0.5487805, -0.0466621
-0.9907227, 0.246582, -0.0053711, 66.9512177, -25.3658543, 0.7317073, -0.0506905
-0.9960938, 0.2539062, -0.0083008, 66.2804871, -24.7560978, 1.1585366, -0.0533761
-0.9985352, 0.2626953, -0.0087891, 65.6097565, -24.7560978, 1.097561, -0.0493477
-0.9970703, 0.2666016, -0.0043945, 63.841465, -24.6341476, 1.0365853, -0.0513619
-0.9985352, 0.2670898, 0.0151367, 63.5365868, -24.8780499, 1.097561, -0.0513619
-1.0019531, 0.2680664, 0.0185547, 64.2073212, -24.6951218, 1.2195122, -0.0513619
-0.9892578, 0.2504883, 0.0151367, 65, -24.5731716, 1.7073171, -0.0453193
-0.9824219, 0.2358398, 0.0092773, 64.6951218, -24.2682934, 1.8292683, -0.0419623
-0.9746094, 0.2075195, 0.0097656, 64.5121994, -24.0853672, 1.5243902, -0.0459907
-0.9907227, 0.1923828, 0.0112305, 64.0853653, -24.1463413, 1.2804878, -0.0443122
-0.9970703, 0.1953125, 0.0073242, 64.5731735, -23.9024391, 1.2195122, -0.0433051
-1.0097656, 0.2099609, -0.0117188, 65.3658524, -23.9634151, 1.6463414, -0.0379339
-1.0131836, 0.21875, -0.0200195, 65.4878082, -24.6341476, 2.4390244, -0.0386053
-1.0214844, 0.2333984, -0.0141602, 65.2439041, -24.9390259, 2.8658538, -0.0453193
-1.0214844, 0.2363281, -0.0170898, 66.9512177, -25.6707325, 3.5975611, -0.0453193
-1.0136719, 0.2529297, -0.0332031, 66.8902435, -25.5487804, 3.6585367, -0.0386053
-1.012207, 0.2602539, -0.0395508, 65.2439041, -25.9756107, 3.8414636, -0.0352483
-1.0214844, 0.2734375, -0.043457, 64.3902435, -26.1585369, 4.0243902, -0.0392767
-1.0219727, 0.2807617, -0.0444336, 62.0731735, -26.4634151, 4.0243902, -0.0365911
-1.0180664, 0.3032227, -0.0478516, 61.2195129, -26.280489, 4.0243902, -0.0392767
-1.0053711, 0.3110352, -0.0537109, 59.0243912, -26.5243912, 4.5121951, -0.0386053
-1.0039062, 0.3110352, -0.0537109, 57.5609779, -26.6463413, 4.5731707, -0.0433051
-0.9892578, 0.3129883, -0.0424805, 55.1219521, -26.8292694, 4.2682929, -0.0352483
-0.9892578, 0.3110352, -0.0380859, 52.4390259, -26.5243912, 3.7804878, -0.0419623
-0.9887695, 0.3105469, -0.0185547, 51.341465, -25.9146347, 3.5975611, -0.0459907
-0.9897461, 0.3056641, -0.0136719, 49.8780518, -25.4268303, 3.4756098, -0.0466621
-0.9799805, 0.2978516, -0.0092773, 49.2682953, -25.3658543, 3.2926829, -0.0433051
-0.9750977, 0.2954102, -0.0073242, 47.3780518, -24.6951218, 2.9878049, -0.0359197
-0.9755859, 0.2836914, 0.0078125, 46.4634171, -24.2682934, 2.6219513, -0.0412909
-0.9819336, 0.2832031, 0.0180664, 45.7926826, -23.6585369, 2.3170731, -0.0352483
-0.9824219, 0.277832, 0.0249023, 46.341465, -23.5975609, 2.195122, -0.0392767
-0.9746094, 0.2646484, 0.0053711, 46.5853653, -23.1097565, 2.195122, -0.0453193
-0.9711914, 0.2661133, -0.0014648, 45.7926826, -22.6829281, 2.0121951, -0.0493477
-0.9677734, 0.2675781, -0.0048828, 43.5975609, -22.0121956, 2.0121951, -0.0486763
-0.9726562, 0.2724609, -0.0083008, 41.7682953, -21.280489, 1.4634147, -0.0459907
-0.980957, 0.2739258, -0.0078125, 41.7682953, -21.5853672, 1.6463414, -0.0486763
-0.9780273, 0.2783203, -0.0092773, 42.1341476, -21.4024391, 2.3780489, -0.0459907
-0.9599609, 0.2807617, -0.0200195, 42.1951218, -21.0975609, 2.6219513, -0.0459907
-0.9536133, 0.2788086, -0.0297852, 40.6707344, -20.1829281, 2.5, -0.0540475
-0.9526367, 0.2802734, -0.0463867, 39.6951218, -20.060976, 2.2560976, -0.0506905
-0.9555664, 0.2729492, -0.0473633, 36.8292694, -19.6951218, 1.9512196, -0.0406195
-0.9663086, 0.2666016, -0.0512695, 36.341465, -19.6341476, 2.2560976, -0.0382696
-0.9609375, 0.2631836, -0.0507812, 35.5487823, -19.6341476, 2.9268293, -0.0433051
-0.9619141, 0.2617188, -0.0532227, 35, -19.4512196, 2.9268293, -0.0500191
-0.9672852, 0.2617188, -0.0537109, 33.4756088, -20.1829281, 2.7439024, -0.0426337
-0.9702148, 0.2636719, -0.0532227, 31.7073174, -19.6951218, 2.3780489, -0.0396124
-0.9702148, 0.28125, -0.0522461, 30.6097565, -19.7560978, 2.5609756, -0.0459907
-0.9736328, 0.2792969, -0.0332031, 30.7317085, -20.3658543, 3.1097562, -0.0379339
-0.9716797, 0.2675781, 0.0009766, 33.3536606, -20.9756107, 3.6585367, -0.0493477
-0.9584961, 0.2583008, -0.0009766, 37.9878044, -21.5853672, 4.2073174, -0.0486763
-0.9345703, 0.237793, -0.0117188, 38.3536606, -21.2195129, 4.1463413, -0.0459907
-0.9326172, 0.2324219, -0.0078125, 37.9878044, -20, 2.4390244, -0.0419623
-0.9526367, 0.2480469, -0.0039062, 37.6219521, -19.5731716, 1.5853659, -0.0352483
-0.9780273, 0.2719727, -0.0375977, 37.4390259, -20.060976, 2.0121951, -0.0382696
-0.9785156, 0.277832, -0.0537109, 36.7682953, -20, 2.4390244, -0.0466621
-0.9614258, 0.2807617, -0.0605469, 35.0609779, -20.4268303, 4.0853658, -0.0436408
-0.9487305, 0.2807617, -0.0556641, 33.5975609, -20.4878044, 4.0853658, -0.0433051
-0.9355469, 0.2758789, -0.0341797, 33.4146347, -20.5487804, 3.9634147, -0.0392767
-0.9370117, 0.2724609, -0.0268555, 34.0853653, -20.6707325, 3.5365853, -0.0386053
-0.9296875, 0.2685547, -0.0307617, 33.9024391, -20.5487804, 3.2317073, -0.0446479
-0.9287109, 0.2631836, -0.0200195, 34.8780479, -20, 2.7439024, -0.0419623
-0.934082, 0.25, -0.0068359, 36.341465, -19.8780499, 2.804878, -0.0419623
-0.9360352, 0.2392578, -0.0078125, 38.2926826, -19.7560978, 2.804878, -0.0379339
-0.9370117, 0.2304688, -0.0219727, 38.5975609, -19.5731716, 2.6829269, -0.0459907
-0.949707, 0.2314453, -0.027832, 38.0487823, -18.8414631, 2.5, -0.0473335
-0.9555664, 0.2353516, -0.0288086, 38.0487823, -18.9024391, 2.8658538, -0.0433051
-0.9648438, 0.2431641, -0.0390625, 37.5609779, -18.780489, 3.7804878, -0.0486763
-0.9599609, 0.246582, -0.0395508, 36.7682953, -18.8414631, 4.7560978, -0.0486763
-0.9541016, 0.2514648, -0.0341797, 36.2195129, -18.780489, 5.0609756, -0.0493477
-0.9482422, 0.2602539, -0.0341797, 35.2439041, -18.8414631, 5.0609756, -0.0459907
-0.9355469, 0.262207, -0.0444336, 34.5731697, -19.0853672, 5, -0.0439765
-0.9311523, 0.2734375, -0.0493164, 32.8658562, -18.5975609, 5.1829271, -0.0439765
-0.9335938, 0.2915039, -0.0473633, 31.7682934, -18.1097565, 5.4268293, -0.0453193
-0.9350586, 0.2958984, -0.0454102, 30.2439022, -17.3780499, 5.4268293, -0.0433051
-0.9335938, 0.2939453, -0.034668, 29.9390259, -17.1951218, 5.5487804, -0.0446479
-0.9287109, 0.2900391, -0.0380859, 29.1463413, -17.1341476, 5.4878049, -0.0419623
-0.9262695, 0.2861328, -0.0385742, 28.2317085, -16.9512196, 5.609756, -0.0433051
-0.9316406, 0.2871094, -0.0356445, 25.4878063, -16.2195129, 4.7560978, -0.0459907
-0.9399414, 0.2929688, -0.0375977, 22.8048782, -15.1829271, 4.1463413, -0.0439765
-0.9550781, 0.3037109, -0.0415039, 21.7073174, -15, 4.3292685, -0.0439765
-0.956543, 0.3110352, -0.0429688, 19.3292694, -14.6341467, 4.6951222, -0.0412909
-0.9487305, 0.3041992, -0.046875, 18.1707325, -15.060976, 5.0609756, -0.0412909
-0.9462891, 0.300293, -0.0493164, 15.7926836, -15.1219511, 4.8170733, -0.0480049
-0.9384766, 0.2895508, -0.0375977, 15.060976, -14.9390249, 4.390244, -0.0412909
-0.9453125, 0.2939453, -0.034668, 13.2317076, -14.0853662, 3.7195122, -0.0406195
-0.9550781, 0.2954102, -0.0366211, 12.8048782, -13.5365858, 3.4756098, -0.0419623
-0.9638672, 0.3022461, -0.0463867, 10.7317076, -13.5975609, 3.4756098, -0.0419623
-0.9633789, 0.3081055, -0.0507812, 9.5731707, -13.4756098, 3.2926829, -0.0379339
-0.9560547, 0.3125, -0.0493164, 7.6219516, -13.2926836, 3.5975611, -0.042298
-0.9560547, 0.3085938, -0.0419922, 6.5853658, -13.1097565, 3.3536587, -0.0433051
-0.9584961, 0.2915039, -0.0161133, 8.1707315, -13.0487804, 3.6585367, -0.0486763
-0.9584961, 0.2714844, -0.0117188, 12.6219511, -12.8658543, 3.5975611, -0.0439765
-0.9555664, 0.2304688, -0.0087891, 14.8170738, -12.9268293, 3.4146342, -0.0406195
-0.9570312, 0.2143555, -0.0102539, 19.4512196, -13.1097565, 3.1097562, -0.0386053
-0.96875, 0.1884766, -0.03125, 21.4024391, -12.560976, 3.0487804, -0.0406195
-0.9770508, 0.1875, -0.0444336, 23.6585369, -12.6219511, 2.6829269, -0.0399481
-1.0009766, 0.2080078, -0.0673828, 24.5731716, -12.7439032, 2.9878049, -0.0386053
-1.0102539, 0.2270508, -0.0839844, 25.7926826, -13.841464, 4.2073174, -0.0406195
-1.0102539, 0.2392578, -0.0883789, 26.4634151, -14.6341467, 4.7560978, -0.0386053
-0.9892578, 0.2553711, -0.090332, 27.0731716, -15.9756098, 5.609756, -0.0379339
-0.9794922, 0.2597656, -0.0859375, 27.1341476, -16.5853653, 5.5487804, -0.0386053
-0.9677734, 0.2758789, -0.081543, 26.9512196, -16.4634151, 5.1829271, -0.0359197
-0.96875, 0.2822266, -0.0771484, 26.4024391, -16.4634151, 5.3048782, -0.0399481
-0.9726562, 0.2880859, -0.0620117, 26.280489, -16.4634151, 5.0609756, -0.0439765
-0.9750977, 0.2866211, -0.059082, 26.9512196, -16.8902435, 4.8780489, -0.0426337
-0.9692383, 0.2714844, -0.0644531, 27.1341476, -17.0121956, 4.5121951, -0.0406195
-0.9716797, 0.2563477, -0.0644531, 26.3414631, -16.4634151, 4.6341462, -0.0392767
-0.9750977, 0.2548828, -0.0454102, 25.6707325, -16.0975609, 4.2682929, -0.0325628
-0.9951172, 0.262207, -0.0317383, 25.1219521, -15.6097565, 4.390244, -0.0325628
-0.9970703, 0.2607422, -0.0205078, 24.4512196, -15.4878054, 4.5121951, -0.0365911
-0.9956055, 0.2558594, -0.0058594, 25.8536587, -16.280489, 5.2439027, -0.0386053
-0.9853516, 0.2475586, -0.0107422, 28.0487804, -17.0731716, 5.3048782, -0.0453193
-0.9633789, 0.2250977, -0.0297852, 28.3536587, -16.7682934, 5.3658538, -0.0476692
-0.9624023, 0.2182617, -0.0297852, 27.2560978, -15.5487804, 4.7560978, -0.0527047
-0.9780273, 0.2412109, -0.0317383, 27.0121956, -14.6951227, 4.5731707, -0.0459907
-0.9916992, 0.2583008, -0.0449219, 26.0975609, -13.9024391, 4.3292685, -0.0486763
-1.003418, 0.2929688, -0.0595703, 25.1829281, -14.2682934, 4.6341462, -0.0459907
-1.0053711, 0.300293, -0.0600586, 22.560976, -14.6951227, 5.3048782, -0.0459907
-0.9936523, 0.309082, -0.0541992, 22.0121956, -15, 5.4878049, -0.0520333
-0.9804688, 0.3007812, -0.0458984, 20.9146347, -15.1829271, 5.2439027, -0.0540475
-0.9731445, 0.2978516, -0.0493164, 19.1463413, -14.3292685, 4.6341462, -0.0486763
-0.9750977, 0.3007812, -0.046875, 17.9878044, -13.9024391, 4.1463413, -0.0426337
-0.9765625, 0.3007812, -0.0390625, 16.6463413, -13.1707315, 3.7195122, -0.0419623
-0.9887695, 0.3012695, -0.03125, 16.280489, -13.3536587, 3.2317073, -0.0449836
-0.9931641, 0.3012695, -0.0405273, 16.1585369, -13.2317076, 2.9268293, -0.0446479
-0.9897461, 0.296875, -0.0429688, 15.2439032, -12.9878054, 2.5609756, -0.0409552
-0.9912109, 0.2929688, -0.0371094, 14.0853662, -13.0487804, 1.7682927, -0.0466621
-1.0068359, 0.2939453, -0.0180664, 13.841464, -12.5, 1.5853659, -0.0392767
-1.0043945, 0.2954102, -0.0214844, 13.2926836, -12.3780489, 1.402439, -0.0352483
-1.0009766, 0.3046875, -0.0302734, 12.560976, -12.560976, 1.3414634, -0.042298
-0.9912109, 0.3046875, -0.0297852, 10.7926836, -12.9878054, 1.097561, -0.0466621
-0.9887695, 0.3027344, -0.0268555, 10.1829271, -12.8658543, 0.5487805, -0.0406195
-0.980957, 0.3017578, -0.03125, 10.1219511, -12.9878054, 0.3048781, -0.0379339
-0.9760742, 0.2924805, -0.0336914, 10.8536587, -12.560976, 0.1829268, -0.0406195
-0.9702148, 0.2749023, -0.0361328, 11.5243902, -12.6829271, 0, -0.0433051
-0.9716797, 0.2612305, -0.0380859, 11.8292685, -12.4390249, -0.7926829, -0.0419623
-0.9799805, 0.2509766, -0.046875, 12.1341467, -12.2560978, -1.3414634, -0.0359197
-0.9853516, 0.2524414, -0.0444336, 12.3170738, -12.3170738, -2.0121951, -0.0433051
-0.9995117, 0.2558594, -0.0395508, 13.0487804, -12.560976, -2.0731707, -0.0399481
-1.0048828, 0.2563477, -0.0424805, 13.7195129, -13.1097565, -1.8902439, -0.0426337
-0.9975586, 0.265625, -0.0507812, 14.2682934, -13.4756098, -1.8292683, -0.0459907
-0.9858398, 0.262207, -0.0566406, 13.2926836, -14.0853662, -1.5853659, -0.0480049
-0.9833984, 0.2666016, -0.0585938, 12.6219511, -13.841464, -1.7073171, -0.0433051
-0.9819336, 0.2768555, -0.0654297, 12.560976, -14.2073174, -1.7073171, -0.0392767
-0.9829102, 0.2792969, -0.065918, 11.8902445, -14.0853662, -1.5243902, -0.0386053
-0.9790039, 0.2753906, -0.0629883, 11.4024391, -14.4512196, -1.7073171, -0.0446479
-0.9711914, 0.269043, -0.0556641, 11.0365858, -15.3658543, -1.6463414, -0.0527047
-0.96875, 0.2504883, -0.0166016, 11.5243902, -15.3048782, -1.8902439, -0.0486763
-0.9750977, 0.2387695, 0.0058594, 15.1829271, -15.7317076, -2.5609756, -0.06009
-0.9833984, 0.2143555, 0.0166016, 18.1097565, -15.9756098, -2.6829269, -0.0486763
-0.9819336, 0.2070312, 0.0029297, 20.7926826, -15.5487804, -2.9268293, -0.0446479
-0.9790039, 0.2128906, -0.0073242, 21.2195129, -15.3658543, -3.1707318, -0.0486763
-1.0068359, 0.2470703, -0.0141602, 21.4024391, -15.060976, -3.7195122, -0.0533761
-1.0097656, 0.2680664, -0.0244141, 21.3414631, -15.4268293, -2.5, -0.0500191
-0.9990234, 0.3012695, -0.0366211, 20.9756107, -15.6097565, -1.6463414, -0.0459907
-0.9833984, 0.3027344, -0.0385742, 19.0243912, -16.5243912, -0.7926829, -0.0446479
-0.9433594, 0.3017578, -0.0366211, 18.0487804, -16.4634151, -0.7926829, -0.0419623
-0.9379883, 0.2978516, -0.0327148, 16.1585369, -15.9146347, -2.0121951, -0.0379339
-0.9335938, 0.3022461, -0.0258789, 15.3658543, -15.3658543, -2.5, -0.0345769
-0.9379883, 0.3051758, -0.0234375, 13.7195129, -14.0243902, -2.9878049, -0.0419623
-0.9443359, 0.3115234, -0.0224609, 12.5, -13.5365858, -3.3536587, -0.0446479
-0.9472656, 0.3100586, -0.0205078, 9.8780489, -13.5365858, -3.2926829, -0.0439765
-0.9458008, 0.3066406, -0.0102539, 8.841464, -13.1097565, -3.3536587, -0.0446479
-0.9467773, 0.2983398, -0.0053711, 7.3780489, -12.560976, -3.2926829, -0.0486763
-0.9472656, 0.2944336, -0.0053711, 5.609756, -11.7682934, -3.5365853, -0.0540475
-0.9462891, 0.3012695, -0.0107422, 4.2682929, -11.280488, -3.7195122, -0.0459907
-0.9472656, 0.3081055, -0.0112305, 1.8292683, -10.6707315, -4.0853658, -0.0433051
-0.9521484, 0.3203125, -0.0214844, 0.4268293, -10.6097565, -3.9024391, -0.0459907
-0.9492188, 0.3222656, -0.0239258, -1.9512196, -10.1219511, -3.6585367, -0.0406195
-0.9545898, 0.3271484, -0.0200195, -3.1097562, -9.9390249, -3.7804878, -0.0386053
-0.9492188, 0.3212891, -0.0166016, -3.5975611, -9.8780489, -3.5975611, -0.0466621
-0.949707, 0.2983398, -0.0092773, -2.9878049, -10.060976, -3.6585367, -0.0486763
-0.9472656, 0.284668, -0.0117188, -1.0365853, -9.8780489, -3.8414636, -0.0412909
-0.9511719, 0.269043, -0.0258789, -0.9146342, -9.3292685, -3.9024391, -0.0382696
-0.9628906, 0.2675781, -0.0297852, -0.8536586, -8.6585369, -4.3292685, -0.0365911
-0.9814453, 0.2783203, -0.0332031, -0.7926829, -8.5365858, -4.5121951, -0.0339055
-0.9990234, 0.2910156, -0.0375977, -0.6707317, -9.0243902, -3.7195122, -0.03122
-0.9985352, 0.2905273, -0.0351562, 0.7317073, -10.1829271, -2.3780489, -0.0406195
-0.9780273, 0.2817383, -0.0375977, 1.5243902, -10.2439022, -1.8292683, -0.0399481
-0.9628906, 0.2773438, -0.0400391, 2.6219513, -10.6097565, -1.4634147, -0.0466621
-0.953125, 0.265625, -0.0356445, 3.1097562, -10.3048782, -1.6463414, -0.0419623
-0.9506836, 0.2724609, -0.0234375, 4.9390244, -9.6341467, -1.6463414, -0.0392767
-0.9501953, 0.2836914, -0.0385742, 5.8536587, -9.5121956, -1.5243902, -0.0459907
-0.9487305, 0.2939453, -0.0605469, 5.609756, -9.5121956, -0.8536586, -0.0527047
-0.9462891, 0.2929688, -0.0629883, 5, -9.8780489, -0.4268293, -0.0533761
-0.9443359, 0.2983398, -0.0561523, 4.8170733, -10, -0.2439024, -0.0453193
-0.9428711, 0.2915039, -0.0537109, 5.9756098, -9.6341467, 0.6097561, -0.0473335
-0.9365234, 0.2802734, -0.0473633, 6.9512196, -9.5121956, 0.9756098, -0.0399481
-0.9345703, 0.2714844, -0.0493164, 7.9878049, -9.2073174, 1.6463414, -0.0439765
-0.9301758, 0.2636719, -0.0444336, 8.3536587, -8.841464, 1.6463414, -0.0439765
-0.9418945, 0.2651367, -0.0463867, 8.2317076, -8.3536587, 1.402439, -0.0406195
-0.9536133, 0.2807617, -0.0532227, 8.5975609, -8.5975609, 2.0121951, -0.0406195
-0.9575195, 0.284668, -0.0561523, 8.841464, -8.5975609, 3.0487804, -0.0419623
-0.9555664, 0.293457, -0.0678711, 8.4756098, -8.780488, 3.6585367, -0.0406195
-0.9472656, 0.3037109, -0.0683594, 8.841464, -8.9024391, 4.6951222, -0.0396124
-0.9462891, 0.3076172, -0.0595703, 8.719512, -8.9024391, 4.9390244, -0.0436408
-0.9438477, 0.3129883, -0.0449219, 9.0853662, -8.719512, 5.9146342, -0.0500191
-0.9375, 0.3129883, -0.0415039, 9.8170738, -7.9878049, 6.1585369, -0.0416266
-0.9389648, 0.3120117, -0.0273438, 9.8170738, -7.9878049, 6.4634147, -0.0406195
-0.9394531, 0.3125, -0.0209961, 10.2439022, -7.3780489, 7.1341467, -0.0496834
-0.9462891, 0.3051758, -0.0058594, 10.1219511, -6.8292685, 7.8658538, -0.0500191
-0.9462891, 0.3007812, 0.0004883, 10.3658543, -6.0365853, 8.2926826, -0.038941
-0.9555664, 0.2988281, 0.0117188, 10.6097565, -5.7317076, 8.6585369, -0.0332341
-0.956543, 0.300293, 0.0136719, 11.5243902, -4.9390244, 9.3292685, -0.0392767
-0.9609375, 0.3100586, 0.012207, 11.8292685, -4.7560978, 9.7560978, -0.0406195
-0.9633789, 0.3183594, 0.0073242, 12.0121956, -4.4512196, 10.4268293, -0.0409552
-0.956543, 0.3183594, 0.0048828, 12.0121956, -4.1463413, 10.8536587, -0.0500191
-0.953125, 0.3193359, 0.0063477, 12.9878054, -3.8414636, 11.6463413, -0.0459907
-0.9521484, 0.3198242, 0.0019531, 14.8170738, -3.1707318, 12.5, -0.0459907
-0.9414062, 0.3203125, -0.0083008, 15.1219511, -2.6829269, 12.560976, -0.0436408
-0.9379883, 0.3237305, -0.0087891, 15.4878054, -1.2804878, 12.560976, -0.0459907
-0.9423828, 0.3354492, -0.0078125, 15.5487804, -0.9146342, 12.9268293, -0.0433051
-0.940918, 0.340332, -0.0097656, 16.0365849, -0.3048781, 13.2926836, -0.0500191
-0.9462891, 0.3359375, -0.0146484, 15.3048782, -0.0609756, 13.780488, -0.0473335
-0.9428711, 0.3349609, -0.0249023, 14.3292685, 0.3048781, 14.6951227, -0.0419623
-0.9404297, 0.3232422, -0.0498047, 13.7195129, 1.097561, 14.9390249, -0.0433051
-0.9501953, 0.300293, -0.0200195, 12.7439032, 2.3170731, 15.1829271, -0.0392767
-0.9570312, 0.296875, -0.0141602, 14.2073174, 2.6219513, 15.7926836, -0.0433051
-0.9697266, 0.3046875, -0.0610352, 19.4512196, 3.4756098, 17.3170738, -0.0446479
-0.96875, 0.3095703, -0.1000977, 21.5853672, 3.4146342, 18.1707325, -0.0298772
-0.9667969, 0.315918, -0.1420898, 21.5243912, 3.1707318, 18.9634151, -0.0339055
-0.9619141, 0.3232422, -0.1489258, 21.5853672, 2.0121951, 20.4268303, -0.0365911
-0.9443359, 0.3349609, -0.1806641, 22.2560978, 1.4634147, 21.4634151, -0.0359197
-0.9350586, 0.3398438, -0.1948242, 23.2926826, 1.4634147, 23.5365868, -0.0386053
-0.9228516, 0.3544922, -0.1943359, 23.5975609, 1.5243902, 23.9634151, -0.042298
-0.9165039, 0.3613281, -0.1879883, 23.9024391, 1.5853659, 24.6341476, -0.0386053
-0.9199219, 0.3803711, -0.1660156, 24.5731716, 1.7682927, 25, -0.0372625
-0.9331055, 0.3901367, -0.1586914, 25.2439022, 1.2804878, 24.8780499, -0.0426337
-0.9345703, 0.3930664, -0.1572266, 25.3048782, 1.2804878, 25.2439022, -0.0459907
-0.9458008, 0.375, -0.1396484, 25.060976, 0.9756098, 26.7073174, -0.0406195
-0.9458008, 0.3676758, -0.1254883, 25, 0.4878049, 28.2926826, -0.0352483
-0.9506836, 0.3461914, -0.0932617, 25.2439022, 0.6707317, 29.0243912, -0.0332341
-0.9516602, 0.34375, -0.0771484, 25.2439022, 1.3414634, 29.7560978, -0.03122
-0.9580078, 0.3549805, -0.0454102, 25.1829281, 1.7073171, 30, -0.0332341
-0.9702148, 0.3618164, -0.0356445, 24.6951218, 1.7682927, 30.1829281, -0.0365911
-0.9814453, 0.3911133, -0.0322266, 24.3292694, 1.8292683, 30.6707325, -0.0446479
-0.9794922, 0.4038086, -0.0297852, 22.8658543, 1.9512196, 31.4634151, -0.0433051
-0.96875, 0.4291992, -0.0375977, 21.9512196, 2.4390244, 32.2560997, -0.0433051
-0.9628906, 0.4448242, -0.0527344, 21.7073174, 2.7439024, 33.0487823, -0.0406195
-0.9614258, 0.4506836, -0.0639648, 21.8292694, 2.9268293, 33.5365868, -0.0439765
-0.9541016, 0.4477539, -0.0791016, 21.8902435, 3.8414636, 33.9634171, -0.0386053
-0.9604492, 0.4550781, -0.0810547, 21.1585369, 4.9390244, 33.9634171, -0.0486763
-0.9682617, 0.465332, -0.0844727, 20.9146347, 5.5487804, 34.0853653, -0.0506905
-0.9746094, 0.4804688, -0.081543, 20.1219521, 6.0365853, 34.0243912, -0.0439765
-0.9848633, 0.4956055, -0.09375, 19.6341476, 6.0975609, 34.2682953, -0.0520333
-0.9838867, 0.4946289, -0.1069336, 18.6585369, 5.7317076, 34.8170738, -0.0520333
-0.9794922, 0.4892578, -0.1264648, 18.0487804, 5.7317076, 35.3658562, -0.0540475
-0.9726562, 0.484375, -0.1357422, 17.0731716, 6.5243902, 36.2804871, -0.0547189
-0.9638672, 0.4707031, -0.1342773, 16.3414631, 6.890244, 36.4634171, -0.052369
-0.9599609, 0.4682617, -0.1323242, 15.4268293, 8.0487804, 36.7073174, -0.0439765
-0.9624023, 0.465332, -0.1254883, 15.1219511, 8.1707315, 36.9512215, -0.0459907
-0.9672852, 0.4624023, -0.1152344, 14.5731707, 8.4146347, 37.1951218, -0.0473335
-0.9697266, 0.4614258, -0.1137695, 14.8780489, 8.4756098, 37.5609779, -0.0506905
-0.9677734, 0.4511719, -0.112793, 15.3048782, 8.6585369, 37.9878044, -0.0443122
-0.9672852, 0.4438477, -0.1132812, 15.7926836, 9.0243902, 37.6829262, -0.0392767
-0.9760742, 0.4428711, -0.1123047, 16.3414631, 9.3292685, 38.0487823, -0.0372625
-0.9790039, 0.4511719, -0.1123047, 17.6829281, 10.4878054, 38.9634171, -0.0392767
-0.9785156, 0.4638672, -0.1176758, 17.9878044, 11.0365858, 39.3292694, -0.0439765
-0.9780273, 0.4692383, -0.1162109, 17.5, 12.0121956, 39.5731735, -0.0453193
-0.9838867, 0.4882812, -0.112793, 16.9512196, 12.5, 39.7560997, -0.0345769
-0.9892578, 0.4990234, -0.1186523, 16.3414631, 13.1707315, 40.3048782, -0.0359197
-0.9824219, 0.5087891, -0.1166992, 16.5243912, 13.1707315, 40.2439041, -0.0379339
-0.965332, 0.5097656, -0.1323242, 16.0365849, 14.3902445, 40.9146347, -0.0352483
-0.9599609, 0.5083008, -0.1352539, 15.1829271, 15.4268293, 40.9146347, -0.0352483
-0.9575195, 0.5073242, -0.1313477, 14.6951227, 16.4024391, 41.0975609, -0.0439765
-0.9619141, 0.5058594, -0.1333008, 14.8780489, 18.1707325, 41.1585388, -0.0365911
-0.9672852, 0.4985352, -0.1264648, 15.3658543, 19.3292694, 41.4024391, -0.0318914
-0.9692383, 0.4951172, -0.1240234, 16.0975609, 20.9146347, 41.5853653, -0.0325628
-0.9770508, 0.4858398, -0.1162109, 16.3414631, 21.5853672, 41.7682953, -0.0359197
-0.980957, 0.4785156, -0.1147461, 15.4878054, 23.0487804, 42.5609779, -0.0426337
-0.9882812, 0.4848633, -0.1181641, 15.4268293, 23.9024391, 42.8048782, -0.0453193
-0.9897461, 0.4868164, -0.1333008, 15.4878054, 25.9146347, 43.5975609, -0.0446479
-0.9907227, 0.4887695, -0.1503906, 15.6097565, 26.5853672, 44.0243912, -0.0459907
-0.9838867, 0.5014648, -0.1694336, 15.6097565, 28.4146347, 45.3048782, -0.0476692
-0.9858398, 0.5063477, -0.1826172, 15.1829271, 30.7317085, 46.5853653, -0.0433051
-0.9882812, 0.5180664, -0.199707, 14.9390249, 31.8292694, 47.3170738, -0.0473335
-0.9868164, 0.5175781, -0.199707, 14.5731707, 33.1097565, 48.2926826, -0.0459907
-0.9921875, 0.5014648, -0.1704102, 14.6341467, 33.841465, 48.6585388, -0.0436408
-0.9873047, 0.4833984, -0.1547852, 15.3658543, 34.5731697, 49.2682953, -0.0500191
-0.9838867, 0.4423828, -0.1298828, 15.9146347, 35.1219521, 49.5731735, -0.0520333
-0.9833984, 0.4355469, -0.1269531, 17.0731716, 37.2560997, 50.1829262, -0.0513619
-0.9960938, 0.4453125, -0.1552734, 17.8048782, 38.3536606, 50.2439041, -0.0486763
-1.0092773, 0.4746094, -0.2099609, 19.2073174, 40, 51.6463432, -0.0459907
-1.0097656, 0.4897461, -0.2363281, 20.4268303, 40.6707344, 52.9878044, -0.0446479
-1.0009766, 0.5205078, -0.2626953, 22.0121956, 42.5609779, 54.9390259, -0.0433051
-1.0039062, 0.5268555, -0.2705078, 23.4146347, 44.2073174, 56.0365868, -0.0506905
-1.0083008, 0.5336914, -0.2685547, 24.0243912, 44.5121956, 56.7073174, -0.0486763
-1.0053711, 0.5385742, -0.2631836, 24.4512196, 45.0609779, 57.6219521, -0.0473335
-0.9951172, 0.5268555, -0.2475586, 24.2073174, 45.3658562, 58.0487823, -0.0500191
-0.9882812, 0.5161133, -0.2358398, 24.8170738, 46.1585388, 58.4146347, -0.0540475
-0.9765625, 0.5024414, -0.2211914, 25.9146347, 46.6463432, 59.0243912, -0.0540475
-0.9760742, 0.4931641, -0.2226562, 27.8658543, 48.1097565, 59.6951218, -0.0587472
-0.9672852, 0.4995117, -0.2441406, 28.7195129, 49.2073174, 60.0609779, -0.0570687
-0.9692383, 0.5136719, -0.2543945, 30.6707325, 51.8902435, 60.7317085, -0.0584115
-0.9785156, 0.5244141, -0.262207, 32.6219521, 54.3902435, 61.341465, -0.0527047
-0.9912109, 0.5322266, -0.2841797, 33.4146347, 55.2439041, 62.0121956, -0.0503548
-0.9897461, 0.5356445, -0.2998047, 34.5121956, 55.7317085, 62.9878082, -0.0580758
-0.9941406, 0.5390625, -0.3251953, 34.6341476, 56.4024391, 63.7804909, -0.0513619
-0.9887695, 0.5385742, -0.3359375, 35.0609779, 57.68293, 65.18293, -0.0540475
-0.9916992, 0.5356445, -0.3422852, 35.3048782, 58.9024391, 65.7926865, -0.0540475
-0.9980469, 0.5454102, -0.3344727, 36.2804871, 61.4634171, 66.6463394, -0.0527047
-1.0112305, 0.5585938, -0.2998047, 36.7682953, 62.2560997, 66.8292694, -0.0459907
-1.0117188, 0.5581055, -0.2832031, 38.6585388, 63.5365868, 67.3170776, -0.0480049
-1.0004883, 0.5537109, -0.2792969, 39.5121956, 64.3902435, 67.8048782, -0.0439765
-0.9916992, 0.5307617, -0.3076172, 41.0975609, 66.3414612, 68.5365906, -0.0527047
-0.9824219, 0.5234375, -0.3305664, 41.7073174, 69.3902435, 69.6951218, -0.0527047
-0.9790039, 0.5166016, -0.3808594, 42.1341476, 70.9146347, 70.18293, -0.0493477
-0.9799805, 0.5297852, -0.4008789, 42.5609779, 74.7560959, 71.8902435, -0.0459907
-0.996582, 0.5644531, -0.421875, 42.5, 76.2195129, 72.3170776, -0.049012
-1.0014648, 0.5849609, -0.4316406, 41.0365868, 78.5975647, 73.2317123, -0.0486763
-1.0180664, 0.6123047, -0.4379883, 39.6951218, 79.5731735, 73.8414688, -0.0439765
-1.0185547, 0.6157227, -0.4345703, 37.0731697, 80.3048782, 75, -0.0480049
-1.0087891, 0.605957, -0.4228516, 36.8902435, 80.4878082, 75.4268341, -0.0449836
-1.0024414, 0.5927734, -0.4223633, 36.6463432, 82.3780518, 76.2195129, -0.0480049
-0.996582, 0.5712891, -0.4345703, 36.6463432, 83.5365906, 76.3414688, -0.0399481
-0.9995117, 0.5708008, -0.4589844, 36.7682953, 85.7926865, 76.5853653, -0.0453193
-1.0078125, 0.5771484, -0.4716797, 37.6219521, 88.4756088, 77.0731735, -0.0453193
-1.0307617, 0.6030273, -0.4799805, 37.9268303, 89.8170776, 77.2560959, -0.0392767
-1.0327148, 0.6088867, -0.4775391, 37.1341476, 91.9512253, 77.8658524, -0.0419623
-1.043457, 0.6132812, -0.4667969, 36.1585388, 92.9268341, 78.2317123, -0.0439765
-1.043457, 0.609375, -0.4550781, 35.0609779, 93.7195129, 79.146347, -0.0406195
-1.0395508, 0.5986328, -0.4384766, 35.4878044, 94.9390259, 79.5731735, -0.0419623
-1.0341797, 0.5917969, -0.4394531, 37.0731697, 96.7682953, 80.18293, -0.0419623
-1.0214844, 0.5795898, -0.4467773, 38.2317085, 97.9878082, 80.18293, -0.0406195
-1.0170898, 0.5791016, -0.4599609, 39.3902435, 100.2439041, 80.9146347, -0.0365911
-1.0092773, 0.5737305, -0.4980469, 39.8170738, 101.4024429, 81.2804871, -0.0332341
-1.003418, 0.5722656, -0.5161133, 39.8170738, 103.9024429, 82.0731735, -0.0406195
-1.0063477, 0.574707, -0.5273438, 40.0609779, 106.646347, 83.3536606, -0.0399481
-1.0078125, 0.5722656, -0.5356445, 39.8170738, 107.4390259, 83.9024429, -0.0392767
-1.0107422, 0.5688477, -0.5375977, 39.1463432, 108.9024429, 84.8780518, -0.0392767
-1.0117188, 0.5625, -0.5561523, 39.1463432, 109.6341476, 85.2439041, -0.0433051
-1.0107422, 0.5625, -0.5742188, 40.1829262, 110.3048782, 86.5853653, -0.0446479
-1.0087891, 0.5649414, -0.6220703, 41.1585388, 110.7926865, 87.4390259, -0.0412909
-1.0058594, 0.5776367, -0.6386719, 42.2560997, 112.0731735, 88.5975647, -0.0449836
-1.0107422, 0.6108398, -0.6591797, 42.6219521, 113.0487823, 89.0243912, -0.0540475
-1.0107422, 0.6352539, -0.6625977, 40.9146347, 114.6951218, 90.1219559, -0.0473335
-1.0097656, 0.6713867, -0.6445312, 39.3902435, 115.3048782, 90.5487823, -0.0480049
-0.9941406, 0.6860352, -0.609375, 36.1585388, 115.9756088, 91.1585388, -0.0433051
-0.9794922, 0.6816406, -0.597168, 33.3536606, 116.2804871, 91.2195129, -0.0392767
-0.9511719, 0.6513672, -0.5805664, 32.0121956, 116.8902435, 91.1585388, -0.0298772
-0.9375, 0.6289062, -0.5878906, 30.7317085, 119.2682953, 90.9756088, -0.0298772
-0.9404297, 0.6186523, -0.6025391, 29.9390259, 121.0365906, 91.0975647, -0.0345769
-0.9433594, 0.6142578, -0.6113281, 29.4512196, 124.0853653, 91.646347, -0.0372625
-0.9619141, 0.6152344, -0.6206055, 29.3292694, 125.6097565, 92.3170776, -0.0392767
-0.9707031, 0.628418, -0.6196289, 29.5121956, 127.0731735, 92.9878082, -0.0446479
-0.9692383, 0.6420898, -0.6137695, 29.5731716, 127.6219559, 93.2926865, -0.0372625
-0.965332, 0.6455078, -0.6201172, 29.2073174, 128.5365906, 93.9024429, -0.0298772
-0.9433594, 0.6313477, -0.625, 29.7560978, 129.0853729, 94.146347, -0.0365911
-0.9204102, 0.6000977, -0.6020508, 31.7073174, 130.6707306, 94.6951218, -0.03122
-0.9023438, 0.581543, -0.6010742, 34.6341476, 133.0487823, 94.6341476, -0.0305486
-0.8754883, 0.5610352, -0.6098633, 35.0609779, 133.9024353, 94.6341476, -0.027863
-0.8686523, 0.5615234, -0.6157227, 35.7926826, 135.9756165, 95.4268341, -0.0305486
-0.8569336, 0.5883789, -0.6313477, 36.0975609, 137.2561035, 95.7317123, -0.0325628
-0.8544922, 0.6088867, -0.6445312, 37.0121956, 140.1219482, 96.7682953, -0.0339055
-0.8408203, 0.644043, -0.6845703, 37.1951218, 141.0975647, 97.1341476, -0.0372625
-0.8349609, 0.6479492, -0.6958008, 36.5243912, 142.4390259, 97.7439041, -0.0339055
-0.8178711, 0.644043, -0.7050781, 36.2195129, 142.5, 97.9878082, -0.0352483
-0.8066406, 0.6425781, -0.7246094, 36.8902435, 142.6829376, 97.8658524, -0.0396124
-0.8046875, 0.6523438, -0.7490234, 37.5, 143.2317047, 97.68293, -0.0359197
-0.8134766, 0.6694336, -0.7753906, 38.5365868, 144.3902435, 97.68293, -0.0345769
-0.8149414, 0.6796875, -0.7734375, 38.9024391, 146.4024353, 97.8658524, -0.0433051
-0.8208008, 0.6821289, -0.7558594, 38.5975609, 146.7682953, 97.68293, -0.0466621
-0.8149414, 0.6831055, -0.7495117, 37.8658562, 146.4024353, 97.0121994, -0.0379339
-0.7988281, 0.6625977, -0.7524414, 37.0731697, 146.1585388, 97.1341476, -0.035584
-0.7880859, 0.6479492, -0.7558594, 35.9756088, 146.2804871, 97.1951218, -0.0392767
-0.7709961, 0.6308594, -0.7670898, 35.7317085, 147.1951294, 97.3170776, -0.0426337
-0.7685547, 0.628418, -0.7734375, 36.6463432, 148.4756165, 97.8048782, -0.0406195
-0.7631836, 0.6381836, -0.7661133, 37.5, 149.3292694, 97.6219559, -0.0506905
-0.7670898, 0.6650391, -0.7280273, 38.1707344, 150.5487823, 97.0731735, -0.0553902
-0.769043, 0.6791992, -0.7055664, 38.4146347, 151.2195129, 96.7682953, -0.0540475
-0.7646484, 0.7011719, -0.6953125, 38.0487823, 152.0731812, 95.9146347, -0.0500191
-0.7543945, 0.7050781, -0.7094727, 37.5, 151.8292694, 95.9756088, -0.0406195
-0.7177734, 0.6948242, -0.7475586, 37.0121956, 152.0121918, 95.9756088, -0.0426337
-0.7036133, 0.6860352, -0.7617188, 38.1097565, 153.1097565, 96.2804871, -0.0466621
-0.6748047, 0.6523438, -0.7758789, 38.5365868, 154.4512177, 96.0365906, -0.0426337
-0.6669922, 0.640625, -0.7768555, 39.9390259, 156.8902435, 94.6951218, -0.0406195
-0.6655273, 0.6142578, -0.7568359, 40.4268303, 157.6219482, 94.2073212, -0.0453193
-0.6694336, 0.6166992, -0.7348633, 40.7926826, 158.9634247, 93.1097565, -0.049012
-0.6821289, 0.6225586, -0.703125, 41.1585388, 159.2073212, 92.7439041, -0.0486763
-0.6538086, 0.6303711, -0.7314453, 42.0121956, 159.4512177, 92.9268341, -0.0503548
-0.6357422, 0.6313477, -0.7578125, 42.4390259, 159.4512177, 93.2926865, -0.0513619
-0.5986328, 0.6508789, -0.7983398, 41.2195129, 160.4268341, 93.7804871, -0.0476692
-0.5874023, 0.6704102, -0.8144531, 39.2682953, 162.8048859, 93.5975647, -0.0473335
-0.5791016, 0.7172852, -0.847168, 38.1097565, 163.8414612, 93.7195129, -0.0412909
-0.5810547, 0.7421875, -0.8623047, 34.5731697, 165.1219482, 93.2926865, -0.0419623
-0.5869141, 0.7705078, -0.8798828, 32.5, 165.4878082, 92.8658524, -0.0419623
-0.5878906, 0.7709961, -0.8964844, 27.0731716, 165.4268341, 92.0121994, -0.0386053
-0.5678711, 0.6953125, -0.8525391, 25.9756107, 164.2682953, 91.8902435, -0.0439765
-0.5424805, 0.6484375, -0.8149414, 27.6219521, 162.7439117, 90.2439041, -0.0392767
-0.5405273, 0.6064453, -0.8212891, 28.3536587, 163.9024353, 88.9024429, -0.0419623
-0.5869141, 0.6196289, -0.9072266, 28.841465, 165.4268341, 87.9268341, -0.0386053
-0.6030273, 0.6347656, -0.9360352, 29.3902454, 165.3048859, 88.7195129, -0.0436408
-0.612793, 0.668457, -0.9208984, 31.0365868, 165.6097565, 89.146347, -0.0406195
-0.6113281, 0.6850586, -0.8999023, 30.9756107, 164.7561035, 89.0853653, -0.0379339
-0.5869141, 0.6811523, -0.8408203, 30.4268303, 163.2317047, 88.6585388, -0.0359197
-0.5664062, 0.675293, -0.8193359, 29.4512196, 161.0975647, 87.68293, -0.0439765
-0.5209961, 0.6601562, -0.7729492, 28.841465, 161.2804871, 87.0731735, -0.0379339
-0.5063477, 0.6630859, -0.7578125, 27.4390259, 163.4146423, 85.9146347, -0.0339055
-0.4790039, 0.6870117, -0.7651367, 26.5853672, 164.4512177, 85.7926865, -0.0359197
-0.4702148, 0.6958008, -0.7783203, 24.0243912, 164.7561035, 85.4878082, -0.0409552
-0.4238281, 0.671875, -0.7612305, 24.0853672, 164.2073212, 85.4268341, -0.0399481
-0.4101562, 0.6611328, -0.7626953, 25.1219521, 166.0365906, 84.2073212, -0.0339055
-0.4257812, 0.6572266, -0.7797852, 24.9390259, 168.1097565, 82.7439041, -0.0399481
-0.4545898, 0.640625, -0.8154297, 25.060976, 169.3292694, 82.3170776, -0.0399481
-0.4594727, 0.628418, -0.8198242, 26.6463413, 169.0853729, 81.8902435, -0.0382696
-0.4609375, 0.6162109, -0.8085938, 26.8902454, 169.3902435, 81.4634171, -0.0406195
-0.4609375, 0.612793, -0.8120117, 26.0975609, 168.7195129, 81.0365906, -0.0379339
-0.453125, 0.6235352, -0.8857422, 25.7926826, 167.5609741, 81.3414688, -0.0379339
-0.4375, 0.6313477, -0.9404297, 24.8170738, 165.5487823, 82.2560959, -0.0386053
-0.4130859, 0.6435547, -0.9980469, 24.0243912, 166.0975647, 82.68293, -0.0459907
-0.4057617, 0.6479492, -0.9790039, 21.9512196, 167.5, 82.2560959, -0.0419623
-0.4111328, 0.6459961, -0.890625, 21.4634151, 167.3780518, 81.9512177, -0.0379339
-0.40625, 0.6469727, -0.800293, 20.5487804, 165.36586, 79.9390259, -0.0406195
-0.4023438, 0.6376953, -0.7617188, 19.6951218, 164.5121918, 78.9024429, -0.0473335
-0.3608398, 0.5844727, -0.7041016, 21.5853672, 162.0121918, 77.7439041, -0.0453193
-0.3500977, 0.5649414, -0.7163086, 24.5121956, 163.2317047, 76.4634171, -0.0459907
-0.3481445, 0.5620117, -0.8066406, 25.2439022, 164.3902435, 76.4024429, -0.0466621
-0.3540039, 0.5683594, -0.8457031, 25.9146347, 165.6707306, 77.2560959, -0.0486763
-0.3540039, 0.59375, -0.855957, 26.0975609, 166.1585388, 77.5609741, -0.0466621
-0.3598633, 0.6132812, -0.8457031, 25.9756107, 166.2804871, 76.4634171, -0.0406195
-0.3637695, 0.6479492, -0.8261719, 25.1219521, 165.4268341, 75.9146347, -0.0500191
-0.3647461, 0.6557617, -0.8251953, 22.7439022, 163.5365906, 75.3048782, -0.0426337
-0.3496094, 0.6430664, -0.8125, 21.5243912, 162.9878082, 75.0609741, -0.0446479
-0.3276367, 0.6289062, -0.800293, 19.939024, 162.4390259, 74.0243912, -0.0459907
-0.3203125, 0.6210938, -0.7983398, 19.1463413, 162.5609741, 73.7195129, -0.0527047
-0.3032227, 0.6176758, -0.7753906, 17.8048782, 162.5, 72.68293, -0.0540475
-0.2949219, 0.6049805, -0.7617188, 17.5, 162.1341553, 70.9756088, -0.0443122
-0.2788086, 0.5888672, -0.7509766, 17.6829281, 161.9512177, 70.6097565, -0.0476692
-0.2661133, 0.581543, -0.7563477, 18.7195129, 161.7073212, 68.9024429, -0.0453193
-0.2495117, 0.5761719, -0.7753906, 18.6585369, 162.0121918, 68.2926865, -0.0433051
-0.2431641, 0.5742188, -0.7866211, 18.780489, 162.1951294, 68.0487823, -0.0406195
-0.2436523, 0.5703125, -0.8144531, 18.5975609, 162.1951294, 67.5609741, -0.0406195
-0.2421875, 0.5688477, -0.8256836, 17.3170738, 161.7682953, 67.68293, -0.0419623
-0.2397461, 0.5556641, -0.824707, 16.8292694, 161.8902435, 67.7439041, -0.0412909
-0.2416992, 0.5458984, -0.7827148, 15.6707325, 161.5243988, 67.1951218, -0.0399481
-0.2446289, 0.5444336, -0.7651367, 15.6097565, 161.2804871, 66.8902435, -0.0406195
-0.2314453, 0.5283203, -0.7773438, 17.8658543, 159.3902435, 65.9756088, -0.0379339
-0.2124023, 0.5131836, -0.8076172, 20.9756107, 157.4390259, 65.8536606, -0.035584
-0.190918, 0.4931641, -0.8754883, 21.1585369, 157.86586, 66.0975647, -0.0439765
-0.1938477, 0.4868164, -0.8925781, 20.5487804, 158.0487823, 66.4024429, -0.0439765
-0.1870117, 0.4697266, -0.8613281, 21.5853672, 157.4390259, 66.2195129, -0.0446479
-0.1967773, 0.4882812, -0.8520508, 25, 156.5853729, 65.3658524, -0.0453193
-0.2441406, 0.5668945, -0.9160156, 25.6097565, 156.0365906, 64.3902435, -0.0419623
-0.2612305, 0.6020508, -0.956543, 25.3048782, 154.0243988, 64.8170776, -0.0466621
-0.2729492, 0.6547852, -0.9643555, 24.3902435, 153.1707306, 64.7560959, -0.0480049
-0.269043, 0.6743164, -0.8989258, 22.8048782, 152.3170776, 63.5975609, -0.0480049
-0.262207, 0.6660156, -0.8676758, 21.5243912, 151.3414612, 62.5, -0.0466621
-0.2260742, 0.6293945, -0.8242188, 18.7195129, 147.6829376, 60.18293, -0.0453193
-0.2036133, 0.6040039, -0.8134766, 16.7682934, 145.6097565, 58.1707344, -0.0459907
-0.1782227, 0.5478516, -0.7836914, 16.1585369, 145.6097565, 57.5609779, -0.0480049
-0.1689453, 0.5170898, -0.7636719, 15.6707325, 146.2195129, 56.4634171, -0.0392767
-0.1645508, 0.4697266, -0.7578125, 15.9756098, 145.5487823, 55.9146347, -0.0466621
-0.1674805, 0.4643555, -0.769043, 16.2195129, 145.2439117, 55.3048782, -0.0459907
-0.1704102, 0.4921875, -0.7568359, 16.0365849, 145, 54.9390259, -0.0473335
-0.1689453, 0.5205078, -0.7358398, 14.5121956, 145.3048859, 54.1463432, -0.0500191
-0.1616211, 0.5678711, -0.6655273, 13.6585369, 145.4878082, 54.0243912, -0.0473335
-0.1318359, 0.5898438, -0.625, 12.0731707, 144.4512177, 52.7439041, -0.0459907
-0.1220703, 0.5869141, -0.6430664, 10.8536587, 144.0243988, 52.1341476, -0.0533761
-0.0883789, 0.543457, -0.7543945, 8.9024391, 142.7439117, 51.341465, -0.0500191
-0.0673828, 0.5151367, -0.8041992, 8.0487804, 142.5609741, 51.4024391, -0.0513619
