Application:, Trigno Discover (1.6.5)
Date/Time:, 29/01/2025 16:42:24
Collection Length (seconds):, 36.261
wrist (81457), , , , , , bicep (81139)
sensor mode: 609, , , , , , sensor mode: 40
ACC X (G), ACC Y (G), ACC Z (G), GYRO X (deg/s), GYRO Y (deg/s), GYRO Z (deg/s), EMG 1 (mV)
370.3704 Hz, 370.3704 Hz, 370.3704 Hz, 370.3704 Hz, 370.3704 Hz, 370.3704 Hz, 2148.1481 Hz
1.0258789, -0.0991211, -0.019043, -32.5609779, -16.1585369, 3.3536587, -0.0466621
1.0263672, -0.0922852, -0.0253906, -33.5975609, -16.5243912, 3.5365853, -0.0426337
1.0297852, -0.0917969, -0.0302734, -34.0853653, -17.0121956, 3.8414636, -0.0433051
1.0249023, -0.0830078, -0.0302734, -34.2682953, -17.5, 3.8414636, -0.0433051
1.0258789, -0.0805664, -0.0224609, -34.6341476, -19.0243912, 3.9634147, -0.0446479
1.0327148, -0.0800781, -0.0185547, -35.3048782, -20.1829281, 4.2073174, -0.0486763
1.0239258, -0.0776367, -0.0141602, -35.9146347, -20.5487804, 4.2682929, -0.0453193
1.0175781, -0.081543, -0.0097656, -37.8048782, -19.7560978, 4.5731707, -0.0449836
1.0053711, -0.0996094, 0.0029297, -39.2073174, -19.3902435, 4.8170733, -0.0453193
0.9912109, -0.1049805, 0.0117188, -40.4878044, -18.9024391, 5.2439027, -0.0446479
0.9716797, -0.121582, 0.0302734, -41.2804871, -19.0243912, 5.2439027, -0.0459907
0.9589844, -0.1274414, 0.0375977, -41.7073174, -19.3292694, 5.4268293, -0.0379339
0.9331055, -0.1411133, 0.050293, -41.7073174, -19.2682934, 5.5487804, -0.0419623
0.9174805, -0.144043, 0.0493164, -42.7439041, -19.3292694, 5.7317076, -0.0392767
0.8842773, -0.152832, 0.0449219, -43.4756126, -19.2682934, 5.9756098, -0.0392767
0.8754883, -0.1621094, 0.0400391, -43.9634171, -18.9634151, 6.7682929, -0.0379339
0.8476562, -0.1806641, 0.0258789, -43.841465, -18.9634151, 7.8658538, -0.0406195
0.8344727, -0.1958008, 0.012207, -43.1097565, -19.4512196, 8.4146347, -0.0446479
0.8320312, -0.2060547, 0.0009766, -42.0731735, -20.060976, 8.719512, -0.0480049
0.8369141, -0.2177734, -0.0219727, -41.1585388, -20.4268303, 8.780488, -0.0513619
0.8427734, -0.2172852, -0.0395508, -39.3902435, -20.5487804, 8.4146347, -0.0493477
0.8623047, -0.2158203, -0.0668945, -38.3536606, -20.6097565, 8.2317076, -0.0449836
0.8774414, -0.2128906, -0.0766602, -35.9756088, -21.8902435, 7.0731707, -0.0436408
0.9077148, -0.2104492, -0.0849609, -34.8170738, -23.0487804, 6.5853658, -0.0459907
0.9296875, -0.2075195, -0.0844727, -32.8658562, -25.4268303, 6.4024391, -0.049012
0.9868164, -0.199707, -0.0839844, -31.341465, -25.9146347, 6.6463418, -0.0476692
1.0131836, -0.1914062, -0.0820312, -30.4268303, -25.5487804, 6.9512196, -0.0439765
1.0629883, -0.1708984, -0.0776367, -28.7195129, -23.7195129, 6.9512196, -0.0372625
1.0991211, -0.1494141, -0.081543, -28.5365868, -22.7439022, 7.3170733, -0.0386053
1.1162109, -0.1469727, -0.0786133, -27.560976, -21.0975609, 7.0731707, -0.042298
1.1230469, -0.144043, -0.0771484, -27.560976, -19.8780499, 7.1341467, -0.0439765
1.1245117, -0.1435547, -0.0737305, -27.7439022, -17.8048782, 7.3170733, -0.0473335
1.1142578, -0.1474609, -0.0722656, -27.8658543, -16.5243912, 7.3170733, -0.0439765
1.1025391, -0.1508789, -0.0678711, -28.1097565, -13.1097565, 7.5, -0.0480049
1.0688477, -0.1479492, -0.0688477, -27.9878063, -11.280488, 7.8658538, -0.0513619
1.0488281, -0.1484375, -0.0722656, -28.2926826, -8.841464, 8.4146347, -0.0453193
1.0126953, -0.1523438, -0.0795898, -27.8658543, -8.2926826, 8.1097565, -0.0459907
0.9975586, -0.1577148, -0.0844727, -27.9268303, -8.3536587, 8.3536587, -0.0476692
0.9814453, -0.1513672, -0.0898438, -28.5975609, -9.3292685, 8.4146347, -0.0513619
0.9716797, -0.159668, -0.0927734, -28.5975609, -10.3048782, 8.4146347, -0.0453193
0.9785156, -0.1586914, -0.0908203, -29.7560978, -11.8292685, 8.2317076, -0.0473335
0.9873047, -0.1616211, -0.0820312, -30.3048782, -12.3170738, 8.1097565, -0.0453193
0.9970703, -0.1616211, -0.0751953, -31.0365868, -13.5975609, 8.1707315, -0.0446479
1.0180664, -0.1669922, -0.0551758, -30.8536587, -14.4512196, 8.3536587, -0.0426337
1.0288086, -0.1660156, -0.0454102, -29.9390259, -15.1219511, 8.4756098, -0.042298
1.0478516, -0.1669922, -0.019043, -29.2073174, -15.4878054, 8.6585369, -0.0480049
1.0561523, -0.1625977, -0.0087891, -26.6463413, -15.4268293, 9.2682924, -0.0449836
1.0610352, -0.159668, -0.0068359, -24.5121956, -13.5365858, 9.5731707, -0.0446479
1.0585938, -0.1508789, -0.0092773, -23.780489, -12.1341467, 9.4512196, -0.0439765
1.043457, -0.1508789, -0.0200195, -22.8048782, -9.4512196, 9.0243902, -0.0493477
1.0151367, -0.1474609, -0.0356445, -22.2560978, -8.780488, 9.0853662, -0.0473335
0.9956055, -0.1538086, -0.0385742, -21.280489, -9.5121956, 8.780488, -0.0439765
0.9672852, -0.1567383, -0.0439453, -21.2195129, -10.7926836, 8.9024391, -0.0486763
0.9545898, -0.1630859, -0.0395508, -21.6463413, -13.9634151, 8.719512, -0.0459907
0.9487305, -0.1782227, -0.0229492, -21.5853672, -15.4268293, 9.0243902, -0.0433051
0.9443359, -0.1806641, -0.0214844, -21.3414631, -16.2195129, 9.2073174, -0.0463264
0.9443359, -0.1826172, -0.0200195, -20.9146347, -15.6707325, 9.0853662, -0.0496834
0.9423828, -0.1801758, -0.0292969, -19.1463413, -14.6341467, 8.841464, -0.0433051
0.9433594, -0.1704102, -0.0522461, -17.439024, -14.9390249, 8.841464, -0.0433051
0.9477539, -0.1704102, -0.0639648, -16.7073174, -15.6707325, 9.0243902, -0.0392767
0.956543, -0.1660156, -0.0839844, -17.0731716, -17.6219521, 9.7560978, -0.0406195
0.9746094, -0.171875, -0.097168, -17.2560978, -18.2317085, 9.8780489, -0.0382696
0.9907227, -0.1762695, -0.09375, -18.3536587, -18.780489, 10.1829271, -0.0379339
1.0175781, -0.1826172, -0.0854492, -18.5365849, -18.8414631, 10.4878054, -0.0386053
1.019043, -0.1889648, -0.0844727, -17.9878044, -19.2073174, 10.060976, -0.0406195
1.0366211, -0.2021484, -0.0776367, -17.5, -19.3902435, 9.6341467, -0.0399481
1.0424805, -0.2094727, -0.0737305, -15.6097565, -19.2073174, 8.5975609, -0.0412909
1.0546875, -0.2211914, -0.0703125, -15.1219511, -18.9634151, 8.5975609, -0.0379339
1.0551758, -0.2280273, -0.0683594, -13.1707315, -18.2317085, 7.9878049, -0.0433051
1.0463867, -0.230957, -0.0649414, -11.0365858, -16.7682934, 8.2317076, -0.0406195
1.0410156, -0.2275391, -0.0668945, -9.7560978, -16.3414631, 8.2926826, -0.0399481
1.0249023, -0.2250977, -0.0722656, -7.8658538, -15.6707325, 9.3292685, -0.0433051
1.0107422, -0.2158203, -0.0712891, -7.4390244, -15.7926836, 9.2682924, -0.0386053
1.0029297, -0.2172852, -0.0732422, -7.2560978, -16.1585369, 9.5731707, -0.0406195
0.9863281, -0.2128906, -0.0610352, -7.1341467, -16.3414631, 9.6341467, -0.0426337
0.9794922, -0.2094727, -0.0566406, -7.5609756, -16.8902435, 8.841464, -0.0406195
0.9667969, -0.1992188, -0.0400391, -7.5, -17.1341476, 8.5975609, -0.0379339
0.9599609, -0.1958008, -0.0351562, -7.3170733, -17.3780499, 8.1707315, -0.0406195
0.9492188, -0.199707, -0.0351562, -7.1951222, -17.3780499, 7.9878049, -0.0433051
0.9423828, -0.203125, -0.0351562, -6.2195125, -17.6219521, 7.3780489, -0.0386053
0.9272461, -0.2070312, -0.0341797, -6.5243902, -18.7195129, 6.9512196, -0.0382696
0.9243164, -0.2128906, -0.0327148, -6.6463418, -19.5731716, 7.1951222, -0.0426337
0.9179688, -0.2329102, -0.0268555, -7.6219516, -20.8536587, 6.7682929, -0.0412909
0.9213867, -0.2460938, -0.0292969, -8.2317076, -21.1585369, 6.6463418, -0.0453193
0.9223633, -0.2470703, -0.0371094, -8.5365858, -20.1829281, 6.3414636, -0.0406195
0.9199219, -0.2431641, -0.0566406, -8.3536587, -19.2073174, 5.9146342, -0.0419623
0.9179688, -0.2358398, -0.0742188, -6.6463418, -17.2560978, 5.670732, -0.0433051
0.9223633, -0.199707, -0.1088867, -5.7317076, -16.8292694, 5.8536587, -0.0399481
0.9233398, -0.1816406, -0.1240234, -3.0487804, -17.6829281, 6.1585369, -0.0379339
0.9306641, -0.1420898, -0.144043, -2.804878, -18.6585369, 6.6463418, -0.0339055
0.9394531, -0.1303711, -0.1523438, -3.3536587, -20.6097565, 7.6829271, -0.0352483
0.9609375, -0.1020508, -0.1538086, -5.7926831, -20.1829281, 8.4146347, -0.0359197
0.9711914, -0.0922852, -0.1484375, -6.9512196, -19.4512196, 8.5975609, -0.0379339
0.9882812, -0.0878906, -0.1430664, -8.841464, -17.6829281, 8.1097565, -0.0426337
0.9916992, -0.0908203, -0.1416016, -9.5731707, -16.8902435, 7.5609756, -0.0386053
0.9912109, -0.0961914, -0.1430664, -11.0365858, -15.8536587, 6.280488, -0.0379339
0.9853516, -0.1166992, -0.1494141, -11.7073174, -15.6707325, 5.4268293, -0.0372625
0.9824219, -0.1323242, -0.1503906, -13.1097565, -15.1829271, 4.2682929, -0.0419623
0.9741211, -0.1591797, -0.1518555, -13.5365858, -14.6951227, 3.4756098, -0.0406195
0.9741211, -0.1704102, -0.1523438, -13.9024391, -13.841464, 3.2926829, -0.0406195
0.9672852, -0.1928711, -0.1474609, -13.7195129, -13.7195129, 3.1707318, -0.0396124
0.9638672, -0.2021484, -0.1484375, -13.841464, -13.2926836, 3.4146342, -0.0446479
0.9658203, -0.2070312, -0.140625, -13.7195129, -12.8658543, 4.0853658, -0.0419623
0.9682617, -0.2026367, -0.1357422, -13.9024391, -12.3780489, 4.5121951, -0.0439765
0.9746094, -0.1879883, -0.1289062, -12.9878054, -11.1585369, 5.3658538, -0.0433051
0.984375, -0.168457, -0.125, -13.1097565, -10.7317076, 5.7317076, -0.0406195
0.9916992, -0.1533203, -0.125, -12.3780489, -10.1219511, 5.670732, -0.0436408
0.9995117, -0.1274414, -0.1220703, -12.3170738, -9.8780489, 5.670732, -0.0466621
1.0043945, -0.121582, -0.1147461, -13.4756098, -10.2439022, 5.3658538, -0.0473335
0.9995117, -0.1157227, -0.1010742, -13.841464, -10.6097565, 5.4878049, -0.0426337
0.9975586, -0.1210938, -0.0883789, -15.6097565, -10.7926836, 5.2439027, -0.0419623
0.9936523, -0.1333008, -0.065918, -16.2195129, -11.0975609, 4.8170733, -0.0426337
0.9853516, -0.1376953, -0.059082, -17.5, -10.6097565, 4.6951222, -0.0463264
0.9697266, -0.1616211, -0.0512695, -18.4146347, -9.5121956, 4.1463413, -0.0463264
0.949707, -0.1889648, -0.0532227, -18.7195129, -9.3292685, 3.6585367, -0.0412909
0.9389648, -0.1992188, -0.0527344, -18.9634151, -8.9024391, 3.1707318, -0.0419623
0.9174805, -0.2128906, -0.0561523, -18.7195129, -8.9634151, 2.804878, -0.0416266
0.9111328, -0.2216797, -0.0532227, -18.5975609, -10.3658543, 2.2560976, -0.0449836
0.9057617, -0.2280273, -0.0566406, -18.5365849, -11.4024391, 2.3780489, -0.0419623
0.9072266, -0.2294922, -0.0566406, -17.6829281, -12.8658543, 2.4390244, -0.0406195
0.9189453, -0.2236328, -0.0620117, -17.6219521, -13.2926836, 2.195122, -0.0406195
0.9277344, -0.2138672, -0.0581055, -18.4146347, -14.0853662, 2.0731707, -0.0433051
0.949707, -0.1928711, -0.0463867, -18.8414631, -14.6951227, 2.0731707, -0.0453193
0.9619141, -0.1850586, -0.0429688, -19.5731716, -14.9390249, 1.9512196, -0.0486763
0.9838867, -0.1777344, -0.0546875, -17.0731716, -13.7195129, 2.0121951, -0.0500191
0.9936523, -0.1674805, -0.0854492, -15.7926836, -13.1707315, 2.2560976, -0.0446479
0.9970703, -0.1635742, -0.1000977, -14.0853662, -12.0731707, 1.8902439, -0.0493477
0.9990234, -0.1601562, -0.1113281, -14.6951227, -12.3170738, 2.0121951, -0.0527047
1.0039062, -0.1542969, -0.1137695, -16.3414631, -13.3536587, 1.5243902, -0.0500191
1.0029297, -0.1450195, -0.1054688, -17.0121956, -13.2317076, 1.1585366, -0.0473335
1.0039062, -0.1459961, -0.1035156, -16.4634151, -12.2560978, 0.3658537, -0.0473335
0.9990234, -0.1420898, -0.1083984, -15.9146347, -11.7682934, 0.0609756, -0.0453193
1.0009766, -0.1401367, -0.1162109, -14.5731707, -11.0365858, -0.3048781, -0.0513619
1.0039062, -0.1342773, -0.1396484, -14.5731707, -11.4024391, -0.4268293, -0.0486763
1.0058594, -0.1293945, -0.144043, -15.6707325, -11.7682934, 0, -0.0426337
1.0102539, -0.1303711, -0.1508789, -17.8048782, -12.0731707, 0, -0.0406195
1.0224609, -0.128418, -0.1391602, -18.3536587, -12.0731707, 0.6097561, -0.0473335
1.0292969, -0.1293945, -0.1308594, -18.9024391, -11.8902445, 0.9756098, -0.0446479
1.0351562, -0.128418, -0.1181641, -18.9024391, -11.7682934, 1.5853659, -0.0480049
1.0371094, -0.1313477, -0.1201172, -19.5731716, -10.7926836, 2.0731707, -0.0480049
1.0307617, -0.1328125, -0.1064453, -20, -10.3048782, 2.4390244, -0.0480049
1.0258789, -0.1308594, -0.0981445, -20.9756107, -9.6951218, 2.9268293, -0.0473335
1.0039062, -0.1386719, -0.0786133, -21.4634151, -9.2682924, 2.6829269, -0.0473335
0.9990234, -0.1376953, -0.0703125, -21.5853672, -8.9634151, 2.7439024, -0.0459907
0.9775391, -0.1445312, -0.0664062, -21.8902435, -8.719512, 2.8658538, -0.0433051
0.9702148, -0.1420898, -0.0654297, -22.0731716, -7.9878049, 2.804878, -0.035584
0.9506836, -0.1523438, -0.0664062, -22.5, -7.6219516, 2.5, -0.0365911
0.9428711, -0.1479492, -0.0664062, -22.3780499, -7.9268293, 2.5609756, -0.0399481
0.9394531, -0.1469727, -0.0644531, -21.8292694, -8.780488, 2.804878, -0.0372625
0.9418945, -0.140625, -0.0683594, -21.8292694, -9.7560978, 2.804878, -0.035584
0.9501953, -0.1386719, -0.0688477, -21.4634151, -10.8536587, 3.4756098, -0.0379339
0.9692383, -0.1396484, -0.0771484, -21.6463413, -11.7682934, 3.4146342, -0.0392767
0.9814453, -0.1459961, -0.081543, -22.439024, -12.1341467, 3.2317073, -0.0386053
1.0043945, -0.152832, -0.081543, -22.9268303, -12.3170738, 3.2926829, -0.0406195
1.0209961, -0.1557617, -0.0786133, -23.5365868, -13.2926836, 2.9878049, -0.0406195
1.0371094, -0.1679688, -0.0742188, -23.5365868, -13.1707315, 2.9878049, -0.0406195
1.0444336, -0.168457, -0.0727539, -22.1951218, -12.9878054, 2.6829269, -0.0406195
1.0546875, -0.1669922, -0.0776367, -20, -12.0731707, 2.6219513, -0.0412909
1.050293, -0.1660156, -0.0761719, -19.1463413, -11.7682934, 2.4390244, -0.0433051
1.0498047, -0.1611328, -0.0810547, -17.439024, -11.1585369, 2.7439024, -0.0433051
1.0380859, -0.1582031, -0.0776367, -17.1951218, -11.219512, 2.8658538, -0.0412909
1.0317383, -0.1606445, -0.0703125, -16.3414631, -11.4024391, 3.1707318, -0.0419623
1.0166016, -0.1508789, -0.0556641, -16.2195129, -11.8902445, 3.5365853, -0.0426337
1.012207, -0.1484375, -0.0488281, -16.280489, -12.0121956, 3.9634147, -0.0392767
0.9975586, -0.1333008, -0.0527344, -16.4634151, -11.4634151, 4.0243902, -0.0412909
0.9848633, -0.1240234, -0.0615234, -17.1951218, -9.3902445, 3.6585367, -0.0459907
0.9658203, -0.1083984, -0.0737305, -17.7439022, -8.1707315, 3.5365853, -0.0473335
0.9521484, -0.0957031, -0.0810547, -18.5975609, -7.7439027, 3.1097562, -0.0463264
0.9370117, -0.0795898, -0.0927734, -19.3292694, -9.6951218, 2.804878, -0.0466621
0.9335938, -0.0766602, -0.1044922, -19.939024, -10.7926836, 2.7439024, -0.0473335
0.9355469, -0.0825195, -0.1132812, -22.5, -12.2560978, 2.6829269, -0.0500191
0.9438477, -0.0942383, -0.1240234, -23.7195129, -12.560976, 3.0487804, -0.0527047
0.9482422, -0.1025391, -0.1269531, -26.1585369, -12.0121956, 3.4146342, -0.0486763
0.9672852, -0.1313477, -0.1240234, -26.4024391, -12.1341467, 3.4146342, -0.0486763
0.9775391, -0.1425781, -0.1230469, -26.9512196, -13.0487804, 3.5975611, -0.0500191
1.0014648, -0.1625977, -0.1181641, -26.7073174, -13.4146347, 3.2926829, -0.0446479
1.0112305, -0.1699219, -0.1157227, -26.2195129, -13.780488, 3.1707318, -0.0473335
1.0263672, -0.1816406, -0.1088867, -26.0365868, -12.9268293, 3.1097562, -0.0459907
1.0283203, -0.1821289, -0.1064453, -25.1829281, -10.9756098, 3.1707318, -0.0433051
1.03125, -0.1782227, -0.105957, -23.9024391, -8.9634151, 3.0487804, -0.0433051
1.027832, -0.1708984, -0.1098633, -23.1707325, -8.2926826, 2.9878049, -0.0406195
1.0239258, -0.1630859, -0.1132812, -21.7073174, -7.8658538, 2.9268293, -0.0419623
1.0117188, -0.1513672, -0.1108398, -21.2195129, -7.8658538, 3.0487804, -0.0433051
1.0092773, -0.1459961, -0.1083984, -20.9146347, -8.1707315, 2.5, -0.0463264
1.0078125, -0.1391602, -0.1044922, -20.7317085, -8.1097565, 2.6219513, -0.0476692
1.0053711, -0.1313477, -0.1044922, -21.0975609, -7.8658538, 3.1707318, -0.0449836
0.9995117, -0.1279297, -0.0957031, -21.7073174, -7.9268293, 3.2926829, -0.0459907
0.9941406, -0.1303711, -0.0947266, -21.5853672, -8.0487804, 3.0487804, -0.0446479
0.9956055, -0.1376953, -0.0854492, -22.2560978, -8.5975609, 3.1097562, -0.0406195
0.9985352, -0.1435547, -0.0786133, -22.2560978, -8.841464, 2.8658538, -0.0406195
0.9936523, -0.1484375, -0.0805664, -22.1341476, -9.0243902, 2.8658538, -0.0372625
0.9916992, -0.1601562, -0.0688477, -22.0121956, -9.1463413, 2.804878, -0.0359197
0.9882812, -0.1547852, -0.059082, -21.9512196, -8.9634151, 2.8658538, -0.0365911
0.9907227, -0.1547852, -0.0522461, -21.6463413, -8.719512, 3.0487804, -0.0365911
0.9858398, -0.1503906, -0.0517578, -20.5487804, -7.8658538, 3.3536587, -0.0339055
0.9804688, -0.1430664, -0.0615234, -20.1219521, -7.2560978, 3.6585367, -0.0352483
0.9746094, -0.1381836, -0.0654297, -19.2682934, -6.7073174, 3.4146342, -0.0339055
0.9658203, -0.1259766, -0.0742188, -19.5731716, -6.7073174, 3.5365853, -0.0372625
0.9633789, -0.1225586, -0.0737305, -20.1219521, -7.3170733, 3.7804878, -0.0392767
0.9599609, -0.1269531, -0.0820312, -20.3658543, -8.0487804, 3.5365853, -0.0359197
0.9594727, -0.1323242, -0.081543, -20.7317085, -8.6585369, 3.7195122, -0.0325628
0.9589844, -0.144043, -0.081543, -20.9756107, -9.5121956, 3.2317073, -0.0365911
0.9638672, -0.1611328, -0.0776367, -21.0975609, -9.8170738, 3.4146342, -0.0406195
0.965332, -0.1694336, -0.0756836, -21.0365868, -10.4268293, 2.7439024, -0.0396124
0.9829102, -0.1777344, -0.0703125, -21.0365868, -10.3658543, 2.6829269, -0.0439765
0.9902344, -0.1787109, -0.0703125, -19.7560978, -10.1219511, 2.4390244, -0.0439765
0.9941406, -0.1816406, -0.0698242, -18.8414631, -9.5731707, 2.0731707, -0.0365911
0.9956055, -0.1762695, -0.0742188, -16.7073174, -9.3292685, 2.195122, -0.0419623
0.9990234, -0.1645508, -0.0859375, -16.0365849, -9.4512196, 2.0121951, -0.0446479
0.9990234, -0.1630859, -0.0898438, -14.9390249, -9.0853662, 2.2560976, -0.0392767
1.0024414, -0.1494141, -0.1054688, -14.6951227, -9.0243902, 2.5609756, -0.0386053
1.003418, -0.1459961, -0.1079102, -15.4268293, -8.9634151, 2.7439024, -0.0386053
1.0073242, -0.1293945, -0.1176758, -16.9512196, -8.2317076, 3.4146342, -0.0379339
1.0029297, -0.1240234, -0.1142578, -17.9878044, -7.9268293, 3.2317073, -0.0392767
1.0004883, -0.1201172, -0.112793, -18.9024391, -7.5, 3.1707318, -0.0379339
0.9985352, -0.1166992, -0.1025391, -19.3292694, -7.5609756, 3.2926829, -0.0365911
0.9960938, -0.1147461, -0.1010742, -19.6341476, -7.8658538, 3.3536587, -0.0419623
0.9921875, -0.1201172, -0.1118164, -19.939024, -8.1097565, 3.1097562, -0.0446479
0.9926758, -0.1293945, -0.1118164, -20.5487804, -6.890244, 2.9268293, -0.0459907
0.9838867, -0.1386719, -0.1132812, -20.9146347, -6.4024391, 3.1707318, -0.0433051
0.9780273, -0.1464844, -0.1103516, -21.4634151, -6.0975609, 2.8658538, -0.0409552
0.9755859, -0.1518555, -0.1044922, -21.5243912, -7.0121951, 3.2926829, -0.0446479
0.9746094, -0.1518555, -0.1005859, -21.5243912, -7.3170733, 3.2317073, -0.0466621
0.9682617, -0.1533203, -0.0825195, -21.0975609, -8.1097565, 3.2317073, -0.0433051
0.9658203, -0.1538086, -0.0654297, -21.5243912, -8.0487804, 2.9878049, -0.0433051
0.9682617, -0.1523438, -0.0566406, -21.4634151, -7.8048782, 2.7439024, -0.0453193
0.9702148, -0.1450195, -0.0610352, -21.5243912, -7.2560978, 2.7439024, -0.0466621
0.9726562, -0.1416016, -0.0595703, -20.9146347, -5.3048782, 2.6219513, -0.0449836
0.9638672, -0.1347656, -0.0693359, -20.5487804, -4.390244, 2.5, -0.0473335
0.965332, -0.1264648, -0.0766602, -19.8170738, -4.6341462, 2.3780489, -0.0453193
0.9594727, -0.112793, -0.0795898, -19.4512196, -4.8780489, 2.5, -0.0426337
0.9648438, -0.1123047, -0.0825195, -19.5731716, -5.4878049, 3.3536587, -0.0453193
0.9770508, -0.1074219, -0.0932617, -19.5731716, -6.1585369, 3.4146342, -0.0459907
0.9858398, -0.1064453, -0.0878906, -19.6951218, -6.1585369, 3.2317073, -0.0473335
0.9970703, -0.109375, -0.0976562, -20.4878044, -5.3658538, 2.8658538, -0.0473335
1.0092773, -0.1142578, -0.0947266, -21.0365868, -5.4268293, 2.6219513, -0.0446479
1.0131836, -0.1147461, -0.0942383, -21.1585369, -4.6341462, 1.7073171, -0.0433051
1.0185547, -0.1225586, -0.0932617, -21.0365868, -4.2682929, 1.5853659, -0.0406195
1.0180664, -0.1293945, -0.0927734, -20.8536587, -3.1707318, 1.5243902, -0.0406195
1.0166016, -0.1254883, -0.0927734, -20.3048782, -2.8658538, 1.4634147, -0.0406195
1.019043, -0.1240234, -0.0952148, -20.7926826, -2.6219513, 1.8902439, -0.0392767
1.0112305, -0.1347656, -0.0942383, -21.280489, -2.7439024, 2.4390244, -0.0406195
1.0141602, -0.1367188, -0.0878906, -23.1097565, -2.0731707, 2.7439024, -0.0433051
1.0170898, -0.1376953, -0.0712891, -23.5365868, -0.6097561, 3.4146342, -0.0379339
1.012207, -0.1416016, -0.0639648, -22.8658543, 0.4268293, 3.2317073, -0.0352483
1.0092773, -0.1430664, -0.0449219, -20.4268303, 3.0487804, 2.5609756, -0.0386053
1.0058594, -0.1464844, -0.0429688, -19.5731716, 3.9634147, 2.0731707, -0.0406195
1.0019531, -0.1489258, -0.0473633, -17.6219521, 6.3414636, 0.5487805, -0.0352483
0.9868164, -0.1474609, -0.0634766, -17.560976, 7.5, -0.0609756, -0.0325628
0.9799805, -0.1523438, -0.0673828, -18.0487804, 8.2317076, -0.1219512, -0.0352483
0.9589844, -0.1479492, -0.0703125, -18.8414631, 8.1097565, -0.1829268, -0.0406195
0.9521484, -0.1499023, -0.0698242, -20.060976, 6.8292685, 0.3658537, -0.0446479
0.953125, -0.1513672, -0.0678711, -20.4268303, 6.0365853, 0.7317073, -0.0493477
0.9536133, -0.1513672, -0.065918, -20.6707325, 5.7926831, 0.1219512, -0.0503548
0.9545898, -0.1503906, -0.0664062, -20.1219521, 5.9146342, -0.4268293, -0.0520333
0.9541016, -0.1445312, -0.0639648, -19.3902435, 5.609756, -0.7317073, -0.0443122
0.9472656, -0.1411133, -0.0605469, -19.0853672, 4.1463413, -1.6463414, -0.0436408
0.953125, -0.1391602, -0.0585938, -19.2682934, 3.4756098, -1.9512196, -0.0459907
0.9604492, -0.1357422, -0.0576172, -20.3658543, 3.1097562, -2.3170731, -0.0486763
0.9589844, -0.1342773, -0.0522461, -20.5487804, 3.3536587, -2.5, -0.0500191
0.9609375, -0.1386719, -0.0498047, -20.6707325, 3.8414636, -2.8658538, -0.0513619
0.9545898, -0.144043, -0.0473633, -20.4268303, 4.1463413, -2.9878049, -0.0503548
0.9550781, -0.1430664, -0.0444336, -19.8170738, 4.0853658, -2.9878049, -0.0453193
0.9594727, -0.1469727, -0.0390625, -19.3292694, 4.1463413, -2.7439024, -0.0466621
0.9584961, -0.144043, -0.0429688, -18.780489, 4.5121951, -3.0487804, -0.0493477
0.9555664, -0.1298828, -0.0488281, -19.3292694, 5.7926831, -3.2926829, -0.0486763
0.956543, -0.1210938, -0.0522461, -19.2073174, 6.5243902, -3.2317073, -0.0480049
0.9575195, -0.109375, -0.0551758, -19.939024, 7.0121951, -3.4146342, -0.0446479
0.965332, -0.1044922, -0.0634766, -19.8780499, 6.7682929, -3.9024391, -0.0459907
0.9677734, -0.1015625, -0.0698242, -21.4024391, 5.7926831, -5, -0.0446479
0.9760742, -0.1069336, -0.0825195, -22.1341476, 5.9146342, -5.4268293, -0.049012
0.9799805, -0.1132812, -0.0825195, -23.780489, 5.9146342, -5.8536587, -0.0486763
0.9814453, -0.1279297, -0.0673828, -24.8780499, 5.9756098, -6.0365853, -0.0486763
0.9804688, -0.1367188, -0.0566406, -25.8536587, 4.6341462, -6.0365853, -0.0513619
0.9897461, -0.1455078, -0.0405273, -26.0975609, 4.2682929, -5.7317076, -0.0493477
0.9916992, -0.1459961, -0.0332031, -25.8536587, 4.5731707, -5.2439027, -0.0453193
0.9863281, -0.144043, -0.0268555, -25.9756107, 5.609756, -4.8780489, -0.0486763
0.9829102, -0.1313477, -0.0258789, -26.1585369, 6.7682929, -4.9390244, -0.0480049
0.9824219, -0.1269531, -0.0239258, -27.1951218, 8.5365858, -4.6951222, -0.0493477
0.965332, -0.1240234, -0.0297852, -27.7439022, 9.2073174, -4.6951222, -0.0486763
0.9584961, -0.1240234, -0.0302734, -28.6585369, 9.9390249, -4.9390244, -0.0453193
0.9428711, -0.1381836, -0.0356445, -28.9024391, 9.8780489, -5, -0.0446479
0.9370117, -0.1464844, -0.0366211, -29.1463413, 8.841464, -5.9756098, -0.0486763
0.9257812, -0.1572266, -0.0224609, -29.2682934, 7.8048782, -6.0365853, -0.0486763
0.9208984, -0.1650391, -0.0097656, -29.0853672, 5.4878049, -6.8292685, -0.0433051
0.9125977, -0.1772461, 0.0141602, -29.0243912, 4.6341462, -7.3780489, -0.0419623
0.9072266, -0.1865234, 0.0185547, -28.4756107, 2.9268293, -8.4146347, -0.0382696
0.9033203, -0.1958008, 0.0263672, -28.841465, 3.4756098, -9.2682924, -0.0433051
0.8920898, -0.2050781, 0.0209961, -28.841465, 4.2073174, -9.8780489, -0.0406195
0.8867188, -0.2099609, 0.012207, -27.8658543, 5.5487804, -10.5487804, -0.0459907
0.8740234, -0.2075195, 0.0029297, -27.0121956, 5.3658538, -10.5487804, -0.0446479
0.8686523, -0.2016602, 0.0009766, -26.0365868, 2.9878049, -11.219512, -0.0459907
0.862793, -0.1972656, 0.0019531, -25.8536587, 1.3414634, -11.341464, -0.0419623
0.8608398, -0.1938477, 0.0039062, -26.280489, -2.6829269, -11.8292685, -0.0473335
0.8691406, -0.1923828, 0.0229492, -26.6463413, -3.9634147, -11.9512196, -0.0446479
0.8745117, -0.1855469, 0.0351562, -27.560976, -5.9756098, -11.8292685, -0.042298
0.8994141, -0.1791992, 0.0571289, -27.2560978, -6.5853658, -11.7073174, -0.0449836
0.9086914, -0.1762695, 0.0634766, -27.7439022, -6.6463418, -12.0731707, -0.0439765
0.9291992, -0.1591797, 0.0595703, -28.5365868, -6.6463418, -12.0121956, -0.0419623
0.9423828, -0.1396484, 0.0512695, -29.2073174, -6.0365853, -11.8902445, -0.0459907
0.9443359, -0.1293945, 0.043457, -31.280489, -5.670732, -11.5853662, -0.0459907
0.9516602, -0.1235352, 0.0385742, -32.5609779, -5.9756098, -11.0365858, -0.0473335
0.949707, -0.1230469, 0.0415039, -35.8536606, -8.1707315, -9.8170738, -0.0486763
0.9526367, -0.1420898, 0.0581055, -37.4390259, -9.0853662, -9.0243902, -0.0459907
0.9501953, -0.1582031, 0.0664062, -40.3658562, -9.7560978, -8.0487804, -0.0476692
0.9399414, -0.1933594, 0.0776367, -41.4024391, -9.5121956, -8.1707315, -0.0486763
0.9267578, -0.2099609, 0.0864258, -42.6219521, -9.3902445, -7.6829271, -0.0473335
0.8979492, -0.2402344, 0.1142578, -43.1097565, -9.9390249, -7.9268293, -0.0466621
0.8862305, -0.2509766, 0.1293945, -43.4146347, -13.0487804, -7.7439027, -0.0486763
0.8579102, -0.2714844, 0.1669922, -43.4146347, -16.0365849, -7.4390244, -0.0533761
0.84375, -0.28125, 0.1914062, -43.1707344, -17.439024, -7.3780489, -0.0513619
0.840332, -0.2836914, 0.2036133, -42.5609779, -19.0853672, -7.5, -0.0500191
0.8330078, -0.2910156, 0.2138672, -42.3170738, -20.1829281, -8.0487804, -0.0527047
0.8320312, -0.2910156, 0.2089844, -42.4390259, -22.6829281, -9.2073174, -0.0527047
0.8408203, -0.2890625, 0.1821289, -42.5609779, -24.0853672, -9.8170738, -0.0540475
0.8476562, -0.2880859, 0.1591797, -43.0487823, -24.6951218, -10.6707315, -0.0540475
0.8618164, -0.2597656, 0.0869141, -43.4756126, -24.2073174, -11.341464, -0.0493477
0.8740234, -0.2387695, 0.0512695, -44.2073174, -22.6219521, -11.5243902, -0.0486763
0.8881836, -0.1928711, -0.0249023, -44.6951218, -21.7682934, -11.0975609, -0.0486763
0.8979492, -0.1699219, -0.0625, -45.1219521, -22.0731716, -10.1219511, -0.0473335
0.9155273, -0.1298828, -0.1049805, -46.1585388, -25.4268303, -7.6219516, -0.0466621
0.9423828, -0.1054688, -0.1157227, -46.7073174, -27.560976, -7.1951222, -0.0466621
0.9584961, -0.0932617, -0.1064453, -49.3292694, -30.4878063, -5.4878049, -0.0473335
0.9882812, -0.0952148, -0.0791016, -51.0365868, -30.6097565, -5.2439027, -0.0406195
0.9990234, -0.1020508, -0.0668945, -54.2073174, -27.9268303, -5.4878049, -0.0433051
1.0053711, -0.1303711, -0.050293, -55.4878044, -24.8170738, -5.9146342, -0.0459907
1.0058594, -0.1479492, -0.043457, -56.7073174, -19.2073174, -6.8292685, -0.0473335
0.9858398, -0.1865234, -0.0410156, -57.0121956, -17.1951218, -7.7439027, -0.0459907
0.9716797, -0.2104492, -0.0415039, -56.0975609, -14.0243902, -8.719512, -0.0419623
0.9472656, -0.2553711, -0.0512695, -55.4878044, -12.6829271, -8.9634151, -0.0372625
0.9350586, -0.2675781, -0.0595703, -54.0853653, -10.6097565, -8.9634151, -0.0412909
0.9169922, -0.2788086, -0.0761719, -52.9878044, -9.0243902, -8.4146347, -0.0446479
0.9052734, -0.2807617, -0.0888672, -52.7439041, -8.780488, -7.9268293, -0.0419623
0.9042969, -0.2802734, -0.0874023, -53.5975609, -9.6951218, -6.6463418, -0.0379339
0.9111328, -0.265625, -0.0703125, -54.3902435, -10.7317076, -6.0975609, -0.0392767
0.9208984, -0.2568359, -0.0541992, -56.7073174, -12.1341467, -4.9390244, -0.0406195
0.9575195, -0.2456055, -0.0292969, -57.7439041, -12.0121956, -4.8780489, -0.0419623
0.9760742, -0.2456055, -0.027832, -59.5121956, -9.6951218, -4.8170733, -0.0406195
1.0009766, -0.2446289, -0.03125, -60, -8.1097565, -4.9390244, -0.0419623
1.0141602, -0.2421875, -0.0444336, -61.6463432, -4.5731707, -5.1219511, -0.0426337
1.0175781, -0.2480469, -0.0556641, -62.3780518, -3.4756098, -5, -0.0406195
1.0205078, -0.2548828, -0.0546875, -64.3902435, -3.4146342, -4.2073174, -0.0433051
1.0146484, -0.2758789, -0.0375977, -66.0365906, -2.9268293, -2.9268293, -0.0446479
1.0043945, -0.2890625, -0.0239258, -66.0365906, -1.8902439, -2.3170731, -0.0473335
0.9995117, -0.2963867, -0.0180664, -65.7926865, 1.2804878, -0.7317073, -0.0520333
0.9750977, -0.3032227, -0.0239258, -65.2439041, 2.5609756, -0.3048781, -0.0506905
0.9648438, -0.3071289, -0.0327148, -64.5731735, 4.6341462, 0.3048781, -0.0459907
0.9453125, -0.3120117, -0.0507812, -63.9634171, 5.4268293, 0.7317073, -0.0446479
0.940918, -0.3129883, -0.0615234, -63.9634171, 5.3048782, 1.0365853, -0.0473335
0.940918, -0.3129883, -0.0834961, -63.841465, 4.7560978, 1.097561, -0.0486763
0.9414062, -0.3105469, -0.0893555, -63.841465, 3.5975611, 2.1341465, -0.0476692
0.9609375, -0.3095703, -0.0766602, -63.3536606, 1.1585366, 2.7439024, -0.0433051
0.9765625, -0.3066406, -0.0629883, -63.1097565, -0.2439024, 3.2317073, -0.0473335
1.015625, -0.3007812, -0.0458984, -63.7195129, -1.3414634, 3.4756098, -0.0476692
1.0488281, -0.3154297, -0.0375977, -64.2073212, -0.6707317, 3.2317073, -0.0480049
1.0600586, -0.3208008, -0.0390625, -64.5121994, 2.6829269, 3.8414636, -0.0506905
1.0576172, -0.3266602, -0.0351562, -64.3902435, 4.5731707, 4.0853658, -0.0486763
1.0517578, -0.3286133, -0.027832, -63.1097565, 6.5853658, 5.7926831, -0.0439765
1.0380859, -0.3300781, -0.0239258, -62.7439041, 6.6463418, 6.4634147, -0.0406195
1.0297852, -0.3369141, -0.019043, -62.6219521, 5.9756098, 8.780488, -0.0392767
1.0200195, -0.3266602, 0.0029297, -62.68293, 5.7317076, 10.2439022, -0.0406195
1.0097656, -0.3237305, 0.0166016, -63.2926826, 5.9146342, 12.9268293, -0.0386053
1.0063477, -0.3354492, 0.0356445, -63.2926826, 5.4268293, 14.3292685, -0.0399481
1.0039062, -0.3393555, 0.0429688, -63.4756126, 4.8780489, 14.6341467, -0.0412909
1.0048828, -0.3427734, 0.0410156, -64.2682953, 4.0853658, 15.3658543, -0.0412909
1.0102539, -0.3383789, 0.0214844, -64.6341476, 4.2682929, 15.7926836, -0.0406195
1.0126953, -0.3261719, 0.003418, -64.6951218, 4.8780489, 17.3780499, -0.0392767
1.0200195, -0.2905273, -0.0356445, -64.6951218, 5, 18.6585369, -0.0365911
1.0283203, -0.2783203, -0.0522461, -65.1219559, 3.5975611, 21.3414631, -0.0352483
1.0522461, -0.2641602, -0.0756836, -66.4634171, 2.2560976, 23.0487804, -0.0412909
1.0673828, -0.2602539, -0.081543, -69.6951218, 0.1219512, 26.8292694, -0.0433051
1.0976562, -0.2646484, -0.0810547, -70.9146347, 0.4268293, 28.1707325, -0.0406195
1.1054688, -0.2739258, -0.0810547, -71.3414688, 2.0731707, 30.9146347, -0.0359197
1.1166992, -0.2871094, -0.0751953, -70.8536606, 3.1707318, 32.8048782, -0.0386053
1.1123047, -0.3041992, -0.0756836, -70.5487823, 3.4756098, 34.2073174, -0.0392767
1.1069336, -0.3369141, -0.074707, -70.6097565, 3.7804878, 36.2804871, -0.0352483
1.0952148, -0.3657227, -0.0795898, -70.5487823, 4.1463413, 37.5609779, -0.0332341
1.0917969, -0.375, -0.0795898, -70.6097565, 5.4878049, 39.5731735, -0.0285344
1.0761719, -0.3935547, -0.0742188, -70.6707306, 6.1585369, 40.6097565, -0.0328985
1.0727539, -0.387207, -0.0732422, -69.5121994, 6.280488, 43.6585388, -0.0352483
1.0751953, -0.3916016, -0.0854492, -69.4512177, 5.9756098, 44.7560997, -0.0386053
1.0786133, -0.3916016, -0.0888672, -69.8170776, 5, 47.2560997, -0.0406195
1.0922852, -0.3979492, -0.0976562, -70.7926865, 4.3292685, 48.3536606, -0.0419623
1.0947266, -0.40625, -0.0976562, -73.3536606, 3.9634147, 49.6341476, -0.0419623
1.0986328, -0.4331055, -0.0849609, -76.1585388, 3.0487804, 50.9756126, -0.0406195
1.0986328, -0.449707, -0.0688477, -76.4024429, 2.195122, 51.7073174, -0.0392767
1.09375, -0.4785156, -0.0336914, -75.9146347, 1.0365853, 53.3536606, -0.0399481
1.0888672, -0.4863281, -0.0073242, -74.3292694, 1.097561, 54.4512215, -0.0459907
1.0800781, -0.4760742, -0.003418, -71.2195129, 1.5853659, 56.8292694, -0.0480049
1.0756836, -0.4536133, -0.0146484, -69.8170776, 1.8292683, 57.9878044, -0.0436408
1.0678711, -0.4438477, -0.0205078, -68.6585388, 1.6463414, 60.7317085, -0.0433051
1.0629883, -0.4350586, -0.0483398, -68.2317123, 1.6463414, 61.9512215, -0.0426337
1.0644531, -0.4262695, -0.0600586, -68.5365906, 0.1219512, 64.5731735, -0.0392767
1.0639648, -0.4238281, -0.0766602, -69.3902435, -0.6097561, 65.1219559, -0.0436408
1.0639648, -0.4243164, -0.0844727, -70.7317123, -2.7439024, 66.7682953, -0.0436408
1.0727539, -0.4189453, -0.105957, -72.5609741, -3.5365853, 68.4756088, -0.0459907
1.0751953, -0.4169922, -0.1118164, -73.1707306, -4.0853658, 69.3292694, -0.0449836
1.0839844, -0.4042969, -0.0991211, -74.0853653, -6.3414636, 71.1585388, -0.0426337
1.0976562, -0.4013672, -0.0766602, -74.0853653, -7.8658538, 72.1341476, -0.0453193
1.1030273, -0.390625, -0.0776367, -73.9024429, -8.780488, 74.8780518, -0.0433051
1.1225586, -0.3754883, -0.0908203, -73.4146347, -8.3536587, 76.4024429, -0.0433051
1.1293945, -0.3701172, -0.1088867, -73.2926865, -7.9268293, 79.4512177, -0.0433051
1.1401367, -0.3691406, -0.152832, -74.3292694, -8.4146347, 80.5487823, -0.0449836
1.1523438, -0.3774414, -0.1699219, -78.5365906, -11.9512196, 83.6585388, -0.0446479
1.1855469, -0.3759766, -0.1879883, -80.7317123, -13.7195129, 84.9390259, -0.0466621
1.2128906, -0.3706055, -0.190918, -85.18293, -15, 88.2926865, -0.0392767
1.2514648, -0.3369141, -0.21875, -84.8780518, -12.0731707, 92.3780518, -0.0419623
1.2661133, -0.3168945, -0.2358398, -84.146347, -10.4878054, 94.7561035, -0.0426337
1.2739258, -0.2836914, -0.2626953, -82.9268341, -9.4512196, 99.5731735, -0.0406195
1.2768555, -0.2875977, -0.2739258, -84.5731735, -10, 102.4390259, -0.0419623
1.2753906, -0.3022461, -0.2587891, -91.1585388, -10.4268293, 108.4146347, -0.0406195
1.2695312, -0.3378906, -0.1948242, -94.4512253, -9.5121956, 111.3414688, -0.0463264
1.2583008, -0.3642578, -0.159668, -98.8414688, -6.4024391, 115.4268341, -0.0439765
1.2163086, -0.4189453, -0.0981445, -99.5121994, -5.2439027, 116.7073212, -0.0386053
1.1889648, -0.4458008, -0.0712891, -98.6585388, -5.1829271, 118.6585388, -0.0406195
1.1582031, -0.4907227, -0.046875, -97.7439041, -5.9756098, 118.9634171, -0.0412909
1.1503906, -0.5004883, -0.0639648, -95.9756088, -6.5853658, 119.4512253, -0.0459907
1.1459961, -0.4921875, -0.1191406, -95, -5.609756, 118.8414688, -0.0426337
1.1430664, -0.4858398, -0.1435547, -95.2439041, -6.3414636, 118.9634171, -0.0382696
1.1508789, -0.4672852, -0.1469727, -97.6219559, -11.5243902, 119.4512253, -0.0396124
1.1884766, -0.4624023, -0.0991211, -99.4512253, -14.4512196, 120.4268341, -0.0392767
1.215332, -0.4628906, -0.0727539, -102.1951218, -18.4756107, 122.0731735, -0.0379339
1.2617188, -0.4692383, -0.0332031, -102.8048782, -18.2926826, 122.3170776, -0.0406195
1.2817383, -0.4628906, -0.0234375, -102.6219559, -15.1829271, 123.1707382, -0.0459907
1.2910156, -0.4516602, -0.0473633, -102.2561035, -13.6585369, 122.9878082, -0.0459907
1.2861328, -0.4501953, -0.0756836, -103.2317123, -12.6829271, 122.8048782, -0.0439765
1.2783203, -0.4228516, -0.152832, -104.5121994, -12.7439032, 122.5, -0.0453193
1.2724609, -0.4145508, -0.1879883, -108.1707306, -12.9878054, 122.9268341, -0.0459907
1.2529297, -0.4013672, -0.2485352, -111.8292694, -14.3902445, 124.2682953, -0.042298
1.2470703, -0.4042969, -0.2631836, -113.7804871, -15.4878054, 125.0609818, -0.0459907
1.2382812, -0.4301758, -0.277832, -116.8902435, -19.0243912, 126.3414688, -0.0466621
1.2382812, -0.456543, -0.2905273, -118.5365906, -20.1829281, 126.8902435, -0.0459907
1.2416992, -0.4692383, -0.2944336, -121.0365906, -21.0975609, 126.7682953, -0.0419623
1.2456055, -0.4838867, -0.2910156, -121.9512253, -20.6707325, 126.2804871, -0.0419623
1.2426758, -0.4848633, -0.2905273, -123.9634171, -22.1951218, 125.7926865, -0.0426337
1.2407227, -0.4936523, -0.2827148, -125.1219559, -23.5365868, 125.7926865, -0.0433051
1.2387695, -0.4941406, -0.28125, -126.4634171, -25.1219521, 126.5243912, -0.0446479
1.2792969, -0.5073242, -0.2226562, -126.7073212, -23.780489, 126.7682953, -0.0466621
1.2753906, -0.5063477, -0.2563477, -120, -13.6585369, 126.5853653, -0.0446479
1.2167969, -0.5039062, -0.4111328, -117.3780518, -12.3780489, 126.2804871, -0.0443122
1.1582031, -0.5200195, -0.5014648, -119.146347, -16.3414631, 126.8902435, -0.0446479
1.1328125, -0.5351562, -0.4946289, -125.8536606, -26.8902454, 129.7561035, -0.0446479
1.1113281, -0.5698242, -0.3730469, -129.3902435, -31.5853672, 132.0731812, -0.0433051
1.1196289, -0.5859375, -0.2832031, -133.1097565, -37.3780479, 136.7682953, -0.0426337
1.1411133, -0.6040039, -0.1669922, -131.7073212, -38.1097565, 138.2926788, -0.0426337
1.1582031, -0.6035156, -0.1640625, -124.5731735, -35.1219521, 138.4756165, -0.0446479
1.1679688, -0.5742188, -0.2407227, -120.9146347, -32.7439041, 137.5, -0.0419623
1.1533203, -0.5595703, -0.2954102, -119.0853653, -31.1585369, 134.6341553, -0.0406195
1.1152344, -0.5395508, -0.3779297, -120.7317123, -32.6219521, 133.9024353, -0.0433051
1.097168, -0.5351562, -0.3984375, -126.1585388, -38.1097565, 134.146347, -0.0412909
1.0742188, -0.5493164, -0.4082031, -130.4268341, -42.8658562, 137.1951294, -0.0446479
1.065918, -0.5668945, -0.4033203, -131.8902435, -43.9634171, 138.9024353, -0.0473335
1.0668945, -0.5766602, -0.3994141, -134.3902435, -45.0609779, 142.7439117, -0.0433051
1.0717773, -0.5834961, -0.4082031, -135, -45, 143.9634247, -0.0419623
1.0712891, -0.5878906, -0.4169922, -136.4634247, -44.8170738, 145.7317047, -0.0433051
1.0649414, -0.5825195, -0.4179688, -136.7682953, -45.6707344, 146.3414612, -0.0379339
1.0634766, -0.5839844, -0.4116211, -138.8414612, -49.2682953, 147.8048859, -0.0365911
1.0561523, -0.5820312, -0.3725586, -139.9390259, -51.4634171, 148.8414612, -0.0439765
1.0483398, -0.5908203, -0.3447266, -141.3414612, -55, 150.6707306, -0.0433051
1.0498047, -0.6108398, -0.3095703, -141.4634247, -56.0365868, 151.8902435, -0.0406195
1.0415039, -0.6230469, -0.3149414, -140.4268341, -56.4024391, 153.2317047, -0.0419623
1.015625, -0.6518555, -0.3833008, -137.5, -54.7560997, 153.3536682, -0.0406195
0.9672852, -0.6884766, -0.4614258, -136.0975647, -54.6951218, 153.2317047, -0.0392767
0.9375, -0.7124023, -0.4750977, -136.0365906, -58.6585388, 153.2317047, -0.0419623
0.8959961, -0.7519531, -0.4511719, -137.2561035, -62.2560997, 153.6585388, -0.0392767
0.8896484, -0.762207, -0.4155273, -140.5487823, -68.5365906, 154.9390259, -0.0386053
0.8911133, -0.7646484, -0.3540039, -141.0975647, -69.3902435, 155.5487823, -0.0436408
0.8930664, -0.762207, -0.3515625, -137.7439117, -68.8414688, 156.5853729, -0.0453193
0.8945312, -0.7416992, -0.4033203, -135.5487823, -68.3536606, 156.646347, -0.0463264
0.8950195, -0.7246094, -0.4414062, -132.7439117, -68.0487823, 157.0121918, -0.0419623
0.8916016, -0.6928711, -0.5029297, -133.0487823, -68.9024429, 157.8048859, -0.0439765
0.8935547, -0.6850586, -0.5161133, -136.5243988, -71.9512177, 158.5365906, -0.0459907
0.9023438, -0.6889648, -0.5014648, -142.1341553, -74.4512177, 159.5731812, -0.0453193
0.9082031, -0.7050781, -0.4589844, -144.8170776, -75.4878082, 159.8780518, -0.0466621
0.90625, -0.7148438, -0.4448242, -147.3170776, -75.0609741, 160.8536682, -0.0433051
0.8930664, -0.7241211, -0.4536133, -146.7073212, -74.0853653, 161.1585388, -0.0459907
0.8837891, -0.7299805, -0.4746094, -143.7195129, -71.5853653, 162.0121918, -0.0433051
0.8632812, -0.7353516, -0.5375977, -142.6219482, -71.3414688, 162.5609741, -0.0372625
0.8525391, -0.7426758, -0.5512695, -143.8414612, -73.1097565, 164.3902435, -0.0392767
0.8422852, -0.7568359, -0.5126953, -145.5487823, -75.3658524, 165.0609741, -0.0416266
0.8432617, -0.769043, -0.4707031, -148.5975647, -80.18293, 166.0365906, -0.0446479
0.8417969, -0.7851562, -0.4023438, -148.6585388, -81.5243912, 166.7682953, -0.0433051
0.8364258, -0.7827148, -0.3901367, -145.7317047, -81.0975647, 167.7439117, -0.0419623
0.809082, -0.777832, -0.4135742, -142.9878082, -79.8170776, 168.4146423, -0.0433051
0.7709961, -0.7739258, -0.456543, -142.5609741, -80.18293, 168.8414612, -0.0419623
0.753418, -0.7749023, -0.4765625, -142.3170776, -83.5365906, 169.2682953, -0.0412909
0.7260742, -0.8051758, -0.4882812, -142.8048859, -85.9146347, 169.6341553, -0.0392767
0.7158203, -0.8139648, -0.4584961, -144.6341553, -92.4390259, 169.9390259, -0.0446479
0.706543, -0.8334961, -0.3613281, -145.3048859, -96.0975647, 170, -0.0446479
0.7075195, -0.8378906, -0.3251953, -143.9024353, -101.2804871, 169.9390259, -0.0459907
0.699707, -0.8344727, -0.3530273, -141.3414612, -101.1585388, 170.1219482, -0.0480049
0.690918, -0.8344727, -0.4213867, -135.1219482, -96.4634171, 170.2439117, -0.0426337
0.6518555, -0.828125, -0.5712891, -132.7439117, -95.0609741, 170.3048859, -0.0399481
0.6313477, -0.8325195, -0.621582, -132.86586, -98.5365906, 171.646347, -0.0386053
0.6235352, -0.8359375, -0.6567383, -135.36586, -104.0243912, 173.0487823, -0.0379339
0.6347656, -0.8466797, -0.5849609, -136.4634247, -106.4634171, 173.7804871, -0.0406195
0.652832, -0.8540039, -0.5419922, -136.2804871, -110.0609818, 174.3902435, -0.0412909
0.6875, -0.8637695, -0.5053711, -135, -110.7926865, 174.146347, -0.0426337
0.6933594, -0.8618164, -0.5083008, -131.4024353, -107.9268341, 173.5365906, -0.0513619
0.6679688, -0.8413086, -0.5498047, -130.0609741, -106.3414688, 174.0243988, -0.0540475
0.6484375, -0.8310547, -0.565918, -128.1707306, -107.4390259, 175.8536682, -0.0516976
0.6083984, -0.8139648, -0.5756836, -128.2926788, -109.4512253, 177.3170776, -0.0473335
0.6035156, -0.8032227, -0.5620117, -130.7317047, -114.0853653, 180.36586, -0.0473335
0.6005859, -0.78125, -0.5327148, -132.6219482, -115.4268341, 181.7073212, -0.0446479
0.6010742, -0.7866211, -0.5327148, -132.9878082, -115.4268341, 181.646347, -0.0439765
0.6030273, -0.8076172, -0.5507812, -131.2195129, -114.5731735, 180.5487823, -0.0406195
0.578125, -0.8183594, -0.6196289, -130.6707306, -115.0609818, 180.1219482, -0.042298
0.5644531, -0.8164062, -0.6513672, -130.8536682, -115.18293, 180.2439117, -0.0399481
0.5380859, -0.8217773, -0.671875, -131.7682953, -115.7926865, 181.1585388, -0.0386053
0.5351562, -0.8276367, -0.6655273, -132.5609741, -118.4146347, 183.3536682, -0.0409552
0.5522461, -0.8447266, -0.6533203, -132.5, -119.6341476, 184.146347, -0.0439765
0.5571289, -0.8496094, -0.6450195, -132.6219482, -120.2439041, 184.3902435, -0.0453193
0.5507812, -0.8525391, -0.625, -132.86586, -119.6951218, 184.3902435, -0.0493477
0.5341797, -0.8413086, -0.6220703, -132.6829224, -118.1707382, 184.0243988, -0.0473335
0.503418, -0.8178711, -0.6679688, -130.5487823, -115.0609818, 184.9390259, -0.0473335
0.4868164, -0.7988281, -0.7119141, -130.4268341, -113.3536606, 185.8536682, -0.0446479
0.4624023, -0.7749023, -0.7529297, -132.2561035, -113.2317123, 187.6219482, -0.0396124
0.487793, -0.7768555, -0.6855469, -133.4756165, -116.2804871, 187.1951294, -0.0419623
0.4912109, -0.7944336, -0.6533203, -134.5121918, -122.0731735, 183.6585388, -0.0433051
0.4960938, -0.8569336, -0.6459961, -134.0853729, -122.86586, 182.4390259, -0.0436408
0.4931641, -0.8847656, -0.6748047, -131.0975647, -118.2926865, 181.5243988, -0.0480049
0.4677734, -0.9121094, -0.7612305, -128.4146423, -115.3048782, 181.8902435, -0.0500191
0.4555664, -0.9189453, -0.7822266, -124.146347, -115.9146347, 183.2926941, -0.0486763
0.456543, -0.9291992, -0.762207, -123.2317123, -119.9390259, 183.9024506, -0.0473335
0.4702148, -0.9306641, -0.7270508, -122.6219559, -126.7682953, 184.3902435, -0.0466621
0.5092773, -0.9150391, -0.640625, -120.9756088, -127.3780518, 183.7804871, -0.0459907
0.5126953, -0.9086914, -0.6103516, -118.9024429, -126.1585388, 182.7439117, -0.0459907
0.5136719, -0.8828125, -0.6069336, -114.2682953, -124.2682953, 180.2439117, -0.0459907
0.4819336, -0.862793, -0.668457, -112.0121994, -123.9634171, 178.7195129, -0.0473335
0.4594727, -0.8442383, -0.7089844, -111.0365906, -125.4268341, 177.3780518, -0.0446479
0.4189453, -0.8217773, -0.7939453, -111.5853653, -125.5487823, 177.4390259, -0.0459907
0.4145508, -0.815918, -0.8276367, -110.8536606, -125.0609818, 178.2926941, -0.0446479
0.4306641, -0.8237305, -0.8544922, -109.8170776, -125.9756165, 177.9878082, -0.0433051
0.4423828, -0.8271484, -0.8417969, -110.3048782, -130.9146423, 174.8780518, -0.0436408
0.4614258, -0.8608398, -0.7714844, -110.3048782, -133.4756165, 172.6219482, -0.0486763
0.4648438, -0.871582, -0.7246094, -110.2439041, -136.4634247, 168.7195129, -0.0439765
0.4506836, -0.8637695, -0.6547852, -107.7439041, -132.9268341, 168.4146423, -0.0419623
0.4321289, -0.8476562, -0.6679688, -105.18293, -128.7804871, 169.8170776, -0.0399481
0.394043, -0.7978516, -0.7749023, -100.6707306, -122.3170776, 173.8414612, -0.0406195
0.378418, -0.7670898, -0.8710938, -100.1219559, -122.2561035, 175, -0.0392767
0.3925781, -0.7602539, -0.894043, -101.5853653, -128.4146423, 175.4878082, -0.0426337
0.4462891, -0.7758789, -0.8911133, -102.7439041, -131.4024353, 174.0853729, -0.0446479
0.4707031, -0.7958984, -0.8764648, -103.5975647, -133.1097565, 169.4512177, -0.0486763
0.4838867, -0.8359375, -0.8198242, -103.3536606, -132.3170776, 167.0121918, -0.0486763
0.46875, -0.8486328, -0.7797852, -102.2561035, -132.1951294, 164.2073212, -0.0446479
0.4106445, -0.8540039, -0.6958008, -100.9756088, -132.2561035, 164.5121918, -0.0433051
0.3789062, -0.8422852, -0.6821289, -97.7439041, -130.4878082, 167.5, -0.0446479
0.34375, -0.8017578, -0.734375, -93.2317123, -126.2195129, 170.4878082, -0.0419623
0.328125, -0.7861328, -0.8051758, -91.7073212, -124.146347, 171.0975647, -0.0406195
0.3129883, -0.7646484, -0.9135742, -92.4390259, -125.2439041, 170.3048859, -0.0426337
0.3183594, -0.7490234, -0.9389648, -94.0243912, -128.8414612, 169.2682953, -0.0439765
0.324707, -0.7416992, -0.9291992, -97.2561035, -134.0243988, 165.8536682, -0.0439765
0.3378906, -0.75, -0.9003906, -97.6219559, -133.9634247, 164.2682953, -0.0446479
0.3398438, -0.7646484, -0.894043, -96.8902435, -131.8902435, 161.3414612, -0.0446479
0.3261719, -0.7753906, -0.8574219, -97.0121994, -131.8292694, 160.2439117, -0.0433051
0.3183594, -0.7763672, -0.8305664, -97.4390259, -134.2073212, 158.9024353, -0.0419623
0.2973633, -0.7817383, -0.8198242, -97.68293, -135.0609741, 158.4756165, -0.0466621
0.2919922, -0.7773438, -0.8349609, -96.4634171, -131.8292694, 159.3902435, -0.0453193
0.2709961, -0.7739258, -0.8613281, -94.3902435, -130.36586, 159.9390259, -0.0406195
0.262207, -0.7768555, -0.855957, -93.4146347, -132.7439117, 159.4512177, -0.042298
0.2470703, -0.7905273, -0.8066406, -92.68293, -140.5487823, 157.2561035, -0.0459907
0.2416992, -0.7958984, -0.7553711, -92.5609741, -142.5, 156.2195129, -0.0486763
0.2353516, -0.7944336, -0.7543945, -90.4268341, -140.1219482, 154.3902435, -0.0506905
0.2211914, -0.7958984, -0.7875977, -89.0243912, -138.2317047, 153.7195129, -0.0527047
0.2075195, -0.7949219, -0.8071289, -86.5243912, -138.9634247, 152.1951294, -0.0540475
0.1816406, -0.7900391, -0.7944336, -86.4634171, -142.1951294, 151.4024353, -0.0527047
0.1708984, -0.7832031, -0.7626953, -86.5853653, -149.3902435, 150.1829376, -0.0500191
0.1757812, -0.7646484, -0.6992188, -85.6097565, -151.1585388, 149.6341553, -0.0513619
0.1782227, -0.7568359, -0.6987305, -83.0487823, -150, 148.7804871, -0.0540475
0.1806641, -0.7426758, -0.7734375, -80.4268341, -145.7317047, 147.4390259, -0.0473335
0.1728516, -0.7387695, -0.8222656, -80, -145.4268341, 146.5853729, -0.0493477
0.1674805, -0.7348633, -0.9003906, -80.9756088, -148.7195129, 144.8780518, -0.0513619
0.1679688, -0.7280273, -0.940918, -81.4634171, -150.4268341, 143.9024353, -0.0506905
0.1728516, -0.7265625, -0.9467773, -81.3414688, -151.7073212, 142.7439117, -0.0480049
0.1767578, -0.7270508, -0.9189453, -81.0975647, -151.5853729, 142.6219482, -0.0473335
0.1782227, -0.7246094, -0.894043, -80.3048782, -152.9268341, 141.0365906, -0.0446479
0.1875, -0.7143555, -0.8603516, -80.4878082, -153.3536682, 140.1219482, -0.0473335
0.1860352, -0.7099609, -0.862793, -81.3414688, -150.9146423, 138.8414612, -0.0419623
0.1591797, -0.7099609, -0.9389648, -81.646347, -147.2561035, 138.3536682, -0.0446479
0.140625, -0.7089844, -0.9853516, -80.7926865, -140.7317047, 139.3902435, -0.0473335
0.1162109, -0.7060547, -1.0185547, -79.6341476, -143.2317047, 140.0609741, -0.0459907
0.1064453, -0.706543, -0.9916992, -79.5731735, -146.8902435, 139.7561035, -0.0406195
0.1196289, -0.7036133, -0.8813477, -80.4878082, -152.7439117, 137.0731812, -0.0473335
0.1235352, -0.7094727, -0.7832031, -80.8536606, -152.9268341, 135.36586, -0.0446479
0.1152344, -0.7192383, -0.762207, -80.1219559, -148.6585388, 132.5609741, -0.0426337
0.0820312, -0.7373047, -0.7719727, -78.9634171, -146.5243988, 131.8902435, -0.0439765
0.0551758, -0.7416992, -0.7900391, -76.7682953, -146.2804871, 131.2804871, -0.0412909
0.0087891, -0.7314453, -0.8286133, -76.2804871, -147.6829376, 131.1585388, -0.0399481
-0.003418, -0.7241211, -0.8291016, -75.2439041, -150.9756165, 132.86586, -0.0392767
-0.0024414, -0.6933594, -0.831543, -74.6341476, -152.3780518, 133.5365906, -0.0419623
0.0087891, -0.6801758, -0.8266602, -73.8414688, -154.2073212, 132.5, -0.0419623
0.0258789, -0.6547852, -0.8120117, -73.9024429, -156.0365906, 129.7561035, -0.0365911
0.0224609, -0.6479492, -0.7700195, -74.0853653, -157.3780518, 127.86586, -0.0379339
0.0200195, -0.65625, -0.7480469, -73.9024429, -160.8536682, 124.2682953, -0.0406195
0.0112305, -0.6767578, -0.7260742, -73.0487823, -162.0731812, 122.6219559, -0.0419623
-0.0014648, -0.6845703, -0.7382812, -72.5, -162.1951294, 120.4268341, -0.0392767
-0.0390625, -0.6850586, -0.7753906, -72.0121994, -161.2804871, 120, -0.0365911
-0.0473633, -0.6870117, -0.7998047, -71.2195129, -161.4634247, 120.4268341, -0.0365911
-0.0454102, -0.6894531, -0.8442383, -70.18293, -162.3170776, 120.8536606, -0.0372625
-0.0410156, -0.6889648, -0.8637695, -66.7073212, -164.6341553, 120.36586, -0.0352483
-0.0380859, -0.6655273, -0.8740234, -65.3658524, -165.7926941, 119.6951218, -0.0372625
-0.0395508, -0.6474609, -0.8671875, -63.841465, -165.9146423, 118.1097565, -0.0406195
-0.0375977, -0.6049805, -0.8769531, -64.0853653, -164.0243988, 117.5, -0.0426337
-0.0200195, -0.5791016, -0.9609375, -64.7560959, -161.8902435, 117.0731735, -0.0399481
-0.0175781, -0.578125, -1.0048828, -67.3780518, -156.2804871, 115.9756088, -0.0382696
-0.0351562, -0.5834961, -1.0014648, -68.5975647, -156.1585388, 115.36586, -0.0409552
-0.0375977, -0.5888672, -0.9550781, -70.3048782, -160.7926941, 113.5365906, -0.0439765
-0.0336914, -0.5976562, -0.8779297, -70.3048782, -162.3780518, 112.9268341, -0.0426337
-0.0263672, -0.6049805, -0.8686523, -71.3414688, -157.4390259, 111.5243912, -0.0433051
-0.050293, -0.605957, -0.8740234, -72.3780518, -153.2317047, 110.9756088, -0.0379339
-0.0698242, -0.6049805, -0.8837891, -71.9512177, -149.3902435, 110.9756088, -0.0392767
-0.0991211, -0.6015625, -0.9052734, -70.9146347, -149.4512177, 111.0975647, -0.0419623
-0.1088867, -0.5917969, -0.9067383, -70.18293, -151.0365906, 110.7317123, -0.0412909
-0.1113281, -0.5849609, -0.8935547, -71.3414688, -151.2804871, 109.2682953, -0.0419623
-0.1010742, -0.6035156, -0.8359375, -72.0121994, -151.4024353, 107.8658524, -0.0433051
-0.1049805, -0.6176758, -0.7709961, -72.9878082, -155.1829376, 103.8414688, -0.0453193
-0.1318359, -0.6225586, -0.6118164, -72.8048782, -158.4146423, 102.0121994, -0.0412909
-0.1484375, -0.6191406, -0.5634766, -69.5121994, -160.1829376, 100.2439041, -0.0409552
-0.1914062, -0.5947266, -0.59375, -67.5609741, -157.1951294, 100.9146347, -0.0433051
-0.215332, -0.5791016, -0.6513672, -64.2073212, -150.8536682, 102.6219559, -0.0352483
-0.2524414, -0.5517578, -0.7290039, -63.5365868, -151.0975647, 102.8658524, -0.0372625
-0.2529297, -0.5405273, -0.7329102, -64.1463394, -159.6951294, 101.3414688, -0.0392767
-0.2255859, -0.5375977, -0.6801758, -64.3902435, -165.1219482, 99.3292694, -0.0365911
-0.2006836, -0.5424805, -0.6552734, -63.1707344, -170.4268341, 93.7804871, -0.0406195
-0.1782227, -0.5488281, -0.6362305, -61.8292694, -169.2073212, 89.0853653, -0.0386053
-0.1845703, -0.5351562, -0.7045898, -61.1585388, -167.2561035, 88.4756088, -0.035584
-0.1889648, -0.5195312, -0.7915039, -60.3658562, -161.1585388, 90.9756088, -0.0396124
-0.1889648, -0.4892578, -0.9682617, -60.7317085, -157.4390259, 93.4146347, -0.0386053
-0.1821289, -0.4770508, -0.9882812, -63.4146347, -159.3292694, 97.0121994, -0.0426337
-0.1494141, -0.4501953, -0.8691406, -65.1219559, -165.5487823, 97.0731735, -0.0412909
-0.1269531, -0.4326172, -0.7954102, -67.5609741, -172.5, 94.146347, -0.0419623
-0.0874023, -0.4204102, -0.7333984, -68.3536606, -168.3536682, 92.5, -0.0412909
-0.0844727, -0.4311523, -0.7431641, -68.2317123, -153.9634247, 90, -0.0399481
-0.1220703, -0.4594727, -0.8139648, -68.1707306, -149.9390259, 89.4512253, -0.0419623
-0.1489258, -0.4702148, -0.8369141, -68.3536606, -149.0853729, 90.7926865, -0.0446479
-0.1806641, -0.5004883, -0.8085938, -68.1707306, -151.5243988, 93.0487823, -0.0473335
-0.1777344, -0.5161133, -0.7949219, -67.4390259, -150.9146423, 94.146347, -0.0463264
-0.1791992, -0.5058594, -0.8261719, -65.6707306, -140.9756165, 95.2439041, -0.0486763
-0.1782227, -0.4868164, -0.8964844, -65.4268341, -134.6341553, 95.18293, -0.0480049
-0.1791992, -0.4770508, -0.8867188, -66.0975647, -131.3414612, 93.5975647, -0.0406195
-0.1894531, -0.4589844, -0.7651367, -66.6463394, -134.3902435, 92.3780518, -0.0392767
-0.1899414, -0.4516602, -0.6762695, -66.2804871, -140.2439117, 89.0853653, -0.0365911
-0.1972656, -0.4438477, -0.5454102, -65.6097565, -139.3292694, 88.5365906, -0.0406195
-0.2148438, -0.4360352, -0.5351562, -63.5975609, -128.0487823, 88.9024429, -0.038941
-0.2578125, -0.4155273, -0.6166992, -63.1097565, -121.2804871, 89.3292694, -0.0436408
-0.2768555, -0.4257812, -0.6503906, -63.4146347, -116.9512253, 89.0853653, -0.0406195
-0.300293, -0.480957, -0.6274414, -64.0243912, -127.1341476, 85.1219559, -0.0345769
-0.3056641, -0.527832, -0.5332031, -64.2682953, -132.86586, 82.5, -0.0406195
-0.3183594, -0.5361328, -0.4995117, -61.5853691, -133.2317047, 79.2682953, -0.0426337
-0.3530273, -0.5249023, -0.4838867, -59.2682953, -128.6585388, 79.0853653, -0.0433051
-0.3691406, -0.5073242, -0.5004883, -54.3902435, -122.1951218, 79.3292694, -0.0433051
-0.3989258, -0.4482422, -0.5375977, -52.5609779, -122.9878082, 78.9634171, -0.0453193
-0.4057617, -0.4111328, -0.5639648, -50.4878044, -126.7073212, 78.3536606, -0.0486763
-0.3955078, -0.3530273, -0.6435547, -50.6707344, -126.7073212, 78.4146347, -0.0513619
-0.3764648, -0.3339844, -0.6816406, -52.1951218, -123.9634171, 77.7439041, -0.049012
-0.3320312, -0.3100586, -0.7573242, -53.0487823, -122.3780518, 76.4634171, -0.0486763
-0.3110352, -0.3115234, -0.7753906, -55.3048782, -121.0975647, 73.7804871, -0.0459907
-0.2617188, -0.3447266, -0.7749023, -56.341465, -120.7317123, 71.0365906, -0.0459907
-0.2543945, -0.3945312, -0.722168, -56.5243912, -120.18293, 70.2439041, -0.0439765
-0.2680664, -0.4003906, -0.6845703, -55.9146347, -115.9146347, 72.0731735, -0.0386053
-0.3012695, -0.3793945, -0.6445312, -55.18293, -112.3170776, 74.1463394, -0.0412909
-0.3149414, -0.3544922, -0.6762695, -53.5975609, -102.2561035, 78.4146347, -0.0406195
-0.3344727, -0.3149414, -0.765625, -53.7195129, -98.4756088, 80.0609741, -0.0386053
-0.3374023, -0.3032227, -0.7797852, -56.8292694, -97.68293, 80.18293, -0.0386053
-0.3310547, -0.3120117, -0.7148438, -58.7195129, -100.8536606, 78.6585388, -0.0379339
-0.3291016, -0.3222656, -0.6582031, -61.5853691, -106.7073212, 74.2073212, -0.0392767
-0.3300781, -0.3481445, -0.5493164, -62.8658562, -106.5853653, 70.3658524, -0.0359197
-0.3408203, -0.3701172, -0.5097656, -63.4756126, -105.3658524, 69.0853653, -0.0372625
-0.3769531, -0.3994141, -0.4628906, -63.9024391, -103.5365906, 67.9268341, -0.0365911
-0.4213867, -0.4160156, -0.4648438, -63.3536606, -103.5975647, 68.4146347, -0.0409552
-0.4316406, -0.4213867, -0.4755859, -60.6097565, -105.18293, 69.1463394, -0.0446479
-0.4462891, -0.4174805, -0.496582, -59.1463432, -106.8902435, 68.8414688, -0.0446479
-0.4458008, -0.4174805, -0.4873047, -55.6707344, -111.2195129, 66.6463394, -0.0392767
-0.4555664, -0.3999023, -0.4575195, -54.8170738, -113.7804871, 65.0609741, -0.0379339
-0.4536133, -0.3911133, -0.4516602, -52.0731735, -115.6097565, 61.6463432, -0.0392767
-0.4394531, -0.375, -0.4614258, -50.9756126, -115.9756088, 59.7560997, -0.0396124
-0.4267578, -0.3779297, -0.4785156, -48.9634171, -118.4146347, 54.8170738, -0.0406195
-0.4091797, -0.3710938, -0.5629883, -47.2560997, -118.7195129, 51.5243912, -0.0379339
-0.4038086, -0.3603516, -0.6171875, -46.8292694, -117.2561035, 51.2804909, -0.0345769
-0.3920898, -0.3325195, -0.6547852, -46.5853653, -115.4268341, 51.5853653, -0.0339055
-0.3632812, -0.2929688, -0.6386719, -46.4634171, -116.4634171, 51.9512215, -0.0325628
-0.3481445, -0.2709961, -0.6420898, -46.1585388, -114.7561035, 52.0121956, -0.0352483
-0.3144531, -0.2426758, -0.659668, -46.1585388, -111.8902435, 52.0121956, -0.0352483
-0.3056641, -0.2402344, -0.6601562, -46.5243912, -106.7682953, 52.0121956, -0.0392767
-0.3071289, -0.2416992, -0.6298828, -46.4024391, -105.7317123, 51.2804909, -0.0419623
-0.3217773, -0.2421875, -0.6030273, -46.8902435, -105.4268341, 51.341465, -0.0396124
-0.3564453, -0.2485352, -0.5761719, -46.9512215, -104.3902435, 52.0121956, -0.0409552
-0.3642578, -0.253418, -0.5917969, -47.1341476, -98.5365906, 53.841465, -0.0406195
-0.3862305, -0.2661133, -0.6606445, -47.0121956, -92.1341476, 55.8536606, -0.0399481
-0.3925781, -0.2729492, -0.6806641, -47.0731735, -91.1585388, 56.341465, -0.0419623
-0.4160156, -0.2822266, -0.6259766, -46.1585388, -94.6341476, 55.7926826, -0.0439765
-0.434082, -0.2807617, -0.503418, -45.0609779, -97.4390259, 55.4268303, -0.0459907
-0.4379883, -0.2714844, -0.4541016, -42.2560997, -98.3536606, 55.5487823, -0.0459907
-0.4609375, -0.2397461, -0.4194336, -41.4024391, -95.9756088, 55.7926826, -0.0449836
-0.4731445, -0.2270508, -0.425293, -40.8536606, -90.4878082, 56.8292694, -0.0520333
-0.4960938, -0.2133789, -0.453125, -40.7926826, -89.2682953, 57.0121956, -0.0553902
-0.5043945, -0.2036133, -0.4770508, -41.5243912, -90.7317123, 56.8902435, -0.0493477
-0.5087891, -0.1933594, -0.5131836, -42.3780479, -91.3414688, 56.4634171, -0.0506905
-0.5078125, -0.1923828, -0.5195312, -43.9634171, -92.4390259, 55.9146347, -0.0480049
-0.496582, -0.1943359, -0.4873047, -44.4512215, -93.9634171, 54.4512215, -0.0459907
-0.4975586, -0.1938477, -0.4604492, -44.5731735, -94.8780518, 53.5365868, -0.0466621
-0.5063477, -0.1782227, -0.418457, -45.4878044, -94.6341476, 53.0487823, -0.0480049
-0.5253906, -0.1464844, -0.440918, -46.6463432, -92.8658524, 53.5975609, -0.0530404
-0.5283203, -0.1376953, -0.4780273, -49.4512215, -87.8658524, 54.4512215, -0.0500191
-0.5273438, -0.1494141, -0.5371094, -51.341465, -86.7682953, 54.3902435, -0.0500191
-0.5258789, -0.1601562, -0.5415039, -53.841465, -89.3902435, 53.3536606, -0.0540475
-0.5263672, -0.1845703, -0.4980469, -54.7560997, -91.7682953, 52.0121956, -0.0493477
-0.5288086, -0.1958008, -0.4560547, -55.8536606, -95, 49.8170738, -0.0486763
-0.5336914, -0.2197266, -0.3789062, -56.0365868, -95.1219559, 49.0853653, -0.0473335
-0.5356445, -0.2202148, -0.3754883, -56.0365868, -91.8902435, 48.2317085, -0.0486763
-0.5473633, -0.2075195, -0.4550781, -56.7682953, -84.8170776, 48.5365868, -0.0486763
-0.5551758, -0.2016602, -0.4960938, -57.5, -82.4390259, 48.841465, -0.0513619
-0.5654297, -0.2016602, -0.4951172, -58.5365868, -84.8170776, 47.7439041, -0.0547189
-0.5683594, -0.1884766, -0.4389648, -58.3536606, -88.2317123, 46.5243912, -0.0513619
-0.5595703, -0.1777344, -0.4243164, -57.1951218, -89.0853653, 44.5731735, -0.0486763
-0.5561523, -0.1572266, -0.4384766, -55.8536606, -85.18293, 44.1463432, -0.0520333
-0.5566406, -0.1577148, -0.4628906, -53.3536606, -75.9756088, 43.9634171, -0.0540475
-0.5634766, -0.1645508, -0.5004883, -51.8292694, -73.0487823, 43.7195129, -0.0540475
-0.5703125, -0.1635742, -0.5078125, -49.8780518, -70.4878082, 43.4756126, -0.0500191
-0.5898438, -0.1630859, -0.4726562, -49.0243912, -70.4268341, 43.3536606, -0.0506905
-0.6030273, -0.1567383, -0.4316406, -47.0731735, -70.4268341, 43.4756126, -0.0463264
-0.6274414, -0.1425781, -0.3310547, -44.8170738, -69.5121994, 43.5975609, -0.0486763
-0.637207, -0.1308594, -0.2919922, -44.1463432, -67.9878082, 43.6585388, -0.0500191
-0.6459961, -0.0922852, -0.2905273, -44.5121956, -62.5, 43.7195129, -0.0500191
-0.6582031, -0.0678711, -0.3442383, -45.2439041, -59.3292694, 43.7195129, -0.0516976
-0.6679688, -0.0629883, -0.3393555, -47.6219521, -58.1097565, 42.3170738, -0.0520333
-0.6948242, -0.0874023, -0.2148438, -47.8658562, -61.7073174, 41.1585388, -0.0527047
-0.7041016, -0.0981445, -0.1323242, -46.2195129, -73.2317123, 38.1707344, -0.0513619
-0.7104492, -0.1000977, -0.1010742, -45.1829262, -75.2439041, 37.0731697, -0.0527047
-0.7124023, -0.0878906, -0.1708984, -43.4146347, -65.0609741, 37.9878044, -0.0500191
-0.722168, -0.0708008, -0.3432617, -43.7804871, -56.8292694, 39.5731735, -0.0486763
-0.7246094, -0.0698242, -0.387207, -46.4634171, -49.8170738, 40.8536606, -0.0520333
-0.7177734, -0.0898438, -0.3613281, -47.5609779, -60.7317085, 37.8048782, -0.0553902
-0.7060547, -0.1074219, -0.3242188, -47.0731735, -66.4024429, 35.4878044, -0.0553902
-0.6713867, -0.1450195, -0.2866211, -45.7317085, -67.5, 30.3048782, -0.0553902
-0.6586914, -0.1860352, -0.2973633, -45.2439041, -62.5609779, 28.6585369, -0.0513619
-0.6660156, -0.1938477, -0.3154297, -45.3048782, -49.8170738, 26.9512196, -0.0476692
-0.7011719, -0.1904297, -0.3388672, -45.1829262, -44.7560997, 27.1951218, -0.0500191
-0.7114258, -0.1806641, -0.3486328, -43.5975609, -40.9756088, 28.6585369, -0.052369
-0.7158203, -0.1591797, -0.3798828, -42.9268303, -41.1585388, 28.7195129, -0.0486763
-0.706543, -0.1513672, -0.3867188, -42.3780479, -40.7317085, 27.0121956, -0.0486763
-0.6992188, -0.144043, -0.3398438, -42.9268303, -40.3048782, 25.3658543, -0.0446479
-0.7070312, -0.1386719, -0.2856445, -42.9878044, -40.3048782, 21.5853672, -0.0459907
-0.7231445, -0.1210938, -0.2197266, -41.2195129, -37.6219521, 18.3536587, -0.0459907
-0.7280273, -0.1083984, -0.2275391, -40.6707344, -33.9024391, 17.9268303, -0.0439765
-0.7397461, -0.081543, -0.2817383, -41.0365868, -24.6341476, 18.8414631, -0.0446479
-0.7553711, -0.0634766, -0.3012695, -41.341465, -21.2195129, 19.4512196, -0.0439765
-0.765625, -0.0571289, -0.2836914, -40.9146347, -20.4878044, 20.1219521, -0.0446479
-0.7758789, -0.0444336, -0.237793, -39.8170738, -22.1341476, 20.4268303, -0.0473335
-0.7734375, -0.0395508, -0.2285156, -37.8048782, -21.7073174, 19.8170738, -0.0473335
-0.7641602, -0.034668, -0.2470703, -37.6829262, -18.7195129, 19.5121956, -0.0466621
-0.7641602, -0.0405273, -0.265625, -39.2682953, -11.0365858, 18.0487804, -0.0459907
-0.7661133, -0.0522461, -0.277832, -40.5487823, -7.5, 17.439024, -0.0446479
-0.7763672, -0.065918, -0.277832, -41.1585388, -3.5975611, 16.4024391, -0.0399481
-0.796875, -0.0800781, -0.2724609, -38.9024391, -1.9512196, 16.2195129, -0.0386053
-0.8085938, -0.0854492, -0.2382812, -37.4390259, -1.2195122, 16.4634151, -0.0379339
-0.8183594, -0.0888672, -0.2045898, -35.1829262, 0.0609756, 16.2195129, -0.0392767
-0.8334961, -0.0981445, -0.125, -33.7195129, 0.4268293, 16.2195129, -0.0392767
-0.8442383, -0.1010742, -0.0976562, -31.5243912, 0.3658537, 14.3292685, -0.042298
-0.8598633, -0.0966797, -0.0766602, -30.3048782, 1.5853659, 13.1097565, -0.0412909
-0.8720703, -0.09375, -0.0947266, -29.0243912, 6.9512196, 11.7682934, -0.0433051
-0.8852539, -0.0869141, -0.1791992, -27.8048782, 10.6097565, 11.341464, -0.0392767
-0.8867188, -0.0766602, -0.2231445, -26.5853672, 16.1585369, 10.1829271, -0.0453193
-0.8916016, -0.0756836, -0.2553711, -26.3414631, 16.7073174, 9.5731707, -0.0433051
-0.8945312, -0.0776367, -0.237793, -25.6097565, 12.1951218, 7.3780489, -0.0419623
-0.8867188, -0.0761719, -0.1723633, -23.6585369, 7.9268293, 4.4512196, -0.0426337
-0.8725586, -0.0795898, -0.137207, -22.5, 8.6585369, 2.9268293, -0.0433051
-0.8696289, -0.0810547, -0.1328125, -20.1829281, 15.060976, 1.0365853, -0.0426337
-0.8686523, -0.0830078, -0.121582, -19.939024, 19.0853672, -0.1829268, -0.0396124
-0.8754883, -0.0878906, -0.1044922, -18.4756107, 22.1951218, -3.2926829, -0.0386053
-0.8876953, -0.1015625, -0.0786133, -17.6219521, 21.6463413, -4.6951222, -0.0406195
-0.8920898, -0.105957, -0.0673828, -14.4512196, 20.6097565, -7.3170733, -0.0419623
-0.8911133, -0.1176758, -0.0820312, -12.6219511, 21.4634151, -8.1707315, -0.0419623
-0.8813477, -0.121582, -0.105957, -9.7560978, 25.9146347, -9.5731707, -0.0412909
-0.8823242, -0.1176758, -0.15625, -8.2317076, 28.5365868, -10.2439022, -0.0419623
-0.8803711, -0.1191406, -0.1650391, -6.4024391, 30.3658543, -12.1951218, -0.0459907
-0.8876953, -0.1196289, -0.1513672, -2.9878049, 27.8048782, -14.0853662, -0.0453193
-0.8857422, -0.1186523, -0.1201172, -0.6097561, 26.8292694, -14.8170738, -0.0446479
-0.8862305, -0.1137695, -0.1152344, 3.7804878, 27.8048782, -15.7926836, -0.0426337
-0.8730469, -0.0976562, -0.1479492, 5.8536587, 30.1219521, -16.4024391, -0.0433051
-0.8691406, -0.0957031, -0.1723633, 7.8048782, 35.6097565, -17.5, -0.0459907
-0.8657227, -0.1025391, -0.2050781, 8.780488, 37.6829262, -18.3536587, -0.0386053
-0.8691406, -0.1088867, -0.2070312, 11.219512, 38.3536606, -19.8170738, -0.0372625
-0.8608398, -0.1118164, -0.1918945, 13.1097565, 37.6219521, -20.6097565, -0.0369268
-0.8579102, -0.1088867, -0.1835938, 16.280489, 35.9146347, -22.0731716, -0.0379339
-0.8422852, -0.09375, -0.1782227, 17.439024, 35.9146347, -22.7439022, -0.0399481
-0.8334961, -0.090332, -0.1777344, 17.8048782, 38.7195129, -23.6585369, -0.03122
-0.8134766, -0.0820312, -0.1762695, 17.6219521, 42.9878044, -25.8536587, -0.0352483
-0.7929688, -0.0874023, -0.1801758, 17.6219521, 44.3902435, -26.7682934, -0.0406195
-0.7871094, -0.0961914, -0.1879883, 18.780489, 46.0975609, -30.1829281, -0.0433051
-0.7758789, -0.1201172, -0.2084961, 19.3292694, 46.8292694, -31.7073174, -0.0446479
-0.7695312, -0.1293945, -0.2143555, 20.3658543, 48.2317085, -34.9390259, -0.0433051
-0.7631836, -0.1425781, -0.2172852, 20.6097565, 48.7804871, -35.8536606, -0.0453193
-0.7617188, -0.1503906, -0.2172852, 21.0975609, 50.3658562, -37.7439041, -0.0433051
-0.7558594, -0.1699219, -0.2045898, 21.9512196, 51.0975609, -38.2926826, -0.0406195
-0.7480469, -0.1762695, -0.206543, 24.1463413, 52.1951218, -40.0609779, -0.0392767
-0.7392578, -0.1787109, -0.2280273, 25.4878063, 53.7195129, -40.9146347, -0.0433051
-0.7294922, -0.1728516, -0.2490234, 27.0731716, 57.3170738, -42.4390259, -0.0412909
-0.7158203, -0.1601562, -0.2963867, 27.1341476, 61.5853691, -43.9024391, -0.0446479
-0.7099609, -0.1430664, -0.3227539, 26.7073174, 63.3536606, -44.6951218, -0.0419623
-0.7080078, -0.1416016, -0.3164062, 26.8902454, 64.5731735, -45.7926826, -0.0365911
-0.7084961, -0.1459961, -0.2700195, 27.8048782, 63.5975609, -46.7682953, -0.0379339
-0.7104492, -0.1484375, -0.2392578, 30.5487804, 59.9390259, -49.5121956, -0.0406195
-0.6958008, -0.1533203, -0.2138672, 32.0731697, 59.8170738, -50.4878044, -0.0419623
-0.6889648, -0.1474609, -0.2114258, 33.841465, 64.5121994, -52.5609779, -0.0406195
-0.6723633, -0.1674805, -0.2280273, 34.8780479, 68.4756088, -53.3536606, -0.0382696
-0.6679688, -0.1816406, -0.2368164, 37.1341476, 74.5731735, -55.3048782, -0.0386053
-0.6665039, -0.2216797, -0.2299805, 39.2073174, 75.6707306, -55.8536606, -0.0386053
-0.6635742, -0.2412109, -0.21875, 44.6951218, 72.2560959, -57.9268303, -0.0392767
-0.6621094, -0.28125, -0.1845703, 51.7682953, 68.4146347, -59.3902435, -0.0406195
-0.6430664, -0.3046875, -0.1762695, 56.0975609, 68.3536606, -59.5121956, -0.0352483
-0.6396484, -0.3007812, -0.1953125, 63.5365868, 72.9878082, -59.6341476, -0.0382696
-0.6181641, -0.2890625, -0.2792969, 67.0731735, 77.1341476, -58.841465, -0.0365911
-0.6113281, -0.2739258, -0.3354492, 70.9756088, 85.7926865, -58.2317085, -0.0399481
-0.5947266, -0.2480469, -0.4311523, 72.1341476, 88.7804871, -58.1707344, -0.0426337
-0.5820312, -0.2314453, -0.4648438, 72.5, 90.5487823, -57.9268303, -0.0406195
-0.5595703, -0.2021484, -0.4916992, 72.0121994, 89.5731735, -58.4756126, -0.0419623
-0.5551758, -0.1860352, -0.4833984, 70.3048782, 87.5609741, -60.1219521, -0.0473335
-0.5209961, -0.1757812, -0.4228516, 68.5975647, 85.7317123, -63.4756126, -0.0419623
-0.503418, -0.1791992, -0.3852539, 68.1707306, 85.3658524, -65.4268341, -0.0449836
-0.4765625, -0.2070312, -0.315918, 68.1097565, 86.4634171, -69.6951218, -0.0433051
-0.4599609, -0.2553711, -0.2734375, 68.4756088, 88.1707306, -71.6463394, -0.0406195
-0.4560547, -0.2802734, -0.2773438, 71.4634171, 94.3902435, -73.6585388, -0.0443122
-0.4521484, -0.3393555, -0.3041992, 73.8414688, 97.2561035, -73.9634171, -0.0419623
-0.4536133, -0.3652344, -0.3237305, 79.146347, 100.5487823, -74.0243912, -0.0433051
-0.4541016, -0.394043, -0.3305664, 80.8536606, 99.8170776, -74.5121994, -0.0459907
-0.4570312, -0.3964844, -0.3173828, 83.0487823, 96.4634171, -75.6097565, -0.0392767
-0.4467773, -0.3837891, -0.2817383, 83.4146347, 95.7317123, -76.3414688, -0.0386053
-0.4350586, -0.3789062, -0.2792969, 86.2195129, 97.68293, -78.9024429, -0.0379339
-0.4086914, -0.3828125, -0.2749023, 89.5121994, 101.0365906, -83.2926865, -0.0359197
-0.3955078, -0.387207, -0.2866211, 90.9756088, 101.8902435, -86.0975647, -0.0339055
-0.3745117, -0.3969727, -0.3286133, 92.68293, 102.6219559, -92.0121994, -0.0365911
-0.3676758, -0.4023438, -0.371582, 93.1707306, 103.2926865, -94.5731735, -0.0342412
-0.3725586, -0.4023438, -0.3842773, 94.3292694, 105.6707306, -97.8658524, -0.0339055
-0.3793945, -0.402832, -0.3857422, 95.5487823, 107.2561035, -98.2317123, -0.0345769
-0.3779297, -0.3920898, -0.3920898, 100.1219559, 110.4268341, -97.5609741, -0.0392767
-0.3642578, -0.3413086, -0.4492188, 102.5609818, 113.1097565, -96.646347, -0.0379339
-0.3583984, -0.3081055, -0.5073242, 105.6707306, 123.0487823, -94.2682953, -0.0426337
-0.3515625, -0.2333984, -0.6220703, 105.4268341, 129.2682953, -92.8658524, -0.0433051
-0.347168, -0.206543, -0.6523438, 103.0487823, 138.6585388, -90.6097565, -0.0392767
-0.3227539, -0.1835938, -0.6533203, 99.3292694, 138.1707306, -91.8902435, -0.0399481
-0.3056641, -0.1938477, -0.6171875, 98.2317123, 135.4878082, -94.0853653, -0.0399481
-0.2822266, -0.2451172, -0.519043, 96.7073212, 131.2195129, -99.3902435, -0.0359197
-0.2705078, -0.3017578, -0.4262695, 96.7682953, 132.3780518, -101.0365906, -0.0332341
-0.2729492, -0.3320312, -0.402832, 97.9268341, 140.4268341, -102.0731735, -0.0365911
-0.2802734, -0.3867188, -0.4052734, 99.0853653, 146.4634247, -101.646347, -0.03122
-0.2954102, -0.3964844, -0.4111328, 100.18293, 156.1585388, -98.5975647, -0.03122
-0.3325195, -0.3959961, -0.3979492, 100.3658524, 158.5975647, -96.646347, -0.03122
-0.3476562, -0.3813477, -0.3891602, 102.1951218, 159.4512177, -92.5, -0.0298772
-0.3417969, -0.3530273, -0.4111328, 104.146347, 159.8780518, -90.7926865, -0.0325628
-0.3300781, -0.3486328, -0.4423828, 107.8658524, 162.1341553, -89.146347, -0.0352483
-0.300293, -0.371582, -0.4960938, 109.4512253, 162.9878082, -91.4634171, -0.0345769
-0.2851562, -0.3969727, -0.4956055, 109.0243912, 161.2804871, -94.0853653, -0.0325628
-0.2714844, -0.453125, -0.4628906, 108.2317123, 155.9146423, -101.0975647, -0.0399481
-0.2568359, -0.5087891, -0.4501953, 108.9024429, 154.8170776, -103.9634171, -0.0365911
-0.2509766, -0.5361328, -0.46875, 111.4634171, 158.4756165, -108.2317123, -0.0365911
-0.2402344, -0.5673828, -0.5332031, 112.86586, 161.8292694, -109.0243912, -0.0352483
-0.2451172, -0.5800781, -0.559082, 114.8780518, 166.646347, -109.6951218, -0.0386053
-0.269043, -0.5786133, -0.5483398, 114.6951218, 165.9146423, -109.5121994, -0.0433051
-0.2768555, -0.5668945, -0.5263672, 113.1097565, 160.1219482, -108.4756088, -0.0439765
-0.2802734, -0.5097656, -0.4970703, 112.3780518, 158.2926941, -107.1341476, -0.0439765
-0.2773438, -0.4741211, -0.4946289, 111.0365906, 162.4390259, -104.6341476, -0.0433051
-0.2763672, -0.4228516, -0.4970703, 111.7073212, 168.0487823, -104.3902435, -0.0439765
-0.2768555, -0.4111328, -0.4873047, 111.646347, 167.9268341, -105.6707306, -0.0486763
-0.2807617, -0.3891602, -0.4707031, 110.6097565, 163.7804871, -110.0609818, -0.0459907
-0.2612305, -0.3725586, -0.5541992, 109.4512253, 163.7804871, -112.0121994, -0.0412909
-0.2402344, -0.3662109, -0.6347656, 105, 172.0731812, -114.9390259, -0.0433051
-0.1850586, -0.3735352, -0.8344727, 101.8292694, 179.4512177, -116.0975647, -0.0406195
-0.1630859, -0.390625, -0.918457, 94.2073212, 191.2195129, -118.5365906, -0.0392767
-0.1079102, -0.4541016, -0.9951172, 90.6707306, 192.4390259, -120.6707382, -0.0426337
-0.0864258, -0.4960938, -0.9814453, 85.3048782, 184.8170776, -126.0365906, -0.0433051
-0.0678711, -0.5737305, -0.8447266, 83.5365906, 177.4390259, -128.5365906, -0.0439765
-0.0678711, -0.609375, -0.7495117, 82.1951218, 165.36586, -130.8536682, -0.0446479
-0.0820312, -0.6577148, -0.5893555, 86.7682953, 170.36586, -127.0121994, -0.0463264
-0.0927734, -0.6689453, -0.5395508, 91.8292694, 179.146347, -123.2317123, -0.0449836
-0.1416016, -0.6806641, -0.4916992, 104.4512253, 196.1585388, -113.9024429, -0.0473335
-0.2172852, -0.6674805, -0.4619141, 111.2195129, 199.5731812, -109.5121994, -0.0506905
-0.2470703, -0.6464844, -0.4521484, 121.7682953, 194.8780518, -103.1097565, -0.0446479
-0.2592773, -0.5878906, -0.4951172, 125.7926865, 190.8536682, -101.2804871, -0.0459907
-0.2407227, -0.5605469, -0.5429688, 129.0853729, 187.86586, -101.2195129, -0.0500191
-0.1704102, -0.5478516, -0.6650391, 128.4756165, 188.0487823, -103.1097565, -0.0459907
-0.1313477, -0.5581055, -0.7241211, 121.1585388, 187.8048859, -110.9146347, -0.0486763
-0.0600586, -0.5913086, -0.8164062, 116.5243912, 186.9512177, -115.7926865, -0.0473335
-0.027832, -0.6132812, -0.8515625, 108.2926865, 183.0487823, -125.4878082, -0.0513619
0.0087891, -0.6723633, -0.8535156, 103.2317123, 177.1951294, -132.1341553, -0.0506905
0.015625, -0.6992188, -0.8076172, 101.4634171, 172.6829376, -132.9878082, -0.0486763
-0.0112305, -0.7290039, -0.6210938, 100.1219559, 161.0365906, -129.6341553, -0.0473335
-0.0205078, -0.7011719, -0.4379883, 100.1219559, 156.9512177, -125.9146347, -0.0493477
0.0014648, -0.6787109, -0.4345703, 103.2926865, 162.6219482, -116.2804871, -0.0500191
0.0644531, -0.6108398, -0.6601562, 104.9390259, 174.2682953, -112.0121994, -0.0486763
0.0888672, -0.5834961, -0.8208008, 105, 200.8536682, -106.0975647, -0.0540475
0.1030273, -0.5678711, -1.0488281, 101.7682953, 207.3780518, -106.0975647, -0.0530404
0.0898438, -0.5844727, -1.0595703, 90.9146347, 194.6951294, -112.8048782, -0.0506905
0.0478516, -0.6640625, -0.8945312, 85.3048782, 177.4390259, -118.1097565, -0.0560616
0.0424805, -0.7124023, -0.7563477, 78.9634171, 141.7073212, -127.86586, -0.0533761
0.0625, -0.7978516, -0.5258789, 83.3536606, 130.6097565, -132.5, -0.0500191
0.0786133, -0.8369141, -0.4731445, 89.146347, 138.0487823, -132.5609741, -0.0533761
0.1181641, -0.8916016, -0.5039062, 105.3658524, 163.9634247, -129.0853729, -0.0500191
0.1201172, -0.9155273, -0.6503906, 113.1097565, 175, -126.5243912, -0.0500191
0.1206055, -0.9165039, -0.7504883, 123.5975647, 181.8292694, -122.7439041, -0.0540475
0.1484375, -0.8994141, -0.9624023, 125.8536606, 179.0853729, -121.0365906, -0.0540475
0.1645508, -0.894043, -1.0361328, 126.2804871, 170.0609741, -118.1707382, -0.0547189
0.1772461, -0.9125977, -0.9995117, 125.6097565, 164.146347, -116.9512253, -0.0500191
0.1660156, -0.9345703, -0.8686523, 125.3048782, 143.9634247, -115.4878082, -0.0480049
0.1401367, -0.9521484, -0.5283203, 127.2561035, 131.4024353, -114.4512253, -0.0486763
0.1621094, -0.9345703, -0.4189453, 134.8170776, 119.2682953, -112.6219559, -0.0500191
0.2373047, -0.8447266, -0.4804688, 142.5609741, 144.3902435, -110.4268341, -0.0530404
0.2651367, -0.7509766, -0.7734375, 145, 165.4878082, -109.9390259, -0.0476692
0.2426758, -0.734375, -0.8891602, 143.6585388, 189.7561035, -111.2804871, -0.0493477
0.1621094, -0.7680664, -0.9316406, 139.6341553, 183.5365906, -113.4756088, -0.0493477
0.1464844, -0.7993164, -0.8808594, 129.4512177, 143.8414612, -119.6951218, -0.0459907
0.1835938, -0.8510742, -0.7666016, 125.4268341, 123.0487823, -122.1951218, -0.0486763
0.2270508, -0.8686523, -0.7329102, 121.646347, 109.0243912, -125.9146347, -0.0486763
0.2924805, -0.9116211, -0.6821289, 121.2195129, 115.4878082, -126.9512253, -0.0500191
0.2885742, -0.9345703, -0.6362305, 122.5, 133.7195129, -127.3780518, -0.0486763
0.2387695, -0.9711914, -0.5161133, 123.4146347, 136.7682953, -127.5, -0.0540475
0.2226562, -0.9726562, -0.4794922, 126.1585388, 129.0853729, -128.0487823, -0.0527047
0.2495117, -0.9604492, -0.5629883, 128.4756165, 124.5731735, -128.7195129, -0.0493477
0.3139648, -0.9521484, -0.8198242, 128.5975647, 129.0243988, -129.7561035, -0.0476692
0.3320312, -0.965332, -0.9287109, 124.2073212, 141.646347, -132.5609741, -0.0466621
0.3017578, -1.0327148, -0.9443359, 120.18293, 140.8536682, -135.1219482, -0.0513619
0.2719727, -1.0722656, -0.8408203, 112.3170776, 116.2195129, -140.1829376, -0.0486763
0.2392578, -1.1396484, -0.5571289, 111.5853653, 98.6585388, -141.8292694, -0.0486763
0.2543945, -1.1601562, -0.4521484, 118.8414688, 77.9268341, -141.9512177, -0.0500191
0.3154297, -1.1660156, -0.3935547, 126.2195129, 80.8536606, -140.6097565, -0.0480049
0.3310547, -1.1557617, -0.4282227, 142.9268341, 106.0365906, -136.9512177, -0.0459907
0.3393555, -1.1040039, -0.5678711, 150.4268341, 119.4512253, -135.7926788, -0.0439765
0.3271484, -1.074707, -0.6381836, 158.1707306, 129.3902435, -135.2439117, -0.0426337
0.3012695, -1.0107422, -0.7402344, 156.646347, 116.7682953, -136.8292694, -0.042298
0.3369141, -0.9589844, -0.8374023, 153.5365906, 108.3536606, -138.2317047, -0.0459907
0.3696289, -0.9418945, -0.9042969, 143.9634247, 101.4024429, -140.7317047, -0.0473335
0.4526367, -0.956543, -1.0639648, 137.0121918, 104.3292694, -142.1951294, -0.0473335
0.4731445, -0.9682617, -1.1040039, 119.4512253, 113.8414688, -145.0609741, -0.0493477
0.4619141, -0.9897461, -1.0166016, 110.0609818, 115.4268341, -145.9146423, -0.0459907
0.4360352, -0.9995117, -0.8813477, 94.5121994, 103.9024429, -146.3414612, -0.0459907
0.3955078, -1.0029297, -0.5380859, 90.1219559, 93.7195129, -144.9390259, -0.0446479
0.3969727, -0.9936523, -0.3979492, 92.0121994, 81.3414688, -140.8536682, -0.0473335
0.4389648, -0.9423828, -0.3120117, 97.4390259, 85.0609741, -138.1097565, -0.0439765
0.453125, -0.9169922, -0.3696289, 112.3170776, 109.0243912, -134.3902435, -0.0459907
0.4453125, -0.8740234, -0.565918, 121.7682953, 129.3902435, -134.6341553, -0.0446479
0.3725586, -0.875, -0.6655273, 121.9512253, 128.6585388, -135.9146423, -0.0433051
0.3417969, -0.8935547, -0.6435547, 113.3536606, 103.8414688, -139.8170776, -0.0459907
0.3413086, -0.9482422, -0.5454102, 107.8658524, 87.2560959, -141.5243988, -0.0466621
0.3798828, -0.9785156, -0.5102539, 101.7073212, 68.6585388, -143.7804871, -0.0453193
0.4682617, -1.0571289, -0.4951172, 102.3780518, 70.0609741, -144.5121918, -0.0439765
0.4985352, -1.0854492, -0.5058594, 108.9024429, 84.5731735, -146.4024353, -0.0433051
0.5083008, -1.1337891, -0.5161133, 112.86586, 90, -147.1341553, -0.0449836
0.503418, -1.1523438, -0.5043945, 120, 87.6219559, -148.5365906, -0.0459907
0.4946289, -1.1689453, -0.4614258, 122.9878082, 81.7682953, -148.5975647, -0.0446479
0.4941406, -1.1748047, -0.4233398, 129.8780518, 69.2073212, -147.7439117, -0.0433051
0.4980469, -1.171875, -0.3178711, 137.86586, 61.9512215, -145.9756165, -0.0459907
0.5219727, -1.1367188, -0.2719727, 141.646347, 61.9512215, -144.8780518, -0.0453193
0.5473633, -1.1064453, -0.3125, 148.7195129, 70.0609741, -145.7926788, -0.0473335
0.5888672, -1.043457, -0.5444336, 151.5243988, 78.2317123, -147.5609741, -0.0463264
0.5957031, -1.0249023, -0.6850586, 151.4024353, 91.0975647, -152.3170776, -0.0436408
0.5595703, -1.0351562, -0.8666992, 147.1951294, 91.5853653, -154.6341553, -0.0466621
0.5385742, -1.0527344, -0.8798828, 131.4634247, 75.7317123, -157.1341553, -0.0459907
0.5341797, -1.0922852, -0.7695312, 123.1097565, 63.4146347, -157.6219482, -0.0409552
0.5493164, -1.1074219, -0.6904297, 109.9390259, 46.7682953, -157.0121918, -0.0392767
0.5922852, -1.1181641, -0.5532227, 107.3170776, 47.0121956, -155.9146423, -0.0459907
0.609375, -1.1040039, -0.5185547, 108.0487823, 61.8292694, -153.6585388, -0.0412909
0.6186523, -1.059082, -0.5263672, 112.7439041, 78.9634171, -152.3170776, -0.0473335
0.5961914, -0.9912109, -0.5761719, 114.0243912, 83.3536606, -151.9512177, -0.0486763
0.574707, -0.9570312, -0.59375, 111.5243912, 81.4634171, -152.1341553, -0.0433051
0.5351562, -0.9047852, -0.5629883, 108.4756088, 76.4024429, -152.0121918, -0.0419623
0.5249023, -0.8896484, -0.5219727, 101.7682953, 65.18293, -151.5853729, -0.0392767
0.5234375, -0.8881836, -0.4306641, 98.2317123, 61.2195129, -151.2804871, -0.0406195
0.5327148, -0.902832, -0.4067383, 92.1341476, 59.8170738, -151.1585388, -0.0419623
0.5561523, -0.9467773, -0.3994141, 89.3292694, 61.8292694, -151.4024353, -0.0379339
0.5595703, -0.9770508, -0.3989258, 84.146347, 65.4268341, -153.3536682, -0.0396124
0.5717773, -1.0473633, -0.3579102, 81.646347, 64.0853653, -154.9390259, -0.0392767
0.5708008, -1.0786133, -0.3251953, 80.4878082, 55.6707344, -158.5975647, -0.0392767
0.578125, -1.1293945, -0.2568359, 83.9024429, 46.1585388, -161.646347, -0.0419623
0.6044922, -1.1875, -0.2446289, 87.2560959, 44.3902435, -162.86586, -0.0406195
0.6196289, -1.2124023, -0.2666016, 96.5853653, 46.341465, -164.0243988, -0.0379339
0.6328125, -1.262207, -0.3266602, 101.0365906, 48.4756126, -164.6951294, -0.0372625
0.6313477, -1.277832, -0.3481445, 107.5, 49.0853653, -164.8780518, -0.0399481
0.6420898, -1.2768555, -0.3540039, 109.6341476, 46.8902435, -164.2682953, -0.0406195
0.6499023, -1.2617188, -0.3540039, 113.9634171, 40.1829262, -162.3780518, -0.0433051
0.6987305, -1.2016602, -0.394043, 116.4634171, 38.7804871, -161.1585388, -0.0433051
0.7226562, -1.1625977, -0.4331055, 122.2561035, 43.7804871, -159.0853729, -0.0476692
0.737793, -1.0683594, -0.4951172, 126.8902435, 51.7073174, -156.9512177, -0.0486763
0.7304688, -1.0151367, -0.5048828, 127.86586, 52.6829262, -155.9756165, -0.049012
0.7006836, -0.9077148, -0.4707031, 125.6097565, 47.5609779, -154.5121918, -0.0459907
0.6899414, -0.8120117, -0.421875, 121.3414688, 43.6585388, -153.8414612, -0.0419623
0.6845703, -0.7670898, -0.3901367, 109.5121994, 40.6097565, -152.0121918, -0.0439765
0.6806641, -0.7021484, -0.3452148, 104.146347, 41.9512215, -151.0365906, -0.0439765
0.6826172, -0.6860352, -0.3393555, 96.4634171, 46.0365868, -150.36586, -0.0419623
0.675293, -0.7197266, -0.3725586, 93.2317123, 46.8292694, -150.4878082, -0.0459907
0.6694336, -0.7573242, -0.3994141, 83.7804871, 43.1097565, -150.9146423, -0.0433051
0.6699219, -0.8666992, -0.4208984, 77.1341476, 38.9634171, -151.0975647, -0.0433051
0.6748047, -0.9360352, -0.4018555, 63.3536606, 29.5731716, -151.9512177, -0.0433051
0.6870117, -1.0673828, -0.3359375, 54.0853653, 23.0487804, -152.1341553, -0.0480049
0.6992188, -1.1279297, -0.2875977, 52.6829262, 21.2195129, -152.1341553, -0.0473335
0.7373047, -1.2236328, -0.1982422, 55.4268303, 20.4878044, -152.5, -0.0513619
0.7519531, -1.2719727, -0.1279297, 58.7195129, 20.4878044, -153.1707306, -0.0466621
0.7573242, -1.2827148, -0.0893555, 65.9146347, 18.8414631, -153.4756165, -0.0466621
0.7558594, -1.2661133, -0.0234375, 69.4512177, 17.3170738, -153.1707306, -0.0459907
0.7636719, -1.2407227, -0.0063477, 77.6219559, 14.3902445, -151.7682953, -0.0493477
0.7895508, -1.1694336, -0.0390625, 82.68293, 14.6341467, -150.7926788, -0.0459907
0.7973633, -1.1225586, -0.0800781, 92.7439041, 18.4756107, -150.4878082, -0.042298
0.7978516, -1.0317383, -0.1860352, 96.1585388, 20.2439022, -150.9756165, -0.0446479
0.7973633, -0.9873047, -0.2368164, 96.5853653, 20.3658543, -152.4390259, -0.0392767
0.7827148, -0.9257812, -0.3339844, 90.1219559, 16.2195129, -153.6585388, -0.0369268
0.7734375, -0.9047852, -0.3686523, 85.2439041, 13.7195129, -154.0243988, -0.0365911
0.7583008, -0.8955078, -0.3706055, 74.4512177, 8.1097565, -153.9024353, -0.0382696
0.7456055, -0.9116211, -0.3110352, 69.9390259, 4.9390244, -153.1707306, -0.0372625
0.7504883, -0.9213867, -0.2802734, 63.7195129, 0.8536586, -151.0365906, -0.0352483
0.7739258, -0.9257812, -0.2680664, 62.7439041, 1.402439, -150.1219482, -0.0352483
0.7871094, -0.9165039, -0.2900391, 65.8536606, 9.2073174, -148.8414612, -0.0379339
0.7900391, -0.8950195, -0.378418, 68.4756088, 14.1463413, -148.2317047, -0.0412909
0.7856445, -0.8823242, -0.4238281, 72.8658524, 20.7317085, -147.1341553, -0.042298
0.7563477, -0.8554688, -0.4731445, 73.0487823, 20.9756107, -146.0975647, -0.0419623
0.7485352, -0.8574219, -0.4716797, 68.4756088, 14.8170738, -143.6585388, -0.0406195
0.7451172, -0.8813477, -0.4047852, 59.5121956, 6.7073174, -140.2439117, -0.0392767
0.7504883, -0.8974609, -0.3549805, 55.3048782, 4.2682929, -138.5975647, -0.0365911
0.7763672, -0.9428711, -0.230957, 50.7317085, 3.2317073, -136.7682953, -0.0382696
0.8007812, -0.9819336, -0.1303711, 50.3658562, 3.9024391, -136.2195129, -0.0359197
0.8149414, -0.9941406, -0.0991211, 52.5609779, 6.7073174, -136.2804871, -0.0365911
0.8378906, -0.9956055, -0.0756836, 54.3902435, 8.0487804, -137.1341553, -0.042298
0.8417969, -0.9897461, -0.0761719, 58.841465, 10.1829271, -139.2682953, -0.0446479
0.8398438, -0.9604492, -0.0922852, 60.6097565, 10.6707315, -140.1219482, -0.0459907
0.8344727, -0.9433594, -0.0942383, 61.2195129, 9.2073174, -140.3048859, -0.049012
0.8168945, -0.8989258, -0.0654297, 60.7926826, 7.1341467, -140, -0.0453193
0.8071289, -0.8803711, -0.0361328, 59.2682953, 2.3170731, -137.9878082, -0.0466621
0.7993164, -0.8505859, 0.0327148, 58.7195129, -3.2926829, -135.6707306, -0.0446479
0.8012695, -0.8413086, 0.0629883, 59.6341476, -5.2439027, -134.7561035, -0.0386053
0.8120117, -0.8300781, 0.0541992, 63.1707344, -6.4634147, -134.2073212, -0.0369268
0.8173828, -0.8198242, -0.0336914, 65.1219559, -5.609756, -134.6951294, -0.0379339
0.815918, -0.8193359, -0.0922852, 66.4634171, -3.5365853, -137.0121918, -0.0419623
0.7880859, -0.8291016, -0.1835938, 65.3658524, -3.9024391, -138.0487823, -0.0446479
0.7729492, -0.840332, -0.1972656, 58.4756126, -8.9634151, -139.5731812, -0.0433051
0.753418, -0.8837891, -0.1743164, 53.6585388, -13.6585369, -139.8170776, -0.0453193
0.7587891, -0.9111328, -0.1523438, 46.341465, -21.7073174, -139.5121918, -0.0453193
0.8032227, -0.9599609, -0.1342773, 44.5731735, -23.9634151, -139.2073212, -0.0473335
0.8261719, -0.9819336, -0.1484375, 44.0243912, -22.0121956, -139.6951294, -0.049012
0.8632812, -0.9902344, -0.2094727, 45.6707344, -16.0365849, -140.8536682, -0.0469978
0.8701172, -0.9912109, -0.2382812, 46.2195129, -13.7195129, -141.0975647, -0.0527047
0.8706055, -0.9594727, -0.2407227, 46.2195129, -13.4146347, -140.0609741, -0.0527047
0.878418, -0.9179688, -0.1894531, 46.1585388, -15.3658543, -138.8414612, -0.0473335
0.8813477, -0.8920898, -0.1523438, 47.3170738, -19.3292694, -135.9146423, -0.0500191
0.9023438, -0.8461914, -0.0932617, 48.3536606, -19.6951218, -134.3902435, -0.0513619
0.9057617, -0.8227539, -0.0737305, 50.3658562, -17.1341476, -132.3170776, -0.0459907
0.9042969, -0.7695312, -0.0478516, 50.7926826, -14.5121956, -132.0731812, -0.0466621
0.8964844, -0.734375, -0.0424805, 51.6463432, -10.5487804, -132.0731812, -0.0463264
0.859375, -0.6630859, -0.0263672, 52.1341476, -10.1219511, -132.1341553, -0.0459907
0.8408203, -0.6269531, -0.0161133, 54.1463432, -11.8292685, -132.4390259, -0.0513619
0.8095703, -0.5820312, -0.0332031, 55.1219521, -14.2073174, -131.8292694, -0.0520333
0.7973633, -0.5756836, -0.0541992, 54.3902435, -14.9390249, -131.5853729, -0.0473335
0.7724609, -0.5820312, -0.1025391, 50.4268303, -15.7926836, -130.7926788, -0.0453193
0.7539062, -0.6313477, -0.1166992, 47.3170738, -16.8292694, -130.7317047, -0.0459907
0.7475586, -0.6591797, -0.1064453, 40.3658562, -20.2439022, -130.3048859, -0.0463264
0.7431641, -0.6972656, -0.0678711, 38.3536606, -21.7682934, -130.36586, -0.0513619
0.7490234, -0.7138672, -0.0415039, 38.2926826, -23.9634151, -129.5731812, -0.0516976
0.7714844, -0.7207031, -0.0117188, 40.1219521, -24.3292694, -129.0243988, -0.0486763
0.7866211, -0.7158203, -0.012207, 45.0609779, -23.1097565, -127.9268341, -0.0513619
0.8173828, -0.6982422, -0.0356445, 47.8658562, -22.2560978, -127.3170776, -0.0513619
0.8266602, -0.6894531, -0.0483398, 51.6463432, -20.6707325, -126.2195129, -0.0473335
0.8520508, -0.6655273, -0.0708008, 51.7682953, -21.280489, -125.1219559, -0.0459907
0.8637695, -0.6635742, -0.0751953, 51.0365868, -21.9512196, -124.5121994, -0.0473335
0.8916016, -0.6420898, -0.0751953, 48.841465, -22.1341476, -123.7804871, -0.0459907
0.9189453, -0.628418, -0.0722656, 48.841465, -21.8292694, -123.7195129, -0.0392767
0.9228516, -0.6201172, -0.074707, 50.0609779, -20.7317085, -124.0853653, -0.0365911
0.9414062, -0.6196289, -0.0893555, 50.6097565, -20.1219521, -124.3292694, -0.0426337
0.9399414, -0.625, -0.1020508, 50.9756126, -19.0243912, -125.8536606, -0.0439765
0.9311523, -0.6445312, -0.1166992, 50.3048782, -18.4146347, -126.5853653, -0.0446479
0.9257812, -0.6606445, -0.1171875, 47.7439041, -17.9878044, -128.4146423, -0.0406195
0.9130859, -0.7021484, -0.090332, 46.1585388, -18.2317085, -128.4756165, -0.0433051
0.9047852, -0.7260742, -0.0761719, 44.3902435, -19.0243912, -129.6951294, -0.0379339
0.8818359, -0.7626953, -0.0283203, 44.1463432, -20.6707325, -130.2439117, -0.0342412
0.8676758, -0.7841797, 0.0180664, 44.2682953, -21.4634151, -130.4878082, -0.0285344
0.8681641, -0.7880859, 0.0288086, 46.1585388, -21.1585369, -130.4878082, -0.0332341
0.8706055, -0.7675781, 0.0249023, 48.2926826, -20.3048782, -130, -0.0365911
0.8710938, -0.7436523, 0.0073242, 54.1463432, -16.5243912, -129.146347, -0.0365911
0.8808594, -0.6875, -0.0341797, 56.8292694, -15.5487804, -128.4146423, -0.0365911
0.8842773, -0.6533203, -0.0571289, 60.18293, -15, -126.7682953, -0.0379339
0.9106445, -0.5751953, -0.1074219, 60.5487823, -15.2439032, -125.6707382, -0.0419623
0.921875, -0.5361328, -0.1342773, 58.1097565, -13.841464, -123.3536606, -0.0426337
0.940918, -0.4414062, -0.1621094, 56.6463432, -12.0731707, -121.7073212, -0.0379339
0.9433594, -0.3911133, -0.1762695, 54.0853653, -7.9878049, -118.5365906, -0.0433051
0.9414062, -0.3085938, -0.1816406, 51.2804909, -7.4390244, -115.18293, -0.0419623
0.9355469, -0.2680664, -0.1625977, 48.3536606, -8.1707315, -113.6585388, -0.0412909
0.9262695, -0.2646484, -0.1513672, 39.9390259, -10.6707315, -111.1585388, -0.0433051
0.925293, -0.2998047, -0.1303711, 34.6341476, -11.4634151, -110.7317123, -0.0446479
0.9243164, -0.3300781, -0.1230469, 24.8780499, -10.2439022, -110.36586, -0.0433051
0.9042969, -0.4121094, -0.1147461, 21.2195129, -9.0853662, -111.1585388, -0.0433051
0.8945312, -0.4453125, -0.1152344, 17.9878044, -7.0731707, -112.6219559, -0.0449836
0.8676758, -0.5195312, -0.0976562, 17.3170738, -7.3170733, -113.0487823, -0.0419623
0.8637695, -0.5527344, -0.0859375, 16.7682934, -9.9390249, -112.8048782, -0.0439765
0.8671875, -0.5844727, -0.0566406, 16.280489, -11.8292685, -112.1341476, -0.0433051
0.878418, -0.5908203, -0.0366211, 15.9146347, -12.4390249, -109.6341476, -0.0369268
0.9165039, -0.5844727, -0.0092773, 18.2317085, -10.060976, -105.5487823, -0.0352483
0.9511719, -0.5561523, -0.0009766, 20.2439022, -8.5365858, -103.7804871, -0.0379339
0.9677734, -0.5410156, -0.0053711, 24.5731716, -7.2560978, -100.9756088, -0.0386053
1.0029297, -0.5170898, -0.015625, 26.1585369, -7.4390244, -99.9390259, -0.0365911
1.012207, -0.5039062, -0.0195312, 27.2560978, -9.3292685, -98.5975647, -0.0372625
1.0292969, -0.4941406, -0.0048828, 26.6463413, -10.7926836, -98.4146347, -0.0379339
1.0307617, -0.4916992, 0.0146484, 25.2439022, -13.4756098, -97.68293, -0.0339055
1.0263672, -0.4907227, 0.0874023, 24.3292694, -14.8780489, -97.1341476, -0.0352483
1.0214844, -0.4946289, 0.1220703, 23.5975609, -17.0731716, -95.8536606, -0.0365911
1.0224609, -0.5092773, 0.1630859, 23.9024391, -17.6219521, -95.2439041, -0.0382696
1.0263672, -0.515625, 0.1635742, 26.5853672, -17.1341476, -93.4146347, -0.0379339
1.03125, -0.5273438, 0.1308594, 29.8780499, -16.8292694, -92.3780518, -0.0386053
1.0239258, -0.5209961, 0.0756836, 30.8536587, -17.0121956, -91.7682953, -0.0345769
1.0224609, -0.519043, 0.0537109, 29.7560978, -18.7195129, -90.2439041, -0.0339055
1.019043, -0.4975586, 0.0317383, 28.1097565, -19.2682934, -88.9634171, -0.0386053
1.0131836, -0.4848633, 0.0283203, 25.2439022, -20.3048782, -85.4878082, -0.0406195
1.0175781, -0.4511719, 0.0209961, 24.8780499, -20.7926826, -83.1707306, -0.0439765
1.0239258, -0.4360352, 0.0151367, 24.9390259, -21.7073174, -79.0243912, -0.0439765
1.0341797, -0.4077148, -0.019043, 24.8780499, -22.1951218, -77.1951218, -0.0439765
1.0371094, -0.3950195, -0.0327148, 23.5365868, -22.560976, -74.5731735, -0.0406195
1.0390625, -0.3735352, -0.043457, 21.8292694, -22.3780499, -73.0487823, -0.0406195
1.0327148, -0.3618164, -0.0444336, 18.780489, -22.0121956, -71.0365906, -0.0406195
1.0229492, -0.3413086, -0.0424805, 17.5, -21.2195129, -68.6585388, -0.0379339
1.0048828, -0.3168945, -0.043457, 17.3780499, -20.9146347, -67.5609741, -0.0369268
0.9946289, -0.3095703, -0.0439453, 17.0121956, -20.6097565, -65.7317123, -0.0399481
0.9711914, -0.3027344, -0.0615234, 16.0975609, -20.7926826, -64.8780518, -0.0396124
0.9667969, -0.3100586, -0.0727539, 13.6585369, -21.5853672, -63.1097565, -0.042298
0.9658203, -0.3266602, -0.0961914, 12.1951218, -21.4634151, -62.2560997, -0.0419623
0.9614258, -0.3369141, -0.1025391, 9.5121956, -21.5853672, -60.7317085, -0.0379339
0.9731445, -0.3564453, -0.0991211, 8.4756098, -22.1341476, -60.0609779, -0.038941
0.9750977, -0.3696289, -0.0878906, 7.3780489, -24.4512196, -57.8048782, -0.0439765
0.9873047, -0.3833008, -0.0454102, 7.3780489, -25.7926826, -56.5243912, -0.0392767
0.9951172, -0.3833008, -0.0136719, 5.5487804, -27.7439022, -53.2926826, -0.0386053
1.0131836, -0.3774414, 0.0595703, 4.8780489, -26.5853672, -49.0243912, -0.0446479
1.0327148, -0.3554688, 0.0952148, 5.5487804, -24.4512196, -46.9512215, -0.0449836
1.0424805, -0.3364258, 0.0864258, 9.3292685, -19.1463413, -43.1097565, -0.0459907
1.0478516, -0.293457, 0.0341797, 11.0975609, -16.4024391, -41.6463432, -0.0466621
1.0390625, -0.2768555, -0.0024414, 12.9878054, -13.5365858, -40.6707344, -0.0433051
1.0180664, -0.2646484, -0.0493164, 11.6463413, -13.841464, -40.1829262, -0.0433051
1, -0.2709961, -0.0654297, 5.609756, -16.7682934, -39.5731735, -0.0419623
0.9853516, -0.3007812, -0.0576172, 1.8292683, -18.2926826, -39.0853653, -0.0392767
0.9814453, -0.3251953, -0.0478516, -4.3292685, -20.3048782, -37.9878044, -0.0409552
0.9775391, -0.3759766, -0.0268555, -6.280488, -20.3048782, -37.5609779, -0.0476692
0.9799805, -0.4003906, -0.0219727, -7.6219516, -19.939024, -37.0121956, -0.0500191
0.9902344, -0.4355469, -0.0087891, -7.9268293, -20.1219521, -36.7073174, -0.0463264
1.003418, -0.4594727, 0, -7.9268293, -20.3658543, -36.6463432, -0.0426337
1.0161133, -0.4633789, 0.0107422, -7.6829271, -20.9756107, -35.5487823, -0.0392767
1.0332031, -0.4594727, 0.03125, -7.5, -20.7317085, -34.6951218, -0.0419623
1.0405273, -0.4492188, 0.0371094, -5.7317076, -19.6341476, -32.4390259, -0.0406195
1.0610352, -0.4272461, 0.0292969, -4.8170733, -18.9024391, -31.280489, -0.0399481
1.0712891, -0.4082031, 0.0166016, -2.195122, -16.7682934, -29.2073174, -0.0412909
1.0717773, -0.3740234, -0.0229492, -0.8536586, -15.6707325, -28.9024391, -0.0379339
1.0654297, -0.3574219, -0.0361328, 0.3658537, -14.1463413, -28.1707325, -0.0369268
1.0483398, -0.3374023, -0.0541992, -0.3048781, -14.3292685, -27.4390259, -0.0409552
1.0297852, -0.3286133, -0.0537109, -1.2195122, -14.5731707, -27.1951218, -0.0392767
0.996582, -0.3227539, -0.0249023, -5, -15.3658543, -26.280489, -0.0406195
0.9628906, -0.3222656, 0.0170898, -7.6829271, -15.1829271, -25.7317085, -0.0379339
0.9428711, -0.3203125, 0.0429688, -11.8902445, -14.7560978, -24.6341476, -0.0379339
0.9199219, -0.3198242, 0.0727539, -13.3536587, -14.1463413, -24.0243912, -0.0406195
0.9111328, -0.3237305, 0.0776367, -14.3292685, -13.9634151, -22.8658543, -0.0379339
0.9003906, -0.324707, 0.0708008, -14.3292685, -13.4756098, -22.9878063, -0.0419623
0.9018555, -0.3291016, 0.0546875, -14.5121956, -13.9634151, -22.6219521, -0.0446479
0.9101562, -0.3261719, 0.0166016, -14.8780489, -13.780488, -22.7439022, -0.0433051
0.9155273, -0.3300781, 0.0009766, -16.4024391, -14.0243902, -21.8292694, -0.0439765
0.9345703, -0.3378906, -0.0214844, -18.1707325, -14.4512196, -20.9756107, -0.0443122
0.9433594, -0.3466797, -0.0244141, -18.9024391, -15, -20.5487804, -0.0463264
0.9663086, -0.3642578, -0.0219727, -20.7926826, -15.9756098, -19.1463413, -0.0466621
0.9990234, -0.3828125, -0.0112305, -20.9756107, -16.4024391, -18.7195129, -0.0466621
1.0092773, -0.3925781, 0.003418, -21.9512196, -16.280489, -17.6829281, -0.042298
1.0288086, -0.4067383, 0.0146484, -21.5853672, -15.7926836, -17.560976, -0.0439765
1.0351562, -0.4086914, 0.0229492, -20.1219521, -14.3292685, -16.7073174, -0.0500191
1.0341797, -0.4125977, 0.0268555, -19.0853672, -13.4756098, -16.4024391, -0.0520333
1.0292969, -0.4116211, 0.0253906, -16.8902435, -11.6463413, -15.6097565, -0.0486763
1.0068359, -0.3989258, 0.019043, -15.8536587, -10.7317076, -15.3048782, -0.0500191
0.996582, -0.3935547, 0.0151367, -14.0243902, -9.4512196, -14.0243902, -0.0530404
0.9790039, -0.378418, 0.0039062, -12.560976, -8.5975609, -13.0487804, -0.0486763
0.9643555, -0.3759766, -0.003418, -12.2560978, -8.1097565, -12.560976, -0.0459907
0.9462891, -0.3706055, -0.0239258, -12.3780489, -7.3780489, -12.1341467, -0.0540475
0.9267578, -0.3671875, -0.034668, -13.0487804, -7.1951222, -11.9512196, -0.0503548
0.9213867, -0.3676758, -0.0380859, -14.7560978, -7.9878049, -11.9512196, -0.0473335
0.9116211, -0.3740234, -0.0341797, -15.3658543, -8.4146347, -11.6463413, -0.0476692
0.9077148, -0.3720703, -0.0263672, -16.8902435, -9.0243902, -11.8902445, -0.0486763
0.909668, -0.3671875, -0.0146484, -17.6829281, -9.4512196, -11.1585369, -0.0493477
0.9150391, -0.3623047, -0.0053711, -18.7195129, -9.4512196, -10, -0.0513619
0.9291992, -0.3549805, 0.0141602, -19.3292694, -9.3292685, -8.780488, -0.0439765
0.934082, -0.347168, 0.0166016, -20.1219521, -8.4146347, -6.5853658, -0.0439765
0.9545898, -0.324707, 0.0083008, -20.6707325, -6.5853658, -4.390244, -0.0439765
0.9643555, -0.315918, 0.0019531, -20.9756107, -5.609756, -3.5365853, -0.0392767
0.9658203, -0.2973633, -0.0170898, -20.9756107, -4.390244, -2.0731707, -0.0386053
0.9682617, -0.2954102, -0.0322266, -21.5243912, -4.2682929, -1.6463414, -0.0386053
0.9677734, -0.2998047, -0.0361328, -23.5975609, -5, -0.8536586, -0.0439765
0.9624023, -0.3178711, -0.0283203, -24.8780499, -5.2439027, -0.3658537, -0.0399481
0.9594727, -0.3330078, -0.0209961, -27.7439022, -5.5487804, 0.5487805, -0.0446479
0.9575195, -0.3505859, -0.003418, -28.9634151, -5.3658538, 0.9756098, -0.0412909
0.9506836, -0.362793, 0.0039062, -30.5487804, -4.0853658, 2.3780489, -0.0379339
0.934082, -0.3740234, 0.0102539, -30.6707325, -3.5365853, 3.0487804, -0.0379339
0.9306641, -0.375, 0.0107422, -30.9146347, -2.7439024, 4.4512196, -0.0439765
0.9228516, -0.3706055, -0.0043945, -30.5487804, -2.0731707, 6.0975609, -0.0459907
0.9223633, -0.3676758, -0.0117188, -30.4268303, -1.6463414, 6.7682929, -0.0419623
0.9213867, -0.3549805, -0.0297852, -31.0975609, -0.6097561, 8.2317076, -0.0419623
0.9199219, -0.3432617, -0.0507812, -31.8292694, 0, 9.0243902, -0.0386053
0.9326172, -0.340332, -0.0654297, -34.2073174, 0.6707317, 10.4878054, -0.0379339
0.9375, -0.3408203, -0.0888672, -35.9146347, 1.1585366, 10.8536587, -0.0406195
0.9428711, -0.340332, -0.0952148, -39.3902435, 1.5853659, 11.4024391, -0.0419623
0.9555664, -0.3486328, -0.105957, -41.7073174, 1.5243902, 11.5853662, -0.0396124
0.9643555, -0.355957, -0.1074219, -46.7682953, 1.8292683, 12.1341467, -0.0392767
0.9726562, -0.3793945, -0.0952148, -48.5975609, 1.9512196, 12.6829271, -0.0392767
0.9775391, -0.3847656, -0.0859375, -50.4878044, 2.804878, 13.780488, -0.0352483
0.9731445, -0.3989258, -0.0717773, -49.2073174, 3.5365853, 15.7926836, -0.0396124
0.9746094, -0.402832, -0.0576172, -48.5365868, 3.9024391, 17.0731716, -0.0459907
0.9794922, -0.4077148, -0.0493164, -47.6219521, 4.7560978, 19.3902435, -0.0466621
0.9799805, -0.4072266, -0.0454102, -47.6219521, 5.3658538, 20.4878044, -0.0473335
0.9858398, -0.4038086, -0.0444336, -48.6585388, 7.1341467, 22.3170738, -0.0473335
0.9731445, -0.4008789, -0.0322266, -49.2073174, 8.1707315, 23.1097565, -0.0439765
0.965332, -0.4018555, -0.0200195, -50.0609779, 9.5731707, 24.8170738, -0.0406195
0.9477539, -0.3969727, -0.003418, -50.4268303, 9.8780489, 25.3658543, -0.0412909
0.9433594, -0.394043, -0.0043945, -50.3048782, 9.5731707, 26.0365868, -0.0406195
0.9350586, -0.3994141, -0.0141602, -50.1219521, 10, 26.4024391, -0.0453193
0.9267578, -0.3984375, -0.0283203, -50.5487823, 9.9390249, 26.2195129, -0.0486763
0.9155273, -0.4111328, -0.0629883, -52.2560997, 9.6951218, 26.2195129, -0.0446479
0.9101562, -0.4155273, -0.0800781, -53.5365868, 9.0243902, 26.7073174, -0.0446479
0.9067383, -0.421875, -0.1035156, -56.2804909, 7.6829271, 27.8048782, -0.0486763
0.9057617, -0.425293, -0.081543, -57.4390259, 6.6463418, 29.1463413, -0.0446479
0.9135742, -0.421875, -0.0615234, -58.1707344, 4.1463413, 32.0731697, -0.0433051
0.9370117, -0.4091797, -0.0449219, -57.9268303, 3.7195122, 34.0243912, -0.0392767
0.9526367, -0.3999023, -0.0551758, -55.6707344, 5, 36.7682953, -0.0419623
0.9838867, -0.394043, -0.1123047, -54.5121956, 6.5853658, 37.9268303, -0.042298
0.9956055, -0.3959961, -0.1391602, -54.0243912, 7.9878049, 39.3902435, -0.0399481
1.0024414, -0.4199219, -0.1611328, -55.1219521, 7.3170733, 40.1219521, -0.0433051
1.003418, -0.4345703, -0.1469727, -60.4878044, 3.0487804, 40.7926826, -0.0446479
1.0092773, -0.46875, -0.0795898, -64.6951218, -0.1219512, 42.4390259, -0.0426337
1.0092773, -0.4848633, -0.0473633, -65.2439041, -0.3048781, 43.4146347, -0.0439765
1.0083008, -0.5083008, -0.003418, -63.2317085, 2.3170731, 45.6707344, -0.0446479
0.9946289, -0.5185547, -0.0039062, -61.7073174, 4.0853658, 46.1585388, -0.0446479
0.9897461, -0.5200195, -0.0146484, -59.8780518, 5.4268293, 47.5, -0.0433051
0.9790039, -0.5185547, -0.050293, -60.8536606, 5.1829271, 48.1707344, -0.0449836
0.9750977, -0.5141602, -0.0708008, -64.1463394, 3.7195122, 49.9390259, -0.0446479
0.9775391, -0.4995117, -0.105957, -66.3414612, 2.6829269, 51.1585388, -0.0439765
0.9829102, -0.4980469, -0.1181641, -70.9146347, 1.2804878, 53.841465, -0.0433051
1.0004883, -0.4873047, -0.144043, -73.2926865, 0.7317073, 55.3048782, -0.0433051
1.0126953, -0.4897461, -0.1508789, -77.5, -0.9146342, 58.841465, -0.0399481
1.0473633, -0.4790039, -0.152832, -80.0609741, -1.5243902, 62.3780518, -0.0359197
1.0849609, -0.4467773, -0.1342773, -79.9390259, -1.8902439, 64.2682953, -0.0339055
1.1030273, -0.4277344, -0.1201172, -79.6951218, -2.0121951, 68.0487823, -0.0392767
1.1303711, -0.3896484, -0.1113281, -79.0853653, -2.195122, 69.8170776, -0.0365911
1.1391602, -0.3720703, -0.1040039, -79.3292694, -1.0365853, 72.9268341, -0.0412909
1.1391602, -0.3535156, -0.1142578, -80.5487823, -0.3048781, 74.5731735, -0.0419623
1.1435547, -0.3530273, -0.121582, -84.146347, 0.6097561, 77.1341476, -0.0406195
1.1347656, -0.3676758, -0.1367188, -86.646347, 0.7926829, 78.1097565, -0.0372625
1.1196289, -0.3867188, -0.1425781, -92.1341476, 0.6097561, 79.3292694, -0.0386053
1.0834961, -0.440918, -0.128418, -94.5121994, -0.3048781, 79.6951218, -0.038941
1.0703125, -0.4746094, -0.1079102, -97.5609741, -3.1707318, 80.6707306, -0.0386053
1.0410156, -0.5449219, -0.0625, -98.6585388, -6.5243902, 81.2195129, -0.0412909
1.0166016, -0.6035156, -0.0292969, -98.1097565, -7.5609756, 81.8902435, -0.0433051
1.0087891, -0.6235352, -0.0258789, -95.7317123, -8.719512, 82.8658524, -0.0392767
0.9936523, -0.6606445, -0.0419922, -94.146347, -8.6585369, 83.2317123, -0.0369268
0.9892578, -0.6723633, -0.050293, -91.0365906, -9.9390249, 83.9634171, -0.0406195
0.9833984, -0.6865234, -0.0649414, -90.4268341, -11.1585369, 84.6951218, -0.0379339
0.9863281, -0.684082, -0.0556641, -89.6951218, -15.2439032, 86.4634171, -0.0372625
1.0024414, -0.6762695, -0.0322266, -89.0853653, -17.3780499, 87.7439041, -0.0419623
1.0209961, -0.6567383, -0.0292969, -86.4024429, -19.939024, 90.4878082, -0.0426337
1.0566406, -0.6010742, -0.0400391, -84.0853653, -20.060976, 91.7073212, -0.0459907
1.0722656, -0.5742188, -0.0615234, -79.9390259, -19.2682934, 94.0853653, -0.0459907
1.0981445, -0.5180664, -0.097168, -79.8780518, -19.0243912, 95.8536606, -0.0473335
1.1191406, -0.4750977, -0.1342773, -81.7682953, -20.3048782, 97.0121994, -0.0476692
1.1245117, -0.4599609, -0.1459961, -88.7804871, -22.8658543, 98.7804871, -0.0500191
1.1323242, -0.4692383, -0.137207, -92.7439041, -24.3292694, 100.0609818, -0.0473335
1.1289062, -0.4829102, -0.1254883, -99.3902435, -26.5243912, 102.3170776, -0.0473335
1.1147461, -0.5224609, -0.1000977, -101.2804871, -27.3170738, 102.8048782, -0.0513619
1.1074219, -0.5507812, -0.0942383, -102.4390259, -29.2682934, 104.2073212, -0.0486763
1.0878906, -0.5893555, -0.1123047, -103.2317123, -30.1829281, 104.5731735, -0.0459907
1.0751953, -0.6054688, -0.1206055, -105.4878082, -30.060976, 105.0609818, -0.0459907
1.0415039, -0.6235352, -0.1391602, -106.7682953, -29.8780499, 105.4268341, -0.0513619
1.0239258, -0.6254883, -0.1381836, -108.2317123, -30.2439022, 105.9146347, -0.0439765
0.9956055, -0.6240234, -0.1303711, -108.0487823, -32.8658562, 106.9512253, -0.0459907
0.9790039, -0.637207, -0.1342773, -107.1341476, -34.6341476, 107.6219559, -0.0406195
0.9829102, -0.640625, -0.1401367, -105.3658524, -37.9268303, 109.7561035, -0.0419623
0.9907227, -0.6552734, -0.1523438, -104.6951218, -38.7195129, 110.9146347, -0.0419623
0.9912109, -0.6616211, -0.1464844, -104.6951218, -40.4878044, 112.3780518, -0.0392767
1.0029297, -0.6811523, -0.1137695, -105.3048782, -41.8292694, 113.1707306, -0.0406195
1.0161133, -0.6948242, -0.0996094, -105.9756088, -44.5731735, 113.3536606, -0.0433051
1.043457, -0.7050781, -0.0893555, -105.18293, -45.1829262, 113.4146347, -0.0419623
1.0522461, -0.7006836, -0.09375, -101.646347, -45.0609779, 112.7439041, -0.0379339
1.0512695, -0.6762695, -0.1118164, -99.0243912, -44.5121956, 112.4390259, -0.0406195
1.046875, -0.6635742, -0.1166992, -94.0853653, -44.7560997, 112.1341476, -0.0459907
1.0317383, -0.6328125, -0.1054688, -91.5853653, -47.8658562, 113.5975647, -0.0486763
1.0317383, -0.6044922, -0.0820312, -91.2804871, -49.6341476, 114.8170776, -0.0520333
1.0283203, -0.590332, -0.0693359, -91.2195129, -53.1097565, 117.2561035, -0.0459907
1.0273438, -0.5708008, -0.090332, -90.9146347, -53.7804909, 118.2926865, -0.042298
1.0239258, -0.5625, -0.1103516, -91.3414688, -53.9634171, 119.2682953, -0.0466621
1.0019531, -0.5634766, -0.1660156, -92.3170776, -53.7195129, 119.3902435, -0.0486763
0.9907227, -0.5629883, -0.1904297, -96.9512253, -55.2439041, 119.4512253, -0.0473335
0.9741211, -0.5703125, -0.2290039, -99.6341476, -57.3780518, 119.9390259, -0.0426337
0.9682617, -0.574707, -0.2363281, -104.6951218, -61.5853691, 120.6707382, -0.042298
0.9648438, -0.5991211, -0.2514648, -105.8536606, -63.5365868, 121.3414688, -0.0419623
0.9770508, -0.6064453, -0.2597656, -107.2561035, -66.0365906, 123.1707382, -0.0443122
1.0048828, -0.6132812, -0.2841797, -108.5365906, -66.7073212, 125.4878082, -0.0486763
1.0214844, -0.6083984, -0.296875, -109.3292694, -66.6463394, 126.4024429, -0.0520333
1.0292969, -0.609375, -0.2988281, -111.7682953, -66.4634171, 128.2926788, -0.0540475
1.0537109, -0.6025391, -0.3110352, -113.1707306, -66.2804871, 129.146347, -0.0540475
1.0595703, -0.6000977, -0.324707, -115, -65.0609741, 130.4878082, -0.0486763
1.0620117, -0.5913086, -0.3447266, -115.3048782, -64.0243912, 131.4634247, -0.0500191
1.0581055, -0.5927734, -0.3432617, -117.0121994, -63.3536606, 132.5, -0.0527047
1.0463867, -0.6020508, -0.3227539, -117.8048782, -63.9024391, 132.9268341, -0.0540475
1.0429688, -0.612793, -0.3076172, -119.8170776, -66.7073212, 133.1707306, -0.0500191
1.0371094, -0.628418, -0.3046875, -121.2195129, -66.7682953, 132.8048859, -0.0506905
1.0283203, -0.6357422, -0.3217773, -121.8292694, -65.8536606, 132.5, -0.0520333
1.0083008, -0.6469727, -0.3603516, -123.4146347, -63.9024391, 131.7073212, -0.0459907
0.9750977, -0.6611328, -0.3652344, -124.6951218, -64.0853653, 131.4024353, -0.0433051
0.9648438, -0.6704102, -0.3530273, -128.0487823, -66.7682953, 131.8902435, -0.0433051
0.9580078, -0.6860352, -0.3154297, -129.3292694, -69.0243912, 132.6219482, -0.0406195
0.9628906, -0.6914062, -0.2958984, -129.9390259, -72.68293, 133.4756165, -0.0409552
0.9833984, -0.703125, -0.2685547, -129.2073212, -73.6585388, 134.146347, -0.0429694
0.9902344, -0.6977539, -0.2539062, -126.8902435, -75.0609741, 134.5121918, -0.0463264
0.9970703, -0.6923828, -0.2202148, -125.7926865, -75.6097565, 134.4512177, -0.0439765
1.0019531, -0.6855469, -0.1958008, -123.8414688, -77.9268341, 134.5731812, -0.0396124
1.0068359, -0.6806641, -0.1694336, -122.0121994, -80.2439041, 134.3902435, -0.0426337
1.0068359, -0.6782227, -0.168457, -121.0365906, -80.9756088, 134.0853729, -0.0446479
1.003418, -0.6777344, -0.2045898, -120, -81.5243912, 133.2926788, -0.0436408
0.9829102, -0.6796875, -0.2426758, -120.1219559, -82.2560959, 132.9878082, -0.0459907
0.9643555, -0.6875, -0.2578125, -119.5731735, -84.8780518, 132.9268341, -0.0500191
0.9404297, -0.7016602, -0.2788086, -119.0853653, -87.0121994, 132.8048859, -0.0486763
0.9335938, -0.7080078, -0.2788086, -118.9024429, -90.8536606, 133.0487823, -0.0459907
0.9291992, -0.7167969, -0.2963867, -119.2073212, -92.8658524, 133.0487823, -0.0392767
0.9296875, -0.7143555, -0.3017578, -119.3292694, -95.1219559, 132.8048859, -0.0480049
0.9223633, -0.7011719, -0.3256836, -119.3902435, -95.6097565, 132.86586, -0.0433051
0.925293, -0.6884766, -0.3466797, -119.146347, -95.7926865, 133.1707306, -0.0433051
0.921875, -0.6582031, -0.4072266, -119.146347, -95.4878082, 134.8780518, -0.0453193
0.925293, -0.6489258, -0.4423828, -119.5731735, -95.6097565, 135.9146423, -0.0419623
0.9394531, -0.6386719, -0.5268555, -121.646347, -95.7926865, 137.6829376, -0.0439765
0.9545898, -0.6503906, -0.5898438, -123.0487823, -96.1585388, 138.3536682, -0.0473335
0.9550781, -0.6660156, -0.6049805, -126.1585388, -97.5, 138.1097565, -0.0446479
0.9633789, -0.7109375, -0.5908203, -127.86586, -99.0243912, 137.7439117, -0.0449836
0.9594727, -0.7353516, -0.5708008, -130.9756165, -100.9146347, 135.9756165, -0.0439765
0.9521484, -0.7817383, -0.5107422, -132.0121918, -100.9146347, 135.1829224, -0.0466621
0.9365234, -0.7944336, -0.4731445, -131.4634247, -100.1219559, 134.3292694, -0.0466621
0.8999023, -0.8125, -0.4135742, -129.9390259, -99.6951218, 134.5121918, -0.0500191
0.8833008, -0.8198242, -0.3974609, -124.3902435, -99.4512253, 135, -0.0513619
0.8564453, -0.8398438, -0.4038086, -118.0487823, -100.3048782, 136.0975647, -0.0500191
0.8481445, -0.8422852, -0.4272461, -115.8536606, -100.18293, 136.5853729, -0.0500191
0.8330078, -0.8334961, -0.4829102, -112.86586, -99.5121994, 137.3780518, -0.0446479
0.8081055, -0.8154297, -0.5014648, -112.1341476, -99.6951218, 137.6829376, -0.0453193
0.7885742, -0.8071289, -0.4912109, -111.2804871, -102.1341476, 138.5975647, -0.0486763
0.7773438, -0.796875, -0.4521484, -111.0365906, -104.2682953, 139.5121918, -0.0446479
0.777832, -0.7939453, -0.4404297, -109.0243912, -107.9268341, 140.7926788, -0.0433051
0.8007812, -0.7841797, -0.4345703, -108.1707306, -109.3292694, 141.3414612, -0.0486763
0.8046875, -0.7768555, -0.4394531, -107.9878082, -110, 140.4878082, -0.0466621
0.809082, -0.7592773, -0.4643555, -109.146347, -110.1219559, 140.2439117, -0.0419623
0.8046875, -0.7421875, -0.4780273, -111.7682953, -109.5121994, 139.5121918, -0.0392767
0.7954102, -0.7207031, -0.5112305, -113.1097565, -109.6341476, 141.0365906, -0.0453193
0.7924805, -0.7148438, -0.5424805, -112.6219559, -110, 142.1951294, -0.0406195
0.7983398, -0.7285156, -0.6108398, -111.1585388, -110.6097565, 144.3902435, -0.0446479
0.809082, -0.7617188, -0.6445312, -110.36586, -112.1341476, 145.0609741, -0.0500191
0.8178711, -0.7885742, -0.640625, -111.2804871, -117.3780518, 144.8780518, -0.0433051
0.8178711, -0.8520508, -0.5771484, -112.4390259, -120, 144.146347, -0.0463264
0.8071289, -0.8769531, -0.5273438, -114.8780518, -122.9878082, 142.9268341, -0.0466621
0.7895508, -0.9165039, -0.4633789, -115.36586, -122.4390259, 142.5609741, -0.0473335
0.7807617, -0.9194336, -0.4619141, -112.86586, -119.0243912, 142.3170776, -0.0459907
0.746582, -0.9057617, -0.4931641, -111.2195129, -116.4634171, 142.3780518, -0.0459907
0.7255859, -0.8911133, -0.5126953, -107.2561035, -115.18293, 143.4756165, -0.0493477
0.6977539, -0.8808594, -0.5683594, -103.4146347, -119.9390259, 144.5121918, -0.0493477
0.6967773, -0.8876953, -0.6010742, -101.9512253, -122.5, 144.4512177, -0.0446479
0.7070312, -0.9003906, -0.6577148, -102.3780518, -125.7926865, 144.8170776, -0.0466621
0.7177734, -0.9194336, -0.6499023, -103.1097565, -127.0731735, 144.2073212, -0.0436408
0.722168, -0.9335938, -0.6342773, -104.3292694, -129.8780518, 142.86586, -0.0446479
0.737793, -0.9594727, -0.6206055, -103.5365906, -130.3048859, 142.4390259, -0.0406195
0.7402344, -0.9663086, -0.6259766, -100.6097565, -129.4512177, 141.5243988, -0.0419623
0.7456055, -0.9638672, -0.6420898, -99.146347, -128.2317047, 141.646347, -0.0439765
0.7353516, -0.9575195, -0.640625, -97.5, -126.5853653, 141.646347, -0.0406195
0.7294922, -0.9248047, -0.6235352, -97.1341476, -126.7073212, 142.0121918, -0.0459907
0.7226562, -0.9067383, -0.6201172, -96.646347, -126.8902435, 142.7439117, -0.0476692
0.7231445, -0.8920898, -0.6582031, -95.7317123, -124.3902435, 142.7439117, -0.0473335
0.7294922, -0.8886719, -0.7070312, -95.4878082, -122.68293, 142.5, -0.0459907
0.7294922, -0.8984375, -0.8139648, -97.9878082, -119.2073212, 140.36586, -0.0486763
0.7089844, -0.925293, -0.8242188, -100, -119.2682953, 139.0853729, -0.0486763
0.6972656, -0.9453125, -0.7856445, -103.4146347, -125.7926865, 137.6219482, -0.0513619
0.6865234, -0.9873047, -0.6542969, -104.2073212, -130.2439117, 137.6219482, -0.0513619
0.6923828, -1.0029297, -0.6123047, -101.2195129, -134.8780518, 137.9268341, -0.0486763
0.706543, -1.0175781, -0.6074219, -98.8414688, -133.1097565, 137.9878082, -0.0446479
0.7016602, -1.0092773, -0.6313477, -93.1707306, -123.9634171, 138.9024353, -0.0406195
0.6708984, -0.980957, -0.6704102, -90.9146347, -120.6097565, 139.6951294, -0.0419623
0.6523438, -0.9667969, -0.6708984, -89.3292694, -122.68293, 139.7561035, -0.0392767
0.6254883, -0.9584961, -0.6333008, -90.8536606, -132.7439117, 139.4512177, -0.0372625
0.6240234, -0.9545898, -0.6044922, -92.1951218, -136.8902435, 138.9024353, -0.0386053
0.6293945, -0.9594727, -0.5703125, -91.8902435, -137.3170776, 138.5365906, -0.0419623
0.6201172, -0.96875, -0.5854492, -90.1219559, -135.1219482, 138.4756165, -0.0473335
0.605957, -0.9731445, -0.6171875, -84.4512253, -131.8292694, 137.6829376, -0.0453193
0.5791016, -0.9765625, -0.6923828, -82.1951218, -131.8292694, 137.2561035, -0.0449836
0.5605469, -0.9716797, -0.7255859, -81.2195129, -133.9634247, 137.4390259, -0.0446479
0.5341797, -0.9580078, -0.7587891, -82.3170776, -135.4268341, 137.9878082, -0.0506905
0.5219727, -0.9526367, -0.7495117, -84.3292694, -137.8048859, 139.7561035, -0.0486763
0.5136719, -0.9526367, -0.7109375, -85, -139.4512177, 140.6097565, -0.049012
0.5136719, -0.9521484, -0.6962891, -84.5121994, -142.0731812, 140.5487823, -0.0540475
0.5209961, -0.9516602, -0.7084961, -81.1585388, -140.5487823, 139.5731812, -0.0574044
0.5185547, -0.9438477, -0.7988281, -78.4756088, -137.5609741, 139.0243988, -0.0553902
0.5068359, -0.9428711, -0.8530273, -73.5365906, -131.7073212, 139.6341553, -0.0540475
0.4858398, -0.9375, -0.940918, -72.4390259, -130.5487823, 140.1829376, -0.0540475
0.4755859, -0.9350586, -0.9511719, -74.5731735, -133.8414612, 141.9512177, -0.0516976
0.4677734, -0.9331055, -0.9238281, -76.7682953, -136.0365906, 142.3780518, -0.0493477
0.4658203, -0.9326172, -0.8916016, -80.0609741, -138.2317047, 143.7804871, -0.0473335
0.4619141, -0.9257812, -0.8339844, -80.2439041, -137.2561035, 144.0243988, -0.0480049
0.4589844, -0.9208984, -0.8256836, -78.1707306, -132.3780518, 144.7561035, -0.0486763
0.4345703, -0.9116211, -0.8295898, -76.8902435, -129.8780518, 144.6341553, -0.0480049
0.4165039, -0.9052734, -0.8339844, -76.646347, -127.2561035, 144.5121918, -0.0506905
0.3764648, -0.8876953, -0.7939453, -78.8414688, -130.7317047, 145, -0.0486763
0.3623047, -0.8857422, -0.7236328, -79.5121994, -133.9024353, 145.3048859, -0.0446479
0.3569336, -0.8901367, -0.6977539, -79.2073212, -138.9634247, 145.4878082, -0.0446479
0.3588867, -0.8925781, -0.6665039, -79.2073212, -139.8170776, 145.5487823, -0.0473335
0.3579102, -0.8896484, -0.6645508, -78.2317123, -138.7804871, 144.6951294, -0.0446479
0.3510742, -0.8959961, -0.6723633, -77.5, -138.7804871, 144.5731812, -0.0466621
0.3393555, -0.8989258, -0.6904297, -75.7317123, -139.8780518, 144.3292694, -0.0459907
0.3291016, -0.8994141, -0.7460938, -74.7560959, -140.4268341, 144.3902435, -0.0453193
0.3256836, -0.9013672, -0.7807617, -72.4390259, -141.2804871, 145.9756165, -0.0446479
0.3183594, -0.8818359, -0.8276367, -71.5243912, -141.8902435, 146.5853729, -0.0433051
0.3095703, -0.8735352, -0.8300781, -71.5243912, -145.4268341, 148.9024353, -0.0459907
0.3120117, -0.8481445, -0.784668, -73.1707306, -153.7195129, 150.0609741, -0.0446479
0.3203125, -0.8364258, -0.71875, -73.2317123, -157.5609741, 150, -0.0439765
0.3208008, -0.8334961, -0.6962891, -71.2804871, -160.6097565, 149.3902435, -0.042298
0.3100586, -0.8183594, -0.684082, -69.3292694, -159.5731812, 148.9024353, -0.0379339
0.293457, -0.8051758, -0.6953125, -65.1219559, -156.0975647, 148.6585388, -0.0379339
0.2568359, -0.7519531, -0.7685547, -63.9634171, -154.9390259, 149.0243988, -0.0386053
0.2421875, -0.7353516, -0.8173828, -63.2317085, -154.7561035, 150.7926788, -0.0419623
0.2407227, -0.7260742, -0.9135742, -63.1097565, -155.3048859, 151.5853729, -0.0372625
0.253418, -0.7329102, -0.949707, -63.9024391, -158.7195129, 152.3780518, -0.0392767
0.2714844, -0.75, -0.9819336, -64.5731735, -160.8536682, 151.646347, -0.0436408
0.2773438, -0.7504883, -0.9819336, -66.9512177, -162.4390259, 149.9390259, -0.0412909
0.2700195, -0.734375, -0.9697266, -69.3292694, -159.0853729, 149.3292694, -0.0439765
0.2558594, -0.71875, -0.9594727, -69.8780518, -156.5853729, 150.0609741, -0.0439765
