Application:, Trigno Discover (1.6.5)
Date/Time:, 29/01/2025 16:34:36
Collection Length (seconds):, 37.449
wrist (81457), , , , , , bicep (81139)
sensor mode: 609, , , , , , sensor mode: 40
ACC X (G), ACC Y (G), ACC Z (G), GYRO X (deg/s), GYRO Y (deg/s), GYRO Z (deg/s), EMG 1 (mV)
370.3704 Hz, 370.3704 Hz, 370.3704 Hz, 370.3704 Hz, 370.3704 Hz, 370.3704 Hz, 2148.1481 Hz
0.972168, -0.1352539, -0.2739258, -11.9512196, -10.9146347, 7.8658538, -0.0446479
0.9731445, -0.1401367, -0.2719727, -12.5, -10.5487804, 7.6219516, -0.0459907
0.9775391, -0.1538086, -0.2734375, -12.3780489, -10.4878054, 7.6219516, -0.0463264
0.9702148, -0.1655273, -0.2739258, -12.4390249, -10.2439022, 8.2926826, -0.0553902
0.9624023, -0.1762695, -0.2641602, -11.7682934, -10.2439022, 8.4756098, -0.0621042
0.9589844, -0.1811523, -0.2597656, -11.219512, -10.2439022, 8.5365858, -0.0681468
0.9501953, -0.1879883, -0.2612305, -9.8780489, -9.7560978, 8.2926826, -0.0762036
0.949707, -0.1884766, -0.2597656, -9.5731707, -9.9390249, 8.1707315, -0.0835889
0.9443359, -0.1982422, -0.2543945, -8.719512, -10.3048782, 7.8658538, -0.0970169
0.9462891, -0.2036133, -0.2539062, -8.0487804, -10.7317076, 7.9268293, -0.1050736
0.9428711, -0.2026367, -0.2612305, -7.1341467, -10.3658543, 7.8048782, -0.1077592
0.9370117, -0.199707, -0.2788086, -7.1341467, -10.2439022, 7.9268293, -0.1050736
0.9355469, -0.1958008, -0.2807617, -6.890244, -10.6707315, 8.1707315, -0.0997024
0.9433594, -0.1791992, -0.2763672, -6.5853658, -10.9756098, 8.1707315, -0.0889601
0.9536133, -0.171875, -0.2729492, -5.9146342, -11.0975609, 7.9268293, -0.0795605
0.9624023, -0.1513672, -0.2739258, -5.670732, -10.9756098, 7.9878049, -0.0694896
0.965332, -0.1435547, -0.2749023, -5.3048782, -10.8536587, 7.8048782, -0.0547189
0.9746094, -0.1352539, -0.2753906, -6.0365853, -10.9756098, 7.8048782, -0.0446479
0.9780273, -0.1386719, -0.2749023, -6.0975609, -11.0975609, 8.1707315, -0.0379339
0.9790039, -0.1430664, -0.2758789, -6.6463418, -10.9146347, 8.780488, -0.0251774
0.9775391, -0.1450195, -0.2753906, -6.7073174, -10.5487804, 8.9634151, -0.011078
0.972168, -0.1489258, -0.2744141, -7.4390244, -10.6097565, 9.8780489, 0.0023499
0.956543, -0.1416016, -0.2797852, -7.5609756, -10.2439022, 9.8780489, 0.0083925
0.9545898, -0.144043, -0.2802734, -7.3780489, -10.3658543, 9.9390249, 0.0127565
0.9526367, -0.1503906, -0.2841797, -7.5, -10.4878054, 9.8780489, 0.0090639
0.9560547, -0.1542969, -0.2871094, -7.1951222, -10.8536587, 9.3902445, 0.0036927
0.9624023, -0.1708984, -0.2915039, -7.2560978, -10.7926836, 9.5121956, -0.0043641
0.9609375, -0.1704102, -0.2885742, -7.3170733, -10.9756098, 9.5731707, -0.0137636
0.9545898, -0.168457, -0.2822266, -6.7073174, -10.3658543, 9.9390249, -0.0204776
0.9545898, -0.1655273, -0.2783203, -6.4634147, -10.5487804, 10.3048782, -0.0251774
0.949707, -0.1538086, -0.2763672, -6.8292685, -10.5487804, 10.3658543, -0.0332341
0.9487305, -0.1464844, -0.2822266, -6.890244, -10.6097565, 10.2439022, -0.0392767
0.9555664, -0.140625, -0.2875977, -7.7439027, -10.7317076, 10.3048782, -0.0392767
0.9472656, -0.1523438, -0.2880859, -8.2317076, -10.8536587, 9.9390249, -0.0339055
0.9482422, -0.1591797, -0.2861328, -9.0243902, -10.8536587, 9.8780489, -0.0332341
0.9492188, -0.1660156, -0.2788086, -9.3292685, -10.9756098, 9.8170738, -0.0382696
0.9477539, -0.1723633, -0.2773438, -9.5731707, -11.280488, 10.1829271, -0.0459907
0.9526367, -0.1767578, -0.2729492, -9.5731707, -11.1585369, 10.1219511, -0.0463264
0.9536133, -0.1748047, -0.2724609, -9.2682924, -11.0975609, 10.3048782, -0.0439765
0.9594727, -0.1694336, -0.2700195, -8.9024391, -11.280488, 10.060976, -0.0473335
0.9609375, -0.1679688, -0.2724609, -8.780488, -11.4634151, 10.060976, -0.0446479
0.9643555, -0.1704102, -0.2758789, -8.719512, -11.5853662, 10, -0.0439765
0.9658203, -0.1723633, -0.2788086, -8.719512, -11.5243902, 10.1829271, -0.0520333
0.9575195, -0.1674805, -0.2788086, -8.780488, -11.280488, 10.4268293, -0.0513619
0.956543, -0.1713867, -0.2734375, -9.0853662, -11.4634151, 10.2439022, -0.0459907
0.9584961, -0.1699219, -0.2744141, -8.3536587, -12.0121956, 10.3048782, -0.0500191
0.9599609, -0.1738281, -0.2729492, -8.4146347, -12.0121956, 10.1829271, -0.0527047
0.9575195, -0.1748047, -0.2705078, -8.1097565, -12.0121956, 9.6951218, -0.0540475
0.9541016, -0.1835938, -0.2695312, -8.4146347, -12.3170738, 9.6951218, -0.0543832
0.9472656, -0.1816406, -0.2724609, -8.2926826, -12.1951218, 9.8170738, -0.0580758
0.9394531, -0.1850586, -0.262207, -7.9268293, -12.3780489, 10.6097565, -0.0584115
0.9375, -0.1870117, -0.2607422, -7.6829271, -12.9878054, 10.1219511, -0.0574044
0.9423828, -0.1889648, -0.2592773, -7.3780489, -13.1707315, 9.8780489, -0.0540475
0.940918, -0.1918945, -0.262207, -6.890244, -13.4146347, 9.8780489, -0.0527047
0.9331055, -0.1918945, -0.2719727, -6.8292685, -13.2317076, 9.6341467, -0.0553902
0.9350586, -0.1962891, -0.2871094, -6.5243902, -13.3536587, 9.8780489, -0.0506905
0.9370117, -0.1904297, -0.2871094, -5.7926831, -13.9634151, 9.7560978, -0.0459907
0.9487305, -0.1894531, -0.2924805, -5, -14.3292685, 9.9390249, -0.0433051
0.9536133, -0.1826172, -0.2983398, -4.4512196, -14.2073174, 9.6341467, -0.0459907
0.9570312, -0.1689453, -0.3066406, -4.2073174, -14.0853662, 9.6951218, -0.0466621
0.9560547, -0.1630859, -0.3071289, -4.0243902, -14.0243902, 9.6951218, -0.0459907
0.9594727, -0.1582031, -0.3168945, -3.9024391, -13.9634151, 9.6341467, -0.0406195
0.9682617, -0.1572266, -0.3203125, -3.7195122, -13.841464, 10.3048782, -0.0433051
0.9736328, -0.1474609, -0.3232422, -3.7195122, -13.7195129, 10.4878054, -0.0406195
0.9755859, -0.1469727, -0.3271484, -4.0243902, -13.3536587, 10.6707315, -0.0386053
0.9760742, -0.1464844, -0.3344727, -4.9390244, -12.9878054, 10.5487804, -0.042298
0.9780273, -0.1459961, -0.331543, -5.1829271, -12.8658543, 10.8536587, -0.0386053
0.9736328, -0.1469727, -0.3291016, -5.4268293, -12.4390249, 11.0365858, -0.0379339
0.9702148, -0.1611328, -0.3198242, -5.609756, -12.5, 11.0365858, -0.0392767
0.965332, -0.1611328, -0.3154297, -5.7926831, -12.2560978, 10.9756098, -0.038941
0.9580078, -0.1748047, -0.3105469, -6.0365853, -11.8902445, 10.8536587, -0.0453193
0.9487305, -0.1826172, -0.3056641, -5.9756098, -11.6463413, 10.9146347, -0.0459907
0.9467773, -0.2011719, -0.296875, -5.670732, -11.7073174, 10.9146347, -0.0486763
0.9428711, -0.2041016, -0.2905273, -5.0609756, -11.9512196, 10.8536587, -0.0459907
0.9472656, -0.2075195, -0.2749023, -4.1463413, -11.9512196, 10.6097565, -0.0446479
0.9482422, -0.2109375, -0.2700195, -3.8414636, -12.2560978, 10.7317076, -0.0439765
0.9482422, -0.215332, -0.2539062, -2.4390244, -12.560976, 10.4878054, -0.0459907
0.9458008, -0.2124023, -0.2509766, -2.0121951, -12.3780489, 10.3048782, -0.0459907
0.9423828, -0.2080078, -0.2529297, -1.4634147, -12.1951218, 10.3658543, -0.0406195
0.9375, -0.1923828, -0.2602539, -1.2195122, -12.1341467, 10.7926836, -0.0392767
0.9384766, -0.1855469, -0.2646484, -0.8536586, -12.3780489, 11.341464, -0.0365911
0.9501953, -0.1782227, -0.2749023, -0.7926829, -13.2317076, 10.9756098, -0.0396124
0.9536133, -0.1762695, -0.2807617, -0.7317073, -13.2926836, 10.8536587, -0.0365911
0.9599609, -0.1762695, -0.2841797, -0.6707317, -13.1707315, 10.5487804, -0.0352483
0.9589844, -0.1865234, -0.2851562, -0.7926829, -13.3536587, 10.5487804, -0.0369268
0.956543, -0.1923828, -0.2866211, -0.2439024, -13.4146347, 10.5487804, -0.0392767
0.9526367, -0.1948242, -0.2832031, -0.1829268, -13.7195129, 10.4268293, -0.0516976
0.953125, -0.1899414, -0.2832031, -0.4268293, -13.3536587, 10.8536587, -0.0621042
0.9487305, -0.1806641, -0.293457, -0.3048781, -13.2926836, 10.7926836, -0.0688182
0.9467773, -0.1777344, -0.296875, -0.5487805, -12.9878054, 11.341464, -0.0889601
0.9487305, -0.1787109, -0.3032227, -0.6707317, -13.3536587, 10.9756098, -0.1003738
0.9492188, -0.1782227, -0.3046875, -0.9146342, -13.5975609, 10.7926836, -0.1000381
0.9501953, -0.1806641, -0.3032227, -1.097561, -13.4756098, 10.8536587, -0.1144732
0.9511719, -0.184082, -0.3027344, -1.6463414, -13.2926836, 11.0365858, -0.1027237
0.9516602, -0.1875, -0.2983398, -2.3170731, -13.4146347, 11.0365858, -0.0661326
0.9487305, -0.1899414, -0.2963867, -2.2560976, -13.1097565, 11.280488, -0.0298772
0.9541016, -0.199707, -0.2963867, -2.4390244, -12.9878054, 11.0975609, -0.0063783
0.9555664, -0.2016602, -0.2958984, -2.3780489, -13.0487804, 11.4024391, -0.0030213
0.9589844, -0.2045898, -0.2929688, -2.0731707, -12.560976, 11.280488, -0.0083925
0.9560547, -0.2060547, -0.2807617, -2.1341465, -12.7439032, 11.5853662, -0.0275273
0.9511719, -0.2011719, -0.2817383, -1.2804878, -12.3780489, 11.7073174, -0.0473335
0.9511719, -0.1948242, -0.2861328, -1.1585366, -12.3780489, 11.4634151, -0.0594186
0.9492188, -0.1938477, -0.2871094, -1.1585366, -12.0731707, 11.5243902, -0.0574044
0.9394531, -0.1899414, -0.2915039, -2.195122, -11.8902445, 11.8292685, -0.0480049
0.9389648, -0.1855469, -0.2944336, -2.2560976, -11.9512196, 11.9512196, -0.0298772
0.940918, -0.1865234, -0.2915039, -2.5, -12.0731707, 12.1951218, -0.011078
0.9360352, -0.1904297, -0.2895508, -2.5, -12.0731707, 11.9512196, 0.0104067
0.9428711, -0.1894531, -0.2841797, -2.8658538, -11.7682934, 11.9512196, 0.0231632
0.9404297, -0.1933594, -0.2832031, -2.9878049, -11.8292685, 11.6463413, 0.0184634
0.9360352, -0.2006836, -0.2827148, -3.3536587, -11.1585369, 11.8292685, 0.0090639
0.9248047, -0.1958008, -0.2832031, -3.3536587, -11.0975609, 12.3780489, 0.0036927
0.9204102, -0.1850586, -0.2792969, -3.4146342, -11.341464, 12.560976, -0.0057069
0.9262695, -0.175293, -0.2749023, -3.4146342, -11.341464, 12.560976, -0.0164492
0.9291992, -0.1743164, -0.2749023, -3.5975611, -11.1585369, 12.2560978, -0.0251774
0.9331055, -0.1650391, -0.2763672, -4.3292685, -11.0365858, 12.4390249, -0.0365911
0.9360352, -0.1674805, -0.2753906, -4.3292685, -11.1585369, 12.3170738, -0.0379339
0.9379883, -0.1733398, -0.2705078, -4.7560978, -11.1585369, 12.3170738, -0.0382696
0.9384766, -0.1738281, -0.269043, -4.8170733, -11.219512, 12.6219511, -0.0412909
0.9423828, -0.1870117, -0.2709961, -4.8170733, -11.0975609, 12.4390249, -0.0406195
0.9379883, -0.1987305, -0.2724609, -4.6341462, -10.9756098, 12.3780489, -0.0459907
0.940918, -0.2094727, -0.2749023, -4.1463413, -10.7317076, 12.6829271, -0.0486763
0.9379883, -0.2148438, -0.2807617, -3.9634147, -10.9146347, 12.6219511, -0.0453193
0.9335938, -0.2143555, -0.2841797, -3.2926829, -10.5487804, 12.560976, -0.0433051
0.9350586, -0.2060547, -0.2910156, -2.804878, -10.4878054, 12.9878054, -0.0446479
0.9277344, -0.1977539, -0.2939453, -2.9878049, -10.6707315, 13.0487804, -0.0463264
0.9414062, -0.1923828, -0.2885742, -2.5609756, -11.0975609, 12.8048782, -0.0500191
0.9443359, -0.1928711, -0.2919922, -2.5, -11.0975609, 12.8048782, -0.0506905
0.9443359, -0.1914062, -0.2973633, -2.9878049, -10.6707315, 12.3170738, -0.0500191
0.949707, -0.1914062, -0.3017578, -3.1707318, -10.7926836, 12.2560978, -0.0520333
0.9521484, -0.1850586, -0.2983398, -3.7804878, -10.5487804, 12.9268293, -0.0520333
0.9516602, -0.1826172, -0.2895508, -4.2073174, -10.6097565, 13.0487804, -0.0473335
0.9467773, -0.1777344, -0.2900391, -4.6951222, -10.2439022, 13.1707315, -0.0436408
0.9482422, -0.1757812, -0.2939453, -5.1829271, -10.2439022, 13.2926836, -0.0382696
0.9487305, -0.1713867, -0.2900391, -6.2195125, -10.060976, 12.9878054, -0.0406195
0.9458008, -0.1811523, -0.2827148, -6.890244, -10.3048782, 13.0487804, -0.0352483
0.9477539, -0.1860352, -0.2783203, -7.1951222, -10.4878054, 12.8658543, -0.0339055
0.9453125, -0.1938477, -0.2788086, -7.1951222, -10.2439022, 12.8048782, -0.038941
0.9414062, -0.2001953, -0.2792969, -7.0731707, -10, 12.6829271, -0.0406195
0.9389648, -0.1933594, -0.2851562, -7.3170733, -10.060976, 12.9878054, -0.0459907
0.9414062, -0.1962891, -0.2841797, -7.3780489, -10.1219511, 13.2317076, -0.0560616
0.9458008, -0.1918945, -0.277832, -6.8292685, -10.7926836, 13.1097565, -0.0597543
0.9550781, -0.1875, -0.2709961, -6.8292685, -10.9146347, 12.8658543, -0.0664683
0.9545898, -0.1831055, -0.2636719, -6.3414636, -11.1585369, 12.4390249, -0.0661326
0.9516602, -0.1806641, -0.2597656, -6.7682929, -10.9756098, 12.4390249, -0.0691539
0.9458008, -0.1801758, -0.2578125, -6.890244, -10.7926836, 12.7439032, -0.0681468
0.9326172, -0.1791992, -0.2592773, -7.1951222, -10.8536587, 12.9268293, -0.0654612
0.9331055, -0.1811523, -0.2612305, -7.5, -10.9756098, 12.8658543, -0.0621042
0.9321289, -0.1845703, -0.2666016, -7.3780489, -11.7682934, 12.7439032, -0.0580758
0.9335938, -0.1879883, -0.2661133, -7.3780489, -11.6463413, 12.3780489, -0.0547189
0.9282227, -0.1962891, -0.277832, -8.2317076, -11.7073174, 12.0731707, -0.0486763
0.9238281, -0.1992188, -0.2797852, -8.4146347, -11.6463413, 11.8292685, -0.0426337
0.9257812, -0.199707, -0.2802734, -8.5365858, -11.9512196, 12.1341467, -0.0446479
0.9287109, -0.1894531, -0.2836914, -8.2926826, -12.1951218, 11.9512196, -0.0486763
0.9360352, -0.1865234, -0.2871094, -7.7439027, -12.1951218, 11.7073174, -0.0506905
0.9448242, -0.1806641, -0.2871094, -7.5, -12.0121956, 11.280488, -0.0513619
0.9482422, -0.1816406, -0.2910156, -7.8658538, -11.8292685, 10.7926836, -0.0513619
0.9462891, -0.1762695, -0.2900391, -8.4756098, -11.7682934, 11.0365858, -0.0500191
0.9448242, -0.1733398, -0.2885742, -8.4146347, -11.5853662, 11.0365858, -0.0446479
0.9384766, -0.1704102, -0.2919922, -8.9024391, -11.280488, 11.0365858, -0.0466621
0.9399414, -0.1699219, -0.2924805, -9.4512196, -11.341464, 11.0975609, -0.0459907
0.9321289, -0.1733398, -0.2905273, -10, -11.4634151, 10.7926836, -0.0345769
0.9355469, -0.1733398, -0.2915039, -10.1829271, -11.4024391, 10.7926836, -0.0298772
0.9326172, -0.1826172, -0.2875977, -10.3048782, -11.1585369, 10.5487804, -0.0251774
0.9296875, -0.1914062, -0.2924805, -10.6707315, -11.0975609, 10.5487804, -0.0258488
0.9262695, -0.1972656, -0.2939453, -10.3048782, -10.7926836, 10.3658543, -0.0406195
0.9262695, -0.190918, -0.2978516, -10.1219511, -11.1585369, 10.3048782, -0.0473335
0.9262695, -0.1855469, -0.296875, -10.4878054, -10.3658543, 10.4878054, -0.0527047
0.9291992, -0.1694336, -0.2944336, -11.4024391, -10.4878054, 10.4268293, -0.0513619
0.9301758, -0.1655273, -0.2924805, -12.0121956, -10.4878054, 10.060976, -0.0459907
0.9365234, -0.1611328, -0.2807617, -12.6219511, -10.3658543, 9.5731707, -0.0459907
0.9355469, -0.1679688, -0.2856445, -12.9878054, -10.2439022, 9.3292685, -0.0540475
0.9365234, -0.1699219, -0.2836914, -13.9634151, -9.8780489, 9.0243902, -0.0540475
0.9345703, -0.1762695, -0.2807617, -14.2682934, -9.7560978, 9.2682924, -0.0594186
0.9345703, -0.1816406, -0.2739258, -14.6951227, -9.4512196, 9.2073174, -0.0621042
0.9306641, -0.1816406, -0.2749023, -14.7560978, -9.4512196, 9.2682924, -0.056733
0.9326172, -0.1835938, -0.2709961, -14.6341467, -9.2682924, 9.5121956, -0.0540475
0.9291992, -0.1777344, -0.2661133, -14.6951227, -9.3902445, 8.9634151, -0.0473335
0.9277344, -0.1777344, -0.265625, -15.1829271, -9.3292685, 8.5975609, -0.0433051
0.9228516, -0.1782227, -0.2661133, -15.1829271, -9.1463413, 7.9878049, -0.0352483
0.9199219, -0.1782227, -0.2680664, -15.4878054, -9.1463413, 8.0487804, -0.0298772
0.9204102, -0.175293, -0.2729492, -15.4878054, -9.5731707, 7.8048782, -0.0285344
0.9213867, -0.1777344, -0.2744141, -15.4268293, -9.5121956, 8.0487804, -0.0345769
0.9365234, -0.1796875, -0.2744141, -15.060976, -9.6341467, 7.1951222, -0.0379339
0.9394531, -0.1796875, -0.2734375, -15.1219511, -9.5121956, 7.0731707, -0.0406195
0.9379883, -0.1899414, -0.2729492, -14.6951227, -9.4512196, 6.5243902, -0.0426337
0.9350586, -0.1953125, -0.2763672, -14.6341467, -9.2682924, 6.0975609, -0.0379339
0.9345703, -0.1962891, -0.277832, -13.9634151, -9.3902445, 6.0975609, -0.038941
0.9331055, -0.1899414, -0.2822266, -13.780488, -9.0853662, 6.2195125, -0.0386053
0.9321289, -0.1865234, -0.28125, -13.5975609, -8.9634151, 6.3414636, -0.0392767
0.9262695, -0.1796875, -0.28125, -13.780488, -9.0853662, 6.1585369, -0.0446479
0.9272461, -0.1796875, -0.2807617, -14.0853662, -8.9634151, 5.670732, -0.0359197
0.9331055, -0.175293, -0.2773438, -14.2073174, -9.0853662, 5.0609756, -0.03122
0.9345703, -0.1772461, -0.2792969, -14.4512196, -8.9634151, 4.8170733, -0.0271916
0.9335938, -0.1806641, -0.2861328, -15.060976, -8.719512, 4.7560978, -0.0288701
0.9360352, -0.1835938, -0.2851562, -15.1829271, -8.9024391, 4.6341462, -0.0325628
0.9345703, -0.1787109, -0.2875977, -15.2439032, -8.5365858, 4.6951222, -0.0359197
0.9350586, -0.1767578, -0.2841797, -15.3658543, -8.2926826, 4.5731707, -0.0352483
0.9350586, -0.1728516, -0.2875977, -15.4268293, -8.4756098, 4.390244, -0.0352483
0.9345703, -0.1674805, -0.2885742, -15.2439032, -8.4146347, 4.1463413, -0.0352483
0.9331055, -0.1674805, -0.284668, -16.0365849, -7.9268293, 3.7195122, -0.0369268
0.9316406, -0.1728516, -0.2885742, -16.7682934, -7.8048782, 3.1097562, -0.0386053
0.9296875, -0.1806641, -0.2919922, -17.1341476, -7.7439027, 3.1097562, -0.0359197
0.934082, -0.1757812, -0.2929688, -17.560976, -7.4390244, 3.2926829, -0.0365911
0.9331055, -0.1762695, -0.2910156, -17.5, -7.3780489, 3.2317073, -0.0406195
0.9296875, -0.1630859, -0.2919922, -17.8048782, -6.9512196, 3.3536587, -0.0369268
0.9321289, -0.1611328, -0.293457, -17.6219521, -7.0731707, 3.1097562, -0.0372625
0.9389648, -0.1523438, -0.2910156, -17.6829281, -6.890244, 2.6829269, -0.0372625
0.9311523, -0.152832, -0.2905273, -18.1707325, -6.890244, 2.3780489, -0.0352483
0.9345703, -0.1499023, -0.2856445, -18.780489, -6.5853658, 2.6829269, -0.0369268
0.9301758, -0.1542969, -0.2768555, -19.0853672, -6.6463418, 2.1341465, -0.0352483
0.9277344, -0.1557617, -0.2734375, -19.5121956, -6.5243902, 2.2560976, -0.0382696
0.9238281, -0.1630859, -0.2670898, -19.7560978, -6.6463418, 1.7682927, -0.0379339
0.9243164, -0.1708984, -0.2675781, -20.1219521, -6.7073174, 1.402439, -0.0399481
0.9306641, -0.1801758, -0.265625, -20.060976, -6.5853658, 0.4878049, -0.0446479
0.9267578, -0.1826172, -0.2631836, -20.060976, -6.5853658, 0.2439024, -0.0439765
0.9267578, -0.1933594, -0.2568359, -19.5731716, -6.6463418, 0.2439024, -0.0433051
0.9291992, -0.1967773, -0.2578125, -19.3292694, -6.890244, 0.1219512, -0.0433051
0.9370117, -0.1904297, -0.2617188, -18.5975609, -6.5243902, -0.4878049, -0.0446479
0.9399414, -0.1845703, -0.2734375, -18.4756107, -6.280488, -0.7926829, -0.0486763
0.940918, -0.184082, -0.2714844, -18.3536587, -6.6463418, -1.2804878, -0.0459907
0.9394531, -0.1777344, -0.2802734, -18.0487804, -6.6463418, -1.5853659, -0.0436408
0.9389648, -0.1743164, -0.2768555, -17.9268303, -6.0975609, -1.5243902, -0.0480049
0.9379883, -0.1655273, -0.2788086, -18.0487804, -5.7317076, -1.4634147, -0.0473335
0.9384766, -0.1606445, -0.2788086, -17.9878044, -5.670732, -1.5853659, -0.0486763
0.9370117, -0.1474609, -0.2749023, -18.4756107, -5.7317076, -2.195122, -0.0500191
0.9389648, -0.1469727, -0.2758789, -18.0487804, -5.7317076, -2.5609756, -0.0527047
0.9375, -0.1533203, -0.2783203, -18.6585369, -5.9756098, -2.9268293, -0.0533761
0.9379883, -0.1621094, -0.2832031, -18.780489, -5.670732, -3.2317073, -0.0527047
0.9375, -0.1738281, -0.2851562, -19.5121956, -5.3658538, -3.5365853, -0.0486763
0.9306641, -0.1757812, -0.2822266, -19.7560978, -5.0609756, -3.6585367, -0.0486763
0.9248047, -0.175293, -0.2802734, -19.6951218, -5.0609756, -3.2317073, -0.0527047
0.9287109, -0.1674805, -0.2763672, -19.1463413, -4.9390244, -3.4146342, -0.0500191
0.9277344, -0.1674805, -0.2709961, -19.2682934, -5, -4.0853658, -0.0486763
0.9306641, -0.1601562, -0.269043, -19.3292694, -4.8780489, -4.5731707, -0.0480049
0.9335938, -0.1577148, -0.2661133, -19.5731716, -4.6341462, -4.8170733, -0.0500191
0.9360352, -0.1557617, -0.2631836, -20, -4.6951222, -5.4268293, -0.0486763
0.9365234, -0.1582031, -0.262207, -20.4268303, -4.6341462, -5.0609756, -0.0486763
0.9365234, -0.1518555, -0.2539062, -20.4878044, -4.5121951, -5.2439027, -0.0446479
0.9365234, -0.1523438, -0.25, -20.5487804, -4.8780489, -5.3658538, -0.0446479
0.9331055, -0.1445312, -0.2460938, -21.0365868, -4.3292685, -5.3048782, -0.0469978
0.9321289, -0.1518555, -0.2509766, -21.2195129, -4.2682929, -5.1829271, -0.0426337
0.9287109, -0.1538086, -0.2563477, -21.7682934, -4.390244, -5.670732, -0.0473335
0.925293, -0.168457, -0.262207, -22.0731716, -4.390244, -6.0365853, -0.0426337
0.9248047, -0.1772461, -0.265625, -21.8902435, -4.4512196, -6.4024391, -0.0433051
0.9248047, -0.1894531, -0.2661133, -21.5853672, -4.5731707, -6.7073174, -0.0439765
0.9277344, -0.1914062, -0.265625, -21.2195129, -4.4512196, -7.0121951, -0.0433051
0.9296875, -0.1938477, -0.2514648, -20.7926826, -4.390244, -7.2560978, -0.0459907
0.9291992, -0.1831055, -0.2460938, -20.4268303, -4.5731707, -7.5, -0.0446479
0.9296875, -0.1694336, -0.2407227, -19.8780499, -4.6341462, -7.8048782, -0.0433051
0.9277344, -0.1635742, -0.234375, -20, -4.6951222, -7.9268293, -0.0433051
0.9316406, -0.1552734, -0.2275391, -20, -4.7560978, -8.5975609, -0.0473335
0.9296875, -0.1640625, -0.2392578, -20.4878044, -4.6951222, -8.780488, -0.0480049
0.9291992, -0.1689453, -0.2436523, -20.6707325, -4.9390244, -8.719512, -0.0493477
0.9287109, -0.1845703, -0.2563477, -21.0975609, -4.7560978, -8.6585369, -0.0500191
0.9282227, -0.1884766, -0.262207, -21.0975609, -4.6951222, -8.9634151, -0.049012
0.9238281, -0.2011719, -0.2714844, -20.7926826, -5, -9.3292685, -0.0513619
0.9204102, -0.2045898, -0.2773438, -20.3048782, -5.0609756, -9.6341467, -0.0540475
0.9296875, -0.2084961, -0.284668, -19.1463413, -5.1829271, -9.9390249, -0.0486763
0.934082, -0.2041016, -0.284668, -19.0853672, -5, -10, -0.0506905
0.9414062, -0.1875, -0.2851562, -18.4756107, -4.8780489, -10, -0.0547189
0.9472656, -0.1689453, -0.28125, -18.1097565, -4.9390244, -9.8780489, -0.056733
0.9580078, -0.1645508, -0.2768555, -18.1707325, -4.7560978, -10.1829271, -0.0527047
0.9609375, -0.1577148, -0.2749023, -18.5975609, -4.5731707, -10.060976, -0.0530404
0.965332, -0.15625, -0.2758789, -18.8414631, -4.2073174, -10.5487804, -0.0486763
0.9614258, -0.1621094, -0.2802734, -19.6951218, -3.7804878, -10.4878054, -0.0439765
0.9594727, -0.1665039, -0.2807617, -19.7560978, -3.4756098, -10.4878054, -0.0446479
0.949707, -0.1787109, -0.2861328, -20.6097565, -3.2317073, -10.4878054, -0.0446479
0.9477539, -0.1860352, -0.2885742, -20.6097565, -3.2317073, -10.4268293, -0.0466621
0.940918, -0.2021484, -0.2905273, -20.9756107, -2.9878049, -10.7926836, -0.0436408
0.9394531, -0.2036133, -0.2919922, -20.4878044, -2.9878049, -10.9756098, -0.0486763
0.9375, -0.1982422, -0.2885742, -19.7560978, -2.7439024, -10.7926836, -0.0500191
0.9394531, -0.1894531, -0.2944336, -19.5731716, -2.6829269, -10.6707315, -0.0527047
0.9443359, -0.1850586, -0.2949219, -19.6951218, -2.1341465, -11.1585369, -0.0513619
0.9433594, -0.1772461, -0.2939453, -19.8780499, -2.1341465, -11.1585369, -0.0520333
0.9423828, -0.1743164, -0.293457, -20.1829281, -2.3170731, -11.341464, -0.0493477
0.9428711, -0.1665039, -0.28125, -20.6707325, -2.1341465, -10.9756098, -0.0459907
0.9472656, -0.1635742, -0.2729492, -20.5487804, -1.8902439, -10.8536587, -0.0459907
0.9526367, -0.1464844, -0.2568359, -20.6097565, -1.3414634, -10.9146347, -0.0459907
0.9545898, -0.1416016, -0.2563477, -20.4878044, -1.402439, -11.280488, -0.0406195
0.9638672, -0.1503906, -0.2578125, -20.9756107, -1.6463414, -11.8902445, -0.0365911
0.9663086, -0.1591797, -0.2646484, -21.0365868, -1.7682927, -12.4390249, -0.0386053
0.9711914, -0.1943359, -0.2768555, -21.5853672, -1.3414634, -12.6219511, -0.0352483
0.9609375, -0.222168, -0.2744141, -21.5853672, -1.2195122, -12.2560978, -0.0359197
0.9589844, -0.2246094, -0.2700195, -20.4268303, -0.9756098, -11.4634151, -0.0352483
0.9614258, -0.2148438, -0.2680664, -19.6341476, -1.2804878, -11.5243902, -0.0352483
0.9575195, -0.2109375, -0.2700195, -18.2317085, -1.5853659, -12.3170738, -0.0392767
0.956543, -0.2114258, -0.2871094, -17.9268303, -1.097561, -13.4146347, -0.0372625
0.9545898, -0.2163086, -0.293457, -17.7439022, -1.402439, -13.780488, -0.0412909
0.9584961, -0.2241211, -0.2929688, -17.2560978, -1.402439, -13.9634151, -0.0396124
0.9658203, -0.2255859, -0.2900391, -16.7682934, -1.5853659, -13.7195129, -0.0359197
0.9775391, -0.2041016, -0.2802734, -15.9146347, -1.5243902, -13.7195129, -0.0352483
0.9804688, -0.1894531, -0.277832, -15.4878054, -1.5853659, -13.841464, -0.0406195
0.9980469, -0.1791992, -0.2749023, -15.8536587, -1.4634147, -14.7560978, -0.042298
0.9907227, -0.1782227, -0.2880859, -16.4634151, -1.2195122, -14.4512196, -0.0419623
0.9902344, -0.1791992, -0.296875, -17.560976, -0.6097561, -14.3902445, -0.0446479
0.9907227, -0.1870117, -0.3149414, -17.8658543, -0.2439024, -13.9024391, -0.0473335
0.9897461, -0.1831055, -0.3173828, -18.5975609, 0, -13.4146347, -0.0473335
0.9970703, -0.1757812, -0.3295898, -19.0243912, 0.1829268, -13.5365858, -0.0459907
1.0019531, -0.175293, -0.3359375, -18.9634151, 0.4268293, -13.780488, -0.0459907
1.0053711, -0.1733398, -0.3413086, -19.0243912, 0.9146342, -14.4512196, -0.0433051
1.0068359, -0.175293, -0.3393555, -18.9634151, 0.9146342, -14.5731707, -0.0406195
1.0019531, -0.1816406, -0.3310547, -19.3292694, 1.5853659, -14.3292685, -0.0426337
0.9960938, -0.1796875, -0.3232422, -19.5731716, 2.0731707, -14.2682934, -0.0412909
0.9838867, -0.1616211, -0.300293, -19.6951218, 3.1097562, -13.4756098, -0.0439765
0.9731445, -0.1318359, -0.2871094, -19.8170738, 3.4756098, -13.1707315, -0.042298
0.9682617, -0.1235352, -0.2792969, -20.1829281, 3.2926829, -13.2926836, -0.0379339
0.9692383, -0.1367188, -0.2626953, -20.3048782, 3.2317073, -13.6585369, -0.0365911
0.9682617, -0.1523438, -0.2568359, -20.6707325, 2.6829269, -14.6341467, -0.0426337
0.9516602, -0.1914062, -0.2641602, -21.0365868, 3.2926829, -14.5121956, -0.0594186
0.9448242, -0.2055664, -0.2709961, -21.1585369, 3.2926829, -14.2073174, -0.0762036
0.9262695, -0.2104492, -0.2841797, -21.2195129, 3.0487804, -13.0487804, -0.0728466
0.925293, -0.2080078, -0.2885742, -20.7926826, 2.1341465, -12.8658543, -0.0560616
0.940918, -0.1958008, -0.2924805, -20, 1.0365853, -13.9024391, -0.0419623
0.9526367, -0.1796875, -0.2954102, -19.5731716, 0.9146342, -14.2073174, -0.0325628
0.9628906, -0.1577148, -0.3017578, -20.3048782, 0.9756098, -14.6951227, -0.0305486
0.9790039, -0.1420898, -0.2939453, -21.0975609, 0.8536586, -14.4512196, -0.0325628
0.9921875, -0.1450195, -0.2875977, -21.8902435, 0.6707317, -13.841464, -0.0345769
1.0048828, -0.1586914, -0.2822266, -22.1341476, 0.7317073, -13.780488, -0.0271916
1.0004883, -0.1689453, -0.2788086, -22.5, 1.2195122, -12.9878054, -0.0271916
0.9833984, -0.184082, -0.2646484, -23.0487804, 1.2195122, -12.8048782, -0.035584
0.9765625, -0.1884766, -0.2602539, -23.1097565, 1.4634147, -12.1951218, -0.0339055
0.9511719, -0.1943359, -0.2504883, -22.7439022, 0.9146342, -12.3170738, -0.0332341
0.9423828, -0.1938477, -0.2397461, -22.560976, 0.7317073, -12.6829271, -0.0302129
0.9331055, -0.1977539, -0.2353516, -22.439024, 0.1829268, -12.8048782, -0.0285344
0.9350586, -0.2036133, -0.2304688, -22.1951218, -0.1829268, -12.9268293, -0.0292058
0.9384766, -0.2109375, -0.2299805, -21.6463413, -0.8536586, -13.5365858, -0.0258488
0.9360352, -0.2226562, -0.237793, -21.7073174, -1.097561, -13.7195129, -0.0271916
0.9365234, -0.2241211, -0.2421875, -21.4634151, -1.3414634, -13.6585369, -0.0325628
0.9370117, -0.2231445, -0.2504883, -21.2195129, -1.402439, -13.4146347, -0.0419623
0.9375, -0.2167969, -0.2568359, -20.7317085, -2.1341465, -13.2317076, -0.0412909
0.9335938, -0.206543, -0.2641602, -20.4878044, -2.0731707, -13.2926836, -0.0325628
0.9335938, -0.1958008, -0.2641602, -20.6097565, -2.5, -13.2317076, -0.0251774
0.9282227, -0.1860352, -0.2719727, -20.060976, -2.6829269, -13.5365858, -0.0218204
0.9277344, -0.1831055, -0.2788086, -20.060976, -2.6829269, -13.780488, -0.0305486
0.9272461, -0.1733398, -0.2827148, -20.6097565, -2.8658538, -13.4756098, -0.042298
0.9287109, -0.1699219, -0.2861328, -20.7926826, -2.6219513, -13.3536587, -0.0506905
0.9321289, -0.1533203, -0.2880859, -21.2195129, -2.5, -13.1097565, -0.0530404
0.9345703, -0.1367188, -0.2895508, -21.6463413, -2.3780489, -12.9878054, -0.0527047
0.9360352, -0.1313477, -0.2866211, -22.0731716, -2.3780489, -12.6219511, -0.0513619
0.940918, -0.137207, -0.2880859, -22.0121956, -2.7439024, -12.560976, -0.0459907
0.9458008, -0.1479492, -0.2880859, -22.1951218, -2.1341465, -12.7439032, -0.0382696
0.9389648, -0.1630859, -0.2758789, -22.2560978, -2.195122, -12.1341467, -0.0302129
0.9335938, -0.1660156, -0.2661133, -22.0121956, -2.195122, -11.8292685, -0.0265202
0.9140625, -0.1513672, -0.2646484, -21.4634151, -1.8292683, -10.9756098, -0.0271916
0.9091797, -0.1401367, -0.2651367, -21.5853672, -1.5243902, -11.0975609, -0.0406195
0.9082031, -0.1362305, -0.2666016, -21.7073174, -2.1341465, -10.9146347, -0.0540475
0.9150391, -0.1396484, -0.2675781, -21.5243912, -2.3780489, -11.341464, -0.0674754
0.9228516, -0.1479492, -0.2763672, -21.5853672, -1.9512196, -11.5853662, -0.0755322
0.918457, -0.1533203, -0.2866211, -21.8902435, -1.8292683, -11.341464, -0.0755322
0.9165039, -0.1420898, -0.2900391, -22.5, -1.3414634, -10.4878054, -0.0815747
0.9101562, -0.1176758, -0.2905273, -22.6219521, -1.1585366, -10, -0.0721752
0.9179688, -0.1123047, -0.2915039, -23.2317085, -1.5853659, -10, -0.0654612
0.949707, -0.1137695, -0.2890625, -23.9634151, -1.9512196, -11.341464, -0.0594186
0.9638672, -0.1279297, -0.2836914, -23.9634151, -1.8292683, -11.7682934, -0.0500191
0.965332, -0.1689453, -0.2612305, -24.5121956, -0.9756098, -11.6463413, -0.0419623
0.9575195, -0.1835938, -0.2509766, -24.6341476, -0.7317073, -11.219512, -0.0392767
0.9404297, -0.1943359, -0.2319336, -23.9024391, -0.6707317, -10.1219511, -0.0396124
0.9306641, -0.1918945, -0.2260742, -23.2317085, -0.3658537, -9.8170738, -0.0392767
0.9125977, -0.175293, -0.2158203, -22.9878063, -0.5487805, -9.6341467, -0.0409552
0.9038086, -0.1572266, -0.2084961, -22.560976, -0.8536586, -9.9390249, -0.0439765
0.9008789, -0.1518555, -0.2094727, -22.439024, -1.5853659, -10.4878054, -0.0466621
0.9047852, -0.140625, -0.215332, -22.2560978, -1.7682927, -10.7926836, -0.0459907
0.9125977, -0.144043, -0.2192383, -22.7439022, -2.1341465, -11.280488, -0.0493477
0.9223633, -0.1665039, -0.2304688, -23.0487804, -2.804878, -11.7682934, -0.0527047
0.9277344, -0.1767578, -0.2338867, -22.5, -2.804878, -11.8902445, -0.0547189
0.9350586, -0.1953125, -0.25, -21.7073174, -2.6829269, -11.5243902, -0.0540475
0.9345703, -0.1967773, -0.2514648, -21.3414631, -3.0487804, -11.0365858, -0.056733
0.9335938, -0.1860352, -0.2553711, -20.060976, -3.4146342, -10.9146347, -0.0580758
0.9345703, -0.171875, -0.253418, -19.5731716, -3.8414636, -10.9146347, -0.0530404
0.949707, -0.1464844, -0.2573242, -18.8414631, -4.0243902, -11.7682934, -0.0540475
0.9648438, -0.1308594, -0.2836914, -18.780489, -3.8414636, -11.9512196, -0.0486763
0.9633789, -0.121582, -0.2890625, -19.6951218, -3.2317073, -11.7682934, -0.0493477
0.9667969, -0.1044922, -0.2749023, -20.060976, -3.3536587, -10.9756098, -0.0480049
0.9711914, -0.0942383, -0.2675781, -19.5731716, -3.2926829, -10.060976, -0.0486763
0.9731445, -0.0820312, -0.2617188, -19.939024, -2.6829269, -9.5731707, -0.0540475
0.9682617, -0.0888672, -0.2675781, -20.3048782, -2.0731707, -9.8170738, -0.0516976
0.9526367, -0.1152344, -0.2753906, -21.0975609, -1.7682927, -9.8170738, -0.0520333
0.9462891, -0.1333008, -0.2817383, -21.2195129, -1.6463414, -9.5731707, -0.0530404
0.9345703, -0.1616211, -0.2871094, -20.4268303, -1.7073171, -9.3292685, -0.0527047
0.9311523, -0.1674805, -0.2851562, -19.8170738, -1.402439, -9.5121956, -0.0500191
0.934082, -0.1542969, -0.2719727, -18.1097565, -1.9512196, -10, -0.0473335
0.949707, -0.1362305, -0.2519531, -17.5, -1.9512196, -10.3658543, -0.0439765
0.9526367, -0.1337891, -0.2470703, -17.0121956, -1.7073171, -11.4634151, -0.0473335
0.9672852, -0.1333008, -0.2460938, -16.3414631, -1.7682927, -11.7682934, -0.0459907
0.9716797, -0.1416016, -0.2548828, -16.2195129, -1.0365853, -11.4634151, -0.0486763
0.9711914, -0.144043, -0.2763672, -16.6463413, -0.4268293, -10.1829271, -0.0520333
0.9702148, -0.1416016, -0.2749023, -16.6463413, -0.4878049, -9.6951218, -0.0493477
0.9697266, -0.1157227, -0.2734375, -16.2195129, -0.3658537, -9.3292685, -0.0463264
0.9746094, -0.1044922, -0.2695312, -15.8536587, -0.4878049, -9.3902445, -0.0473335
0.9804688, -0.0864258, -0.2700195, -15.7317076, -0.3658537, -10.2439022, -0.0459907
0.9912109, -0.0957031, -0.2646484, -16.0975609, -0.2439024, -10.5487804, -0.0446479
1.0048828, -0.1152344, -0.2558594, -15.8536587, -0.0609756, -10.6707315, -0.0473335
1.0073242, -0.1328125, -0.2548828, -15.9146347, -0.1219512, -10.5487804, -0.0449836
1.0019531, -0.140625, -0.2592773, -16.2195129, 0.4878049, -9.5121956, -0.0426337
0.9833984, -0.1464844, -0.2607422, -16.1585369, 0.6097561, -8.780488, -0.0446479
0.9785156, -0.1391602, -0.262207, -15.4878054, 1.097561, -7.6829271, -0.0459907
0.9658203, -0.128418, -0.2666016, -14.7560978, 0.8536586, -7.9878049, -0.0463264
0.9707031, -0.1240234, -0.2675781, -14.1463413, 1.097561, -8.5365858, -0.0486763
0.972168, -0.1220703, -0.2739258, -14.2073174, 1.2195122, -9.3292685, -0.0446479
0.9711914, -0.1264648, -0.277832, -14.3902445, 1.2195122, -9.7560978, -0.0433051
0.9707031, -0.1328125, -0.284668, -14.4512196, 1.9512196, -9.6341467, -0.0426337
0.972168, -0.1337891, -0.2788086, -14.9390249, 1.7073171, -9.3902445, -0.0406195
0.9750977, -0.1298828, -0.262207, -14.9390249, 1.9512196, -8.9024391, -0.0406195
0.9716797, -0.1157227, -0.2470703, -14.6951227, 1.8902439, -8.719512, -0.0419623
0.9750977, -0.1113281, -0.2407227, -14.5731707, 2.5, -8.9024391, -0.0412909
0.9677734, -0.1098633, -0.2416992, -14.6951227, 2.6829269, -8.9634151, -0.0379339
0.9707031, -0.109375, -0.2460938, -15.3658543, 2.9268293, -9.0243902, -0.0379339
0.9741211, -0.1254883, -0.2490234, -15.5487804, 2.804878, -9.5121956, -0.0419623
0.9746094, -0.1269531, -0.2480469, -15.6097565, 3.1097562, -9.3292685, -0.0406195
0.96875, -0.1176758, -0.2519531, -15.2439032, 3.3536587, -9.0243902, -0.0379339
0.9648438, -0.1074219, -0.2514648, -15.1829271, 3.4756098, -8.5365858, -0.0433051
0.9682617, -0.0869141, -0.2358398, -14.8780489, 3.1707318, -8.4756098, -0.0379339
0.9790039, -0.0732422, -0.2216797, -14.2682934, 3.1707318, -8.6585369, -0.0406195
0.9775391, -0.081543, -0.2177734, -14.2073174, 3.2317073, -9.6951218, -0.0379339
0.9780273, -0.1020508, -0.2148438, -14.0243902, 3.2926829, -9.8780489, -0.0339055
0.9755859, -0.1118164, -0.21875, -14.3292685, 3.5365853, -9.9390249, -0.0292058
0.9638672, -0.1391602, -0.2250977, -14.3292685, 3.2317073, -9.2682924, -0.0352483
0.9638672, -0.1337891, -0.2275391, -14.3902445, 3.0487804, -8.9024391, -0.0369268
0.9609375, -0.1025391, -0.2236328, -13.9634151, 2.9878049, -9.2073174, -0.0379339
0.965332, -0.0810547, -0.222168, -12.9878054, 2.4390244, -9.2073174, -0.0433051
0.9868164, -0.0454102, -0.230957, -12.2560978, 1.9512196, -9.9390249, -0.0399481
0.9931641, -0.0371094, -0.2319336, -12.6219511, 1.7682927, -10.2439022, -0.0352483
1.0087891, -0.0366211, -0.2319336, -13.841464, 2.0731707, -10.1829271, -0.0352483
1.0151367, -0.0566406, -0.2299805, -14.1463413, 2.0731707, -9.8170738, -0.0339055
1.0161133, -0.0664062, -0.2324219, -14.9390249, 1.8902439, -8.719512, -0.0412909
1.0131836, -0.0776367, -0.2304688, -14.7560978, 1.8292683, -8.4146347, -0.0406195
1.0117188, -0.0830078, -0.2338867, -14.7560978, 1.8902439, -7.7439027, -0.0459907
1.0073242, -0.0869141, -0.2280273, -14.6341467, 1.2195122, -7.6219516, -0.0392767
1.0073242, -0.0849609, -0.2158203, -14.4512196, 1.3414634, -7.6829271, -0.0359197
0.9980469, -0.0712891, -0.1953125, -13.9024391, 1.1585366, -7.6829271, -0.0345769
0.9960938, -0.0644531, -0.1953125, -13.9634151, 1.402439, -7.6829271, -0.0318914
0.996582, -0.0556641, -0.1967773, -13.9634151, 1.0365853, -7.9878049, -0.0332341
1.0014648, -0.0585938, -0.2041016, -14.0243902, 0.8536586, -8.4146347, -0.0399481
1.0141602, -0.0791016, -0.2255859, -14.0243902, 0.9146342, -8.5975609, -0.0647898
1.027832, -0.0976562, -0.2543945, -13.9024391, 0.7926829, -8.719512, -0.0822461
1.027832, -0.1054688, -0.2587891, -13.780488, 1.0365853, -7.8658538, -0.0809033
1.0317383, -0.1118164, -0.2480469, -14.0243902, 0.8536586, -7.8048782, -0.0641184
1.0336914, -0.1147461, -0.2431641, -13.1097565, 0.7926829, -7.9268293, -0.0446479
1.0244141, -0.1181641, -0.2275391, -12.7439032, 0.8536586, -7.9268293, -0.0298772
1.0205078, -0.1206055, -0.2299805, -12.6829271, 1.2195122, -8.3536587, -0.0339055
1.0092773, -0.1235352, -0.234375, -12.9878054, 1.3414634, -8.4146347, -0.0513619
1.0014648, -0.125, -0.2436523, -13.1707315, 1.6463414, -8.1707315, -0.0580758
1.0009766, -0.1225586, -0.2490234, -12.9878054, 1.7682927, -7.9268293, -0.0715038
1.0039062, -0.1083984, -0.253418, -12.0731707, 2.0121951, -7.8048782, -0.0762036
1.0131836, -0.0742188, -0.2685547, -11.8902445, 2.4390244, -7.9268293, -0.0681468
1.0288086, -0.0327148, -0.2675781, -12.1341467, 2.3170731, -7.9878049, -0.0449836
1.0341797, -0.0214844, -0.2631836, -12.8048782, 2.7439024, -7.8048782, -0.0204776
1.046875, -0.0195312, -0.2548828, -13.3536587, 3.1097562, -7.9878049, -0.0016785
1.0458984, -0.0263672, -0.2524414, -14.6341467, 3.4756098, -7.8048782, 0.0050355
1.034668, -0.0493164, -0.2353516, -15.6707325, 4.390244, -6.7682929, 0.0097353
1.0209961, -0.0537109, -0.2246094, -16.2195129, 4.6341462, -6.0975609, 0.0104067
0.9946289, -0.0556641, -0.2011719, -16.1585369, 5.0609756, -5.670732, 0.0043641
0.984375, -0.0551758, -0.1962891, -15.9756098, 4.8780489, -5.4878049, -0.0063783
0.9584961, -0.0478516, -0.1943359, -15.9146347, 4.8170733, -5.7926831, -0.0191348
0.953125, -0.0478516, -0.2036133, -16.0365849, 4.7560978, -6.4634147, -0.0251774
0.9443359, -0.0649414, -0.2231445, -16.8902435, 4.5731707, -7.5609756, -0.024506
0.9511719, -0.0869141, -0.2407227, -16.8902435, 4.2073174, -7.7439027, -0.0298772
0.9536133, -0.0922852, -0.2436523, -16.7073174, 3.7804878, -8.1707315, -0.0288701
0.9638672, -0.0874023, -0.25, -16.6463413, 3.5975611, -8.0487804, -0.0285344
0.9697266, -0.0751953, -0.2470703, -16.0975609, 3.6585367, -8.1707315, -0.0285344
0.9741211, -0.0605469, -0.2421875, -15.8536587, 4.2073174, -7.8658538, -0.0352483
0.9741211, -0.0488281, -0.2402344, -15.6097565, 4.1463413, -7.9268293, -0.0379339
0.9868164, -0.0351562, -0.2324219, -16.0365849, 4.2682929, -8.3536587, -0.0379339
0.9916992, -0.0336914, -0.2304688, -16.0365849, 4.2682929, -8.719512, -0.0379339
1.0019531, -0.046875, -0.2216797, -15.9756098, 4.8780489, -9.0243902, -0.0473335
1.0009766, -0.0541992, -0.2192383, -15.6097565, 5.0609756, -8.9634151, -0.0540475
1.0043945, -0.0776367, -0.2158203, -15.4268293, 5.5487804, -8.2926826, -0.0661326
1.0087891, -0.0908203, -0.2070312, -14.8170738, 6.0365853, -8.1097565, -0.0755322
1.0078125, -0.0888672, -0.2089844, -14.0853662, 7.1951222, -8.1707315, -0.0647898
0.996582, -0.0830078, -0.2075195, -13.7195129, 7.3170733, -8.5365858, -0.0607614
0.9907227, -0.0795898, -0.2075195, -14.1463413, 7.6829271, -8.719512, -0.0597543
0.9868164, -0.0732422, -0.2036133, -13.780488, 7.1951222, -8.4756098, -0.0560616
0.987793, -0.0708008, -0.2001953, -13.6585369, 7.5, -8.4756098, -0.0607614
0.9941406, -0.0756836, -0.2045898, -12.8048782, 8.4146347, -8.841464, -0.06009
0.9970703, -0.0800781, -0.206543, -12.560976, 8.9024391, -8.719512, -0.0594186
0.9912109, -0.097168, -0.2119141, -12.0121956, 9.3902445, -8.9634151, -0.0594186
0.9887695, -0.0981445, -0.2119141, -12.1341467, 9.4512196, -9.1463413, -0.0500191
0.9750977, -0.0893555, -0.206543, -11.5243902, 8.841464, -8.5975609, -0.03122
0.9726562, -0.0791016, -0.2016602, -11.4024391, 8.1707315, -8.780488, -0.0171206
0.9746094, -0.0791016, -0.1938477, -10.7317076, 7.6219516, -8.841464, -0.0083925
0.9746094, -0.0751953, -0.1923828, -10.6707315, 8.1097565, -9.3902445, -0.0016785
0.972168, -0.0771484, -0.199707, -10.1219511, 7.9268293, -10.060976, -0.0057069
0.9677734, -0.0839844, -0.2084961, -10.4878054, 7.5, -10.2439022, -0.0171206
0.9716797, -0.0844727, -0.2119141, -10.060976, 7.2560978, -10.4878054, -0.024506
0.9750977, -0.0864258, -0.2148438, -10, 6.6463418, -10.3048782, -0.0332341
0.9775391, -0.0786133, -0.2124023, -9.6341467, 6.0365853, -10.3658543, -0.0382696
0.9853516, -0.0800781, -0.2128906, -10.2439022, 5.4268293, -11.1585369, -0.0325628
0.9863281, -0.0830078, -0.2124023, -10.3658543, 5, -11.5243902, -0.03122
0.9824219, -0.0893555, -0.2099609, -10.4878054, 5.3658538, -11.9512196, -0.0359197
0.980957, -0.0898438, -0.2094727, -10.2439022, 5.3048782, -11.5243902, -0.0379339
0.9829102, -0.0805664, -0.2080078, -9.8780489, 5.0609756, -10.7926836, -0.0412909
0.9936523, -0.0517578, -0.2036133, -9.7560978, 4.5731707, -10.4878054, -0.0466621
1.0039062, -0.0424805, -0.2055664, -9.6341467, 4.2073174, -10.9146347, -0.0486763
1.0112305, -0.0429688, -0.206543, -10.2439022, 4.0853658, -11.219512, -0.0513619
1.0136719, -0.0522461, -0.2148438, -10.7317076, 3.8414636, -11.0975609, -0.0527047
1.0195312, -0.0717773, -0.2167969, -11.1585369, 3.4756098, -10.6707315, -0.0520333
1.0136719, -0.0810547, -0.2167969, -11.0365858, 3.0487804, -10.4878054, -0.0527047
1.0053711, -0.090332, -0.2304688, -10.7317076, 3.3536587, -9.3902445, -0.0520333
0.9960938, -0.090332, -0.2402344, -10.7926836, 3.5975611, -9.0853662, -0.0500191
0.9873047, -0.0800781, -0.2597656, -10.6707315, 3.2926829, -8.5975609, -0.0533761
0.9931641, -0.0673828, -0.2714844, -10.3048782, 2.804878, -8.5975609, -0.0553902
0.996582, -0.0639648, -0.2753906, -10.4878054, 2.5609756, -9.0243902, -0.0520333
1.0019531, -0.0810547, -0.2758789, -10.3658543, 2.5, -9.3292685, -0.056733
1.0058594, -0.0849609, -0.2719727, -11.0365858, 2.3170731, -10, -0.0580758
1.0097656, -0.0927734, -0.2602539, -11.5243902, 2.2560976, -9.4512196, -0.0587472
1.0092773, -0.0874023, -0.2563477, -12.0121956, 2.195122, -9.2073174, -0.0553902
1.0039062, -0.0742188, -0.2460938, -12.2560978, 2.1341465, -8.5975609, -0.0574044
1.0048828, -0.0634766, -0.2485352, -12.560976, 1.9512196, -8.6585369, -0.0621042
1.0146484, -0.0498047, -0.2358398, -13.6585369, 1.5853659, -8.719512, -0.0594186
1.0146484, -0.0507812, -0.2392578, -14.0243902, 1.2195122, -8.6585369, -0.0607614
1.019043, -0.0615234, -0.2529297, -15.9756098, 1.3414634, -8.1097565, -0.0674754
1.0166016, -0.0732422, -0.2705078, -16.8902435, 1.4634147, -7.8658538, -0.0661326
1.0166016, -0.0791016, -0.2753906, -17.9268303, 1.7682927, -6.890244, -0.0647898
1.0102539, -0.0917969, -0.3076172, -18.7195129, 1.8292683, -6.3414636, -0.0651255
1.0083008, -0.0927734, -0.3217773, -19.939024, 1.7682927, -5.9146342, -0.0637827
1.0053711, -0.0981445, -0.3295898, -20.7317085, 1.7073171, -6.5243902, -0.0621042
1.0039062, -0.0927734, -0.3198242, -21.3414631, 1.7682927, -6.5243902, -0.0560616
1.0087891, -0.0883789, -0.2900391, -21.5853672, 2.1341465, -6.5853658, -0.056733
1.0107422, -0.0834961, -0.2758789, -21.9512196, 2.0121951, -6.5243902, -0.0527047
1.012207, -0.0654297, -0.2543945, -22.9268303, 2.3170731, -6.1585369, -0.0466621
1.0087891, -0.0581055, -0.2416992, -23.1707325, 1.9512196, -5.7926831, -0.0473335
1.0087891, -0.0629883, -0.2441406, -24.6951218, 2.0121951, -5.1829271, -0.045655
1.0131836, -0.078125, -0.2592773, -25.8536587, 1.8292683, -4.9390244, -0.0466621
1.0175781, -0.0947266, -0.2651367, -26.8902454, 1.097561, -4.5121951, -0.0513619
1.0083008, -0.1123047, -0.2646484, -27.1951218, 0.7926829, -3.9024391, -0.0513619
1.0068359, -0.1196289, -0.2539062, -27.1951218, -0.1829268, -3.7804878, -0.0520333
0.9970703, -0.1225586, -0.2397461, -27.1951218, -1.097561, -3.7195122, -0.0503548
0.987793, -0.1176758, -0.2329102, -27.1951218, -1.1585366, -3.9024391, -0.0486763
0.9667969, -0.1035156, -0.2211914, -27.9878063, -2.195122, -3.9634147, -0.0506905
0.9633789, -0.0888672, -0.2275391, -28.5365868, -2.5, -3.7804878, -0.0473335
0.9599609, -0.0668945, -0.2397461, -30.2439022, -3.5365853, -4.0853658, -0.0446479
0.9614258, -0.0610352, -0.2485352, -30.5487804, -4.1463413, -3.9024391, -0.0406195
0.9760742, -0.0678711, -0.2817383, -32.1951218, -4.6951222, -3.9634147, -0.0426337
0.9858398, -0.0649414, -0.3115234, -33.1707306, -4.8170733, -3.9024391, -0.0446479
0.9882812, -0.0625, -0.3149414, -35.3658562, -5.0609756, -2.7439024, -0.0486763
1.0024414, -0.0664062, -0.3115234, -36.1585388, -5.2439027, -2.195122, -0.0433051
1.0053711, -0.0668945, -0.3017578, -36.9512215, -5.670732, -1.7682927, -0.0399481
0.9975586, -0.059082, -0.2680664, -38.2317085, -5.670732, -1.097561, -0.0409552
0.9902344, -0.0541992, -0.2519531, -38.841465, -6.1585369, -0.4878049, -0.0365911
0.9726562, -0.0444336, -0.2172852, -40.1219521, -7.1951222, 0.7926829, -0.0365911
0.9741211, -0.0444336, -0.2041016, -40.3048782, -7.6219516, 1.3414634, -0.0365911
0.9672852, -0.0581055, -0.1967773, -41.341465, -8.5975609, 1.8292683, -0.0345769
0.9711914, -0.0742188, -0.1938477, -41.6463432, -8.841464, 2.1341465, -0.0305486
0.9804688, -0.1079102, -0.1787109, -41.6463432, -10.5487804, 2.5609756, -0.03122
0.9936523, -0.1357422, -0.1577148, -41.2804871, -11.5243902, 2.5609756, -0.0318914
0.9936523, -0.1445312, -0.1630859, -40.6707344, -13.1707315, 2.2560976, -0.0325628
0.9985352, -0.1655273, -0.1982422, -40.7317085, -14.2073174, 2.5, -0.0332341
0.9975586, -0.1743164, -0.2329102, -40.8536606, -15.1829271, 3.1707318, -0.0339055
0.9926758, -0.1860352, -0.2954102, -41.4634171, -16.2195129, 3.5365853, -0.03122
0.9956055, -0.1772461, -0.3198242, -40.6097565, -17.2560978, 4.1463413, -0.0339055
1.0068359, -0.1547852, -0.3286133, -39.2682953, -18.6585369, 4.6951222, -0.0332341
1.0253906, -0.1474609, -0.3144531, -38.4146347, -19.8780499, 4.2073174, -0.0328985
1.0390625, -0.1484375, -0.2724609, -37.8658562, -21.4634151, 3.9634147, -0.0369268
1.0366211, -0.1606445, -0.246582, -37.9268303, -21.8292694, 3.9024391, -0.0436408
1.0268555, -0.1689453, -0.2451172, -39.1463432, -22.8048782, 4.4512196, -0.0412909
0.996582, -0.1694336, -0.2475586, -39.5121956, -23.7195129, 5.3658538, -0.0382696
0.9848633, -0.1645508, -0.2578125, -39.0853653, -25, 7.1341467, -0.0359197
0.9711914, -0.1347656, -0.2958984, -38.7195129, -26.2195129, 8.0487804, -0.0392767
0.96875, -0.1191406, -0.3139648, -38.9024391, -26.7682934, 8.3536587, -0.0433051
0.9746094, -0.0898438, -0.3457031, -39.5731735, -28.1707325, 7.8658538, -0.0439765
0.984375, -0.0947266, -0.3491211, -40.5487823, -28.9024391, 7.3170733, -0.0500191
0.9907227, -0.1108398, -0.3447266, -41.1585388, -29.9390259, 7.0121951, -0.0543832
0.9858398, -0.1186523, -0.3383789, -41.5243912, -30, 7.0731707, -0.0473335
0.9829102, -0.1147461, -0.3183594, -41.8292694, -30.7317085, 8.780488, -0.0459907
0.9750977, -0.0859375, -0.2788086, -41.7073174, -31.7073174, 9.8170738, -0.0493477
0.9785156, -0.0693359, -0.2719727, -41.2804871, -33.1097565, 11.0975609, -0.0500191
0.9794922, -0.0493164, -0.2734375, -41.341465, -33.5975609, 11.4634151, -0.0540475
0.9780273, -0.0419922, -0.2768555, -42.0731735, -34.6951218, 12.560976, -0.0527047
0.9780273, -0.0498047, -0.3041992, -43.0487823, -36.4634171, 13.4146347, -0.0473335
0.9853516, -0.065918, -0.3217773, -43.6585388, -37.1951218, 13.7195129, -0.0473335
0.9912109, -0.1118164, -0.3476562, -45.3048782, -38.4756088, 14.6341467, -0.049012
0.9902344, -0.1362305, -0.34375, -45.5487823, -39.2682953, 14.8170738, -0.0473335
0.9858398, -0.1552734, -0.3139648, -44.7560997, -41.4634171, 15.9756098, -0.0433051
0.9819336, -0.1538086, -0.3032227, -44.0243912, -42.6829262, 16.5853653, -0.0473335
0.9736328, -0.1337891, -0.300293, -44.3292694, -44.6341476, 16.9512196, -0.0406195
0.9741211, -0.1206055, -0.3388672, -44.7560997, -45.1829262, 16.7073174, -0.0342412
0.9750977, -0.1254883, -0.3647461, -45.9146347, -46.8902435, 16.8902435, -0.0325628
0.9985352, -0.1518555, -0.3999023, -46.0975609, -47.8658562, 17.2560978, -0.0339055
1.0141602, -0.1582031, -0.4150391, -44.9390259, -49.3292694, 18.3536587, -0.0406195
1.027832, -0.1582031, -0.4248047, -43.2926826, -50.7926826, 19.7560978, -0.0466621
1.0327148, -0.1474609, -0.4228516, -42.9268303, -51.2804909, 20.4268303, -0.0446479
1.03125, -0.1323242, -0.4013672, -42.1341476, -53.0487823, 21.0365868, -0.0419623
1.0263672, -0.1323242, -0.3896484, -42.0121956, -53.5975609, 21.0365868, -0.0412909
1.0249023, -0.1411133, -0.3930664, -42.8658562, -55.1219521, 21.8902435, -0.0382696
1.0185547, -0.1577148, -0.4165039, -43.841465, -55.6707344, 22.3780499, -0.0332341
1.0117188, -0.1875, -0.4467773, -45.1829262, -57.0731735, 23.7195129, -0.03122
1.0146484, -0.184082, -0.4384766, -45.5487823, -57.8048782, 24.3902435, -0.0345769
1.0141602, -0.1591797, -0.4335938, -44.6951218, -59.2073174, 24.9390259, -0.0318914
1.0180664, -0.1176758, -0.4384766, -44.6951218, -60, 24.7560978, -0.0365911
1.0209961, -0.1118164, -0.4462891, -44.8170738, -61.0975609, 24.5731716, -0.0392767
1.0366211, -0.1469727, -0.4760742, -44.3292694, -62.8048782, 25.060976, -0.0369268
1.0483398, -0.1738281, -0.4785156, -43.3536606, -63.7195129, 25.5487804, -0.0382696
1.0620117, -0.2016602, -0.4677734, -42.2560997, -65.2439041, 26.5243912, -0.0339055
1.0644531, -0.203125, -0.4614258, -42.0121956, -65.7926865, 27.0121956, -0.035584
1.0605469, -0.1850586, -0.4584961, -41.2804871, -67.3780518, 27.3170738, -0.0386053
1.0566406, -0.1835938, -0.4536133, -40.8536606, -68.5975647, 26.7682934, -0.0392767
1.0561523, -0.1660156, -0.4418945, -39.8780479, -71.0365906, 27.1951218, -0.0379339
1.0488281, -0.144043, -0.4682617, -39.8170738, -72.0121994, 27.6219521, -0.0382696
1.0463867, -0.1293945, -0.5004883, -40.9146347, -73.5975647, 29.9390259, -0.0392767
1.0576172, -0.112793, -0.5556641, -41.8292694, -74.0853653, 30.9146347, -0.0399481
1.0654297, -0.105957, -0.5722656, -43.7195129, -75.6097565, 32.8048782, -0.0480049
1.0839844, -0.1191406, -0.5742188, -45.6097565, -77.5, 34.0853653, -0.0540475
1.0947266, -0.1196289, -0.5668945, -46.5853653, -78.2317123, 34.8170738, -0.0580758
1.0908203, -0.125, -0.5932617, -49.3292694, -78.9024429, 36.2804871, -0.0637827
1.0825195, -0.1230469, -0.625, -50.7926826, -78.6585388, 37.2560997, -0.0560616
1.0668945, -0.1274414, -0.6904297, -53.9024391, -78.6585388, 40.0609779, -0.056733
1.0708008, -0.1357422, -0.7236328, -55.18293, -78.7804871, 41.0975609, -0.0607614
1.081543, -0.1381836, -0.7709961, -57.1951218, -77.1951218, 42.9878044, -0.0610971
1.112793, -0.1474609, -0.7470703, -57.2560997, -76.4024429, 43.4756126, -0.066804
1.1298828, -0.1518555, -0.706543, -56.341465, -75.6097565, 43.5365868, -0.0674754
1.1572266, -0.1831055, -0.6000977, -55.4268303, -75.6707306, 43.3536606, -0.0661326
1.1567383, -0.199707, -0.5581055, -54.0853653, -76.2804871, 43.1707344, -0.0597543
1.1425781, -0.2265625, -0.5488281, -54.7560997, -77.1341476, 44.2073174, -0.0486763
1.125, -0.2358398, -0.5751953, -55.18293, -77.8048782, 44.9390259, -0.0409552
1.1123047, -0.2319336, -0.6704102, -55.6097565, -78.5975647, 46.5243912, -0.0345769
1.1162109, -0.2260742, -0.7084961, -55.6097565, -79.0243912, 47.1951218, -0.024506
1.1499023, -0.1992188, -0.7177734, -53.4146347, -79.7560959, 46.8292694, -0.0224918
1.1694336, -0.1928711, -0.6826172, -51.5853653, -80.4878082, 46.1585388, -0.0191348
1.2045898, -0.2099609, -0.5791016, -46.6463432, -81.9512177, 44.0853653, -0.0221561
1.2124023, -0.262207, -0.5039062, -44.9390259, -82.7439041, 43.4146347, -0.0265202
1.1967773, -0.2788086, -0.4868164, -42.5, -85.9756088, 43.3536606, -0.0318914
1.1616211, -0.2885742, -0.5175781, -41.7073174, -87.7439041, 43.4756126, -0.0392767
1.1489258, -0.277832, -0.5576172, -40.4878044, -91.2804871, 44.3902435, -0.0433051
1.1455078, -0.2387695, -0.6342773, -38.9634171, -93.6585388, 44.0853653, -0.0446479
1.1611328, -0.2197266, -0.6499023, -37.8658562, -94.8780518, 42.8048782, -0.0459907
1.2197266, -0.2016602, -0.6499023, -35.3048782, -97.3170776, 40.7317085, -0.0459907
1.2475586, -0.2016602, -0.6342773, -34.3292694, -98.5975647, 39.5731735, -0.0459907
1.2788086, -0.2197266, -0.628418, -33.7195129, -101.5243912, 38.5975609, -0.0412909
1.2836914, -0.2299805, -0.6499023, -33.6585388, -102.5, 39.0853653, -0.0426337
1.2641602, -0.2304688, -0.7036133, -34.7560997, -104.6951218, 41.5243912, -0.0433051
1.2460938, -0.2070312, -0.706543, -34.6951218, -106.2804871, 42.7439041, -0.0359197
1.2480469, -0.1918945, -0.6943359, -33.6585388, -108.0487823, 43.9024391, -0.0339055
1.2573242, -0.1762695, -0.6503906, -32.9878044, -108.8414688, 43.7804871, -0.0325628
1.2646484, -0.1855469, -0.6347656, -31.7682934, -110.9756088, 43.4146347, -0.0359197
1.2641602, -0.2070312, -0.6328125, -31.7682934, -114.0853653, 43.2317085, -0.0399481
1.2612305, -0.2138672, -0.6450195, -32.0731697, -115.3048782, 43.6585388, -0.0419623
1.2509766, -0.2250977, -0.6762695, -31.7073174, -118.2317123, 44.7560997, -0.0419623
1.2548828, -0.2226562, -0.7006836, -30.9146347, -119.4512253, 45.0609779, -0.0406195
1.2666016, -0.2226562, -0.7207031, -30.060976, -121.8902435, 45.8536606, -0.0433051
1.2749023, -0.2275391, -0.7167969, -29.5121956, -123.2317123, 46.0365868, -0.0486763
1.2734375, -0.2333984, -0.6982422, -28.5975609, -125.6097565, 46.2804871, -0.0486763
1.2485352, -0.2172852, -0.6938477, -27.7439022, -126.9512253, 46.4634171, -0.0513619
1.2304688, -0.2158203, -0.6987305, -26.8292694, -129.3292694, 47.3780518, -0.0527047
1.2011719, -0.21875, -0.6938477, -26.0975609, -130.4268341, 47.9878044, -0.0486763
1.1933594, -0.2241211, -0.6918945, -24.8780499, -133.4146423, 48.4756126, -0.0540475
1.1889648, -0.2392578, -0.6967773, -23.6585369, -136.2195129, 48.2926826, -0.0574044
1.1801758, -0.2470703, -0.6987305, -23.4146347, -137.86586, 48.1707344, -0.0580758
1.1728516, -0.2568359, -0.6977539, -22.2560978, -140.8536682, 48.2926826, -0.056733
1.159668, -0.2509766, -0.6977539, -21.7073174, -142.1341553, 48.6585388, -0.0513619
1.1445312, -0.2265625, -0.7143555, -21.7073174, -144.2073212, 49.0853653, -0.0459907
1.1318359, -0.222168, -0.7094727, -22.5, -145.7317047, 49.3292694, -0.0500191
1.1166992, -0.2348633, -0.7016602, -22.3780499, -149.146347, 49.6341476, -0.0473335
1.0869141, -0.2568359, -0.6977539, -22.0731716, -150.6097565, 50.1219521, -0.0486763
1.0737305, -0.2685547, -0.6982422, -21.280489, -153.3536682, 50.7317085, -0.0473335
1.0537109, -0.2724609, -0.715332, -20.5487804, -154.6341553, 51.2195129, -0.0406195
1.0483398, -0.2675781, -0.7280273, -19.6341476, -157.1951294, 51.6463432, -0.0352483
1.0371094, -0.2670898, -0.7480469, -19.0243912, -159.8170776, 51.2195129, -0.0339055
1.0336914, -0.2719727, -0.762207, -19.1463413, -160.9146423, 51.2804909, -0.0339055
1.0258789, -0.2866211, -0.7675781, -18.5975609, -162.86586, 51.341465, -0.03122
1.0249023, -0.2866211, -0.7539062, -17.7439022, -164.2073212, 51.7682953, -0.0339055
1.015625, -0.2919922, -0.722168, -14.8780489, -166.7682953, 51.5853653, -0.0359197
1.0048828, -0.2890625, -0.722168, -14.0853662, -167.9878082, 51.5853653, -0.0339055
0.9785156, -0.269043, -0.7607422, -14.2682934, -169.8780518, 51.8292694, -0.0396124
0.9414062, -0.2583008, -0.7651367, -14.5121956, -171.2804871, 52.0731735, -0.0466621
0.9384766, -0.2705078, -0.7485352, -12.8048782, -175, 52.4390259, -0.0493477
0.9321289, -0.3056641, -0.7260742, -11.8902445, -176.7682953, 52.8048782, -0.0493477
0.9223633, -0.3232422, -0.7333984, -11.1585369, -178.7804871, 52.6829262, -0.0493477
0.8847656, -0.324707, -0.7875977, -11.4634151, -180.1829376, 53.0487823, -0.049012
0.8745117, -0.3188477, -0.8134766, -11.4024391, -180.7317047, 53.841465, -0.0681468
0.8652344, -0.277832, -0.8481445, -10.5487804, -182.5609741, 54.9390259, -0.0822461
0.8676758, -0.2490234, -0.8540039, -10.3048782, -183.2317047, 55, -0.073518
0.8857422, -0.2319336, -0.8461914, -10.8536587, -184.0243988, 55.0609779, -0.0607614
0.8857422, -0.2436523, -0.8388672, -11.4024391, -184.8170776, 55.4878044, -0.0409552
0.8759766, -0.2729492, -0.8413086, -12.1951218, -186.0365906, 56.7682953, -0.0325628
0.8549805, -0.2993164, -0.8305664, -12.9268293, -187.012207, 57.8658562, -0.024506
0.8383789, -0.3085938, -0.824707, -11.9512196, -188.7804871, 60.1219521, -0.0198062
0.8144531, -0.315918, -0.8237305, -11.1585369, -189.3902435, 61.0365868, -0.0238346
0.8032227, -0.3125, -0.8359375, -9.8780489, -190.3048859, 62.5609779, -0.0271916
0.7861328, -0.2919922, -0.8500977, -9.5121956, -190.7926941, 63.1097565, -0.0298772
0.7817383, -0.2802734, -0.8442383, -9.1463413, -191.4024506, 62.9878082, -0.03122
0.78125, -0.284668, -0.8325195, -8.841464, -192.7439117, 62.8048782, -0.0302129
0.7768555, -0.2924805, -0.8349609, -8.9634151, -193.0487823, 62.8048782, -0.03122
0.7597656, -0.2973633, -0.8535156, -9.2682924, -193.5975647, 63.841465, -0.0365911
0.7553711, -0.3085938, -0.8647461, -8.841464, -194.2073212, 64.4512177, -0.0439765
0.7636719, -0.3276367, -0.8798828, -7.0731707, -195.2439117, 65.7317123, -0.0436408
0.7729492, -0.3461914, -0.8574219, -5.9146342, -195.7317047, 65.9756088, -0.0476692
0.7758789, -0.3491211, -0.8564453, -4.0243902, -197.1951294, 66.0975647, -0.0486763
0.7514648, -0.3427734, -0.9018555, -3.9024391, -197.6219482, 66.1585388, -0.0480049
0.7363281, -0.3271484, -0.9360352, -4.1463413, -197.2561035, 67.1951218, -0.0459907
0.7143555, -0.3110352, -0.9428711, -3.7804878, -197.7439117, 68.5975647, -0.0480049
0.7148438, -0.3125, -0.9165039, -2.9878049, -198.5975647, 68.8414688, -0.0433051
0.7163086, -0.3369141, -0.8696289, -1.0365853, -199.9390259, 68.6585388, -0.0399481
0.7099609, -0.3481445, -0.8808594, -0.2439024, -200.1219635, 67.8658524, -0.0399481
0.6801758, -0.3344727, -0.9775391, -3.2926829, -198.9024506, 68.2317123, -0.0379339
0.6660156, -0.2963867, -1.0053711, -5.0609756, -198.9024506, 68.4756088, -0.0406195
0.6723633, -0.300293, -1, -4.390244, -200.2439117, 68.8414688, -0.0365911
0.7050781, -0.3154297, -1.0146484, -3.3536587, -200.3048859, 68.9634171, -0.0372625
0.7177734, -0.3276367, -1.0083008, -3.5365853, -199.0853729, 69.3292694, -0.0433051
0.7138672, -0.3496094, -0.9848633, -4.0243902, -198.5365906, 69.6341476, -0.0379339
0.7099609, -0.3588867, -0.972168, -3.4756098, -198.4146423, 70.0609741, -0.0359197
0.6958008, -0.3740234, -0.9287109, -1.8292683, -199.0243988, 71.0975647, -0.0379339
0.6879883, -0.3754883, -0.9042969, -0.7317073, -199.9390259, 71.0365906, -0.0409552
0.6665039, -0.355957, -0.9033203, -0.2439024, -200.6707306, 70.4878082, -0.0459907
0.6445312, -0.3530273, -0.9101562, -0.6097561, -200.8536682, 70.18293, -0.0436408
0.6142578, -0.355957, -0.9228516, -0.1219512, -202.8048859, 70.2439041, -0.0453193
0.6103516, -0.3676758, -0.9472656, 0.4878049, -203.7195129, 70.4268341, -0.0446479
0.6123047, -0.3662109, -0.9580078, 1.402439, -204.4512177, 70.6707306, -0.0453193
0.6152344, -0.3486328, -0.9545898, 1.6463414, -204.6951294, 70.4878082, -0.0449836
0.6225586, -0.3393555, -0.9394531, 3.5365853, -205.4878082, 70.0609741, -0.0406195
0.6352539, -0.3422852, -0.9082031, 5.7926831, -206.7682953, 69.8780518, -0.0305486
0.6342773, -0.3481445, -0.9072266, 6.4634147, -207.2561035, 70.1219559, -0.0302129
0.6152344, -0.355957, -0.9536133, 6.5853658, -207.9268341, 71.4024429, -0.0258488
0.6020508, -0.3647461, -0.9799805, 6.5853658, -208.2926941, 72.3780518, -0.03122
0.5800781, -0.3657227, -0.9941406, 7.6829271, -209.512207, 73.9634171, -0.0372625
0.5761719, -0.3588867, -0.9907227, 8.9024391, -209.8780518, 74.5121994, -0.0412909
0.5688477, -0.3339844, -1.0146484, 10.1829271, -208.9024506, 75, -0.0466621
0.546875, -0.324707, -1.0302734, 10.3048782, -208.2926941, 75, -0.0473335
0.5444336, -0.3276367, -1.0273438, 9.8170738, -208.5975647, 75.5487823, -0.0473335
0.5439453, -0.3232422, -1.0297852, 9.9390249, -208.9634247, 76.0975647, -0.0446479
0.5415039, -0.3291016, -1.0292969, 10.1829271, -208.2317047, 77.5609741, -0.0453193
0.5390625, -0.3393555, -1.0141602, 10, -207.7439117, 78.8414688, -0.0433051
0.5317383, -0.3442383, -1.0170898, 9.8170738, -207.9878082, 79.7560959, -0.0439765
0.5141602, -0.3413086, -1.0219727, 8.9634151, -207.7439117, 81.0365906, -0.0426337
0.5092773, -0.3374023, -1.027832, 8.3536587, -207.8048859, 81.4634171, -0.0392767
0.4995117, -0.3291016, -1.0668945, 7.9268293, -207.1951294, 82.3780518, -0.0466621
0.4960938, -0.324707, -1.0864258, 7.3170733, -206.4634247, 82.5609741, -0.0473335
0.5048828, -0.324707, -1.1044922, 7.0731707, -205.7926941, 83.9024429, -0.0473335
0.512207, -0.3149414, -1.0473633, 6.6463418, -205.6097565, 84.3902435, -0.0520333
0.5097656, -0.2978516, -1.0019531, 5.8536587, -206.0975647, 84.9390259, -0.0513619
0.4921875, -0.2944336, -0.9492188, 5.8536587, -206.1585388, 84.8780518, -0.0476692
0.4741211, -0.3022461, -0.9570312, 4.5731707, -205.9146423, 85.7317123, -0.0463264
0.4365234, -0.3178711, -1.0117188, 1.097561, -207.0731812, 87.4390259, -0.0513619
0.4204102, -0.3256836, -1.0405273, 0.1219512, -207.4390259, 88.2317123, -0.0540475
0.4091797, -0.3549805, -1.0708008, 0.8536586, -207.6829376, 90.1219559, -0.0574044
0.4140625, -0.3632812, -1.0546875, 1.9512196, -207.86586, 90.18293, -0.0547189
0.4291992, -0.3710938, -1.0200195, 4.390244, -208.4146423, 90.3048782, -0.0486763
0.4316406, -0.3642578, -1.0205078, 5.609756, -207.6829376, 90.3048782, -0.0506905
0.4306641, -0.3452148, -1.0332031, 5.9146342, -206.646347, 89.9390259, -0.0513619
0.4223633, -0.3364258, -1.0117188, 6.1585369, -206.7682953, 89.9390259, -0.0439765
0.421875, -0.331543, -1.0146484, 7.3780489, -207.86586, 90.6707306, -0.0436408
0.4077148, -0.3417969, -1.0283203, 7.5609756, -208.2317047, 91.2804871, -0.0406195
0.4077148, -0.3422852, -1.0341797, 6.6463418, -207.9878082, 92.0731735, -0.0365911
0.394043, -0.3398438, -1.0522461, 5.670732, -207.6829376, 92.9268341, -0.0382696
0.3867188, -0.3359375, -1.0585938, 5.7926831, -207.7439117, 93.1707306, -0.0399481
0.3769531, -0.3305664, -1.0703125, 6.2195125, -207.6219635, 93.4146347, -0.0439765
0.3735352, -0.3276367, -1.065918, 6.5853658, -207.4390259, 93.9634171, -0.0453193
0.3701172, -0.3203125, -1.0493164, 6.1585369, -206.9512177, 94.9390259, -0.0480049
0.3662109, -0.3251953, -1.0341797, 5.5487804, -206.5243988, 95.1219559, -0.0433051
0.347168, -0.3393555, -1.0395508, 2.9268293, -206.5243988, 95.1219559, -0.0406195
0.3139648, -0.3398438, -1.1157227, 1.402439, -205.5487823, 95.7317123, -0.0433051
0.3046875, -0.3349609, -1.1533203, -2.2560976, -204.0853729, 96.8902435, -0.0436408
0.309082, -0.3188477, -1.1660156, -3.4756098, -203.7804871, 97.4390259, -0.0446479
0.328125, -0.3134766, -1.159668, -2.9268293, -203.2926941, 97.5, -0.0412909
0.355957, -0.324707, -1.1000977, -2.1341465, -201.7073212, 96.5853653, -0.0433051
0.3652344, -0.3422852, -1.0541992, -2.0731707, -201.5243988, 95.8536606, -0.0382696
0.347168, -0.3676758, -0.9970703, -2.4390244, -201.4634247, 96.2804871, -0.0392767
0.3271484, -0.3730469, -0.9956055, -2.2560976, -201.2804871, 96.9512253, -0.0419623
0.2919922, -0.3544922, -1.0097656, -2.0731707, -201.5853729, 98.1707306, -0.0419623
0.2871094, -0.3388672, -1.0336914, -1.8902439, -201.7682953, 98.1707306, -0.0406195
0.2919922, -0.3378906, -1.0761719, -1.3414634, -201.8902435, 96.7682953, -0.0419623
0.3076172, -0.3696289, -1.0458984, -0.9146342, -201.9512177, 95.7317123, -0.0439765
0.3110352, -0.3867188, -1.0131836, 0.8536586, -203.0487823, 94.3902435, -0.0446479
0.3051758, -0.3891602, -0.96875, 2.3170731, -203.1707306, 94.146347, -0.0433051
0.2939453, -0.3706055, -0.9770508, 4.6951222, -202.3780518, 94.7561035, -0.0406195
0.2719727, -0.324707, -1.0439453, 4.9390244, -201.0975647, 94.6951218, -0.0473335
0.2695312, -0.315918, -1.0605469, 4.2682929, -200.9756165, 94.3292694, -0.0553902
0.269043, -0.3520508, -1.0488281, 2.9268293, -202.0731812, 93.2317123, -0.0547189
0.2705078, -0.3764648, -1.0356445, 2.4390244, -201.8292694, 93.0487823, -0.056733
0.2460938, -0.3974609, -1.0288086, 2.0731707, -200.1829376, 93.7804871, -0.056733
0.2348633, -0.387207, -1.0170898, 2.3780489, -199.6951294, 94.3902435, -0.0621042
0.2128906, -0.3447266, -1.0009766, 3.9634147, -200.1219635, 94.0243912, -0.0708324
0.2192383, -0.3105469, -1.0146484, 4.6341462, -199.8780518, 93.6585388, -0.0788891
0.2241211, -0.3061523, -1.0380859, 3.6585367, -198.2317047, 92.3780518, -0.0849317
0.222168, -0.3154297, -1.0878906, 1.7682927, -197.1341553, 92.0731735, -0.0815747
0.2192383, -0.3222656, -1.09375, -1.5853659, -195.5487823, 92.5, -0.0758679
0.2236328, -0.3413086, -1.0859375, -2.6219513, -194.8780518, 93.4756088, -0.0594186
0.2324219, -0.3393555, -1.0732422, -2.7439024, -193.7195129, 93.8414688, -0.0433051
0.2158203, -0.3256836, -1.0395508, -2.7439024, -192.012207, 93.7804871, -0.0224918
0.2128906, -0.3251953, -1.0092773, -2.804878, -191.2804871, 93.4146347, -0.011078
0.1958008, -0.3525391, -0.9482422, -3.2926829, -191.0365906, 92.5609741, -0.0030213
0.1801758, -0.3706055, -0.9501953, -4.3292685, -190.6097565, 92.5609741, -0.0010071
0.1357422, -0.3911133, -0.965332, -6.280488, -189.2073212, 92.8048782, -0.0083925
0.1079102, -0.4052734, -0.9506836, -6.280488, -189.2073212, 92.6219559, -0.0137636
0.097168, -0.4082031, -0.9516602, -3.5975611, -190.5487823, 92.0121994, -0.0208133
0.0966797, -0.3886719, -0.9487305, -2.0731707, -190.4878082, 91.1585388, -0.0238346
0.0981445, -0.3833008, -0.949707, -0.3048781, -189.6951294, 88.5975647, -0.0298772
0.0952148, -0.3798828, -0.9331055, 0.7926829, -188.7804871, 87.0121994, -0.03122
0.09375, -0.378418, -0.9111328, 1.3414634, -189.2073212, 86.7073212, -0.0325628
0.0917969, -0.355957, -0.8789062, 2.0121951, -190.1219482, 85.9146347, -0.0359197
0.0878906, -0.3408203, -0.8916016, 2.1341465, -189.6951294, 85.6097565, -0.0406195
0.0717773, -0.3232422, -0.9770508, -0.3048781, -187.2561035, 85.1219559, -0.0399481
0.0654297, -0.3291016, -0.996582, -2.0121951, -186.7073212, 85.2439041, -0.0439765
0.078125, -0.3422852, -0.9506836, -3.5975611, -188.2926941, 85.3048782, -0.0446479
0.0834961, -0.3388672, -0.9125977, -2.8658538, -188.7195129, 84.4512253, -0.0406195
0.0722656, -0.3354492, -0.9248047, -2.6829269, -186.4024506, 83.9024429, -0.0392767
0.0493164, -0.3300781, -0.9438477, -3.2926829, -185.0609741, 83.9634171, -0.0379339
0.0327148, -0.3374023, -0.9248047, -4.1463413, -185, 84.5731735, -0.0392767
0.0249023, -0.3510742, -0.8745117, -3.2317073, -186.4024506, 84.6951218, -0.0406195
0.0112305, -0.3447266, -0.8632812, -3.4146342, -186.2804871, 84.3902435, -0.0419623
-0.0249023, -0.324707, -0.8881836, -5.8536587, -183.7195129, 83.2926865, -0.0459907
-0.0410156, -0.3193359, -0.9008789, -7.1341467, -182.6829376, 83.0487823, -0.0459907
-0.0458984, -0.3515625, -0.8876953, -7.8658538, -183.0487823, 82.0731735, -0.0459907
-0.0415039, -0.3735352, -0.8754883, -7.5, -183.7195129, 81.7682953, -0.0500191
-0.0424805, -0.3803711, -0.8491211, -6.4024391, -183.3536682, 81.0365906, -0.0459907
-0.0634766, -0.3632812, -0.7875977, -6.2195125, -182.9268341, 81.0365906, -0.0513619
-0.0727539, -0.3549805, -0.7666016, -4.6341462, -183.7195129, 79.7560959, -0.0513619
-0.1010742, -0.3349609, -0.7836914, -4.2682929, -183.9024506, 79.3292694, -0.0473335
-0.121582, -0.3291016, -0.828125, -5, -182.6219482, 79.6341476, -0.0446479
-0.1381836, -0.3378906, -0.8984375, -5.4268293, -180.5487823, 80.8536606, -0.0459907
-0.1376953, -0.3481445, -0.8916016, -5, -180.6707306, 81.1585388, -0.0513619
-0.1235352, -0.3881836, -0.815918, -0.9756098, -181.9512177, 80, -0.0500191
-0.1196289, -0.3974609, -0.7758789, 1.0365853, -181.7682953, 79.2682953, -0.0500191
-0.152832, -0.378418, -0.7382812, 2.6829269, -180.1829376, 79.0243912, -0.0500191
-0.1850586, -0.355957, -0.7431641, 2.3170731, -179.2682953, 79.2073212, -0.0459907
-0.2382812, -0.2973633, -0.7788086, 0.2439024, -178.7195129, 79.6951218, -0.0446479
-0.265625, -0.2612305, -0.8125, -0.9146342, -178.9634247, 79.6951218, -0.0473335
-0.2602539, -0.2680664, -0.8134766, -2.3780489, -178.5975647, 79.2073212, -0.0486763
-0.2592773, -0.3061523, -0.7900391, -2.6219513, -178.4146423, 78.7804871, -0.0493477
-0.2587891, -0.3144531, -0.78125, -3.3536587, -178.0487823, 79.3902435, -0.0486763
-0.2758789, -0.3168945, -0.8134766, -5.2439027, -176.4634247, 80.8536606, -0.0527047
-0.2822266, -0.3012695, -0.8554688, -6.4634147, -175, 81.7073212, -0.0533761
-0.2910156, -0.2666016, -0.9257812, -9.8170738, -172.3170776, 82.9268341, -0.0540475
-0.2866211, -0.2558594, -0.925293, -11.0365858, -171.2804871, 82.9878082, -0.0547189
-0.2670898, -0.2753906, -0.8598633, -11.0365858, -170.3048859, 82.0121994, -0.0574044
-0.2631836, -0.2954102, -0.8222656, -11.341464, -169.5121918, 81.5243912, -0.0594186
-0.269043, -0.3276367, -0.809082, -13.2926836, -166.4024353, 81.8292694, -0.0574044
-0.2939453, -0.3476562, -0.8666992, -15, -164.146347, 82.7439041, -0.0580758
-0.2993164, -0.3583984, -0.8725586, -16.2195129, -160.9756165, 84.5731735, -0.0540475
-0.2929688, -0.3813477, -0.8154297, -15, -160.9146423, 84.7560959, -0.0486763
-0.2890625, -0.378418, -0.7763672, -11.8902445, -162.2561035, 83.3536606, -0.0476692
-0.2929688, -0.3422852, -0.7373047, -13.1097565, -161.9512177, 80.7317123, -0.0436408
-0.3095703, -0.3183594, -0.715332, -15, -161.4634247, 79.2073212, -0.0446479
-0.3388672, -0.2954102, -0.6606445, -17.7439022, -162.6219482, 77.68293, -0.0486763
-0.3500977, -0.2973633, -0.6425781, -18.0487804, -163.6585388, 77.1951218, -0.0473335
-0.3725586, -0.2866211, -0.6391602, -18.2926826, -165.5487823, 77.3170776, -0.0459907
-0.3779297, -0.277832, -0.65625, -18.9634151, -165.7926941, 77.5, -0.0453193
-0.3769531, -0.2739258, -0.7524414, -20.9756107, -164.6341553, 77.1951218, -0.0392767
-0.3310547, -0.3110352, -0.8251953, -21.8292694, -163.9024353, 76.646347, -0.0352483
-0.3120117, -0.3325195, -0.8217773, -22.0731716, -164.2682953, 74.8780518, -0.0305486
-0.2783203, -0.3730469, -0.7583008, -20.9146347, -164.4512177, 73.9024429, -0.0271916
-0.2768555, -0.3793945, -0.7285156, -18.2317085, -164.146347, 72.6219559, -0.0248417
-0.315918, -0.3168945, -0.7524414, -17.1951218, -161.5853729, 73.5975647, -0.0261845
-0.3452148, -0.2763672, -0.7885742, -18.2926826, -159.6951294, 74.5731735, -0.0466621
-0.3725586, -0.2084961, -0.8232422, -20.6097565, -158.6585388, 74.2682953, -0.0540475
-0.3730469, -0.1943359, -0.8061523, -21.7073174, -159.3292694, 73.2926865, -0.0527047
-0.3598633, -0.2094727, -0.7587891, -23.6585369, -159.3292694, 70.3658524, -0.0399481
-0.3544922, -0.2387695, -0.796875, -25.1219521, -157.1951294, 70.0609741, -0.0285344
-0.3540039, -0.2578125, -0.847168, -28.3536587, -152.3170776, 71.5243912, -0.0365911
-0.3476562, -0.3081055, -0.8637695, -29.4512196, -150.4878082, 72.9878082, -0.0433051
-0.3398438, -0.324707, -0.8168945, -27.8658543, -150.2439117, 74.5121994, -0.0459907
-0.3222656, -0.3056641, -0.715332, -24.2682934, -150.4268341, 72.9268341, -0.0493477
-0.3310547, -0.2719727, -0.6958008, -24.4512196, -148.9024353, 70.8536606, -0.0560616
-0.3837891, -0.2094727, -0.7133789, -29.5121956, -145.7317047, 67.5609741, -0.0540475
-0.4082031, -0.203125, -0.7368164, -32.8658562, -144.9390259, 66.9512177, -0.0553902
-0.4233398, -0.2329102, -0.7636719, -37.2560997, -144.146347, 67.2560959, -0.0459907
-0.4150391, -0.2612305, -0.7514648, -37.6219521, -144.146347, 67.1951218, -0.0419623
-0.3901367, -0.2983398, -0.7304688, -37.9878044, -143.5365906, 66.0975647, -0.0325628
-0.3774414, -0.2978516, -0.7192383, -38.2926826, -142.86586, 64.8780518, -0.0218204
-0.3710938, -0.3027344, -0.7026367, -39.5731735, -142.0731812, 61.8292694, -0.0154421
-0.355957, -0.3374023, -0.625, -39.3292694, -142.5, 60.3048782, -0.0114137
-0.3623047, -0.3505859, -0.5898438, -37.9878044, -144.5731812, 57.4390259, -0.0151064
-0.4042969, -0.324707, -0.5522461, -36.5243912, -145.8536682, 56.2195129, -0.0204776
-0.4277344, -0.3022461, -0.5395508, -35.3658562, -146.0975647, 55.9756126, -0.0285344
-0.4580078, -0.2612305, -0.5522461, -32.1341476, -147.7439117, 54.5121956, -0.03122
-0.4667969, -0.2456055, -0.565918, -30.3658543, -148.5975647, 53.1097565, -0.0359197
-0.4726562, -0.2202148, -0.5712891, -29.2682934, -149.7561035, 50.2439041, -0.0392767
-0.4692383, -0.2148438, -0.5722656, -29.1463413, -149.8780518, 48.9024391, -0.0406195
-0.4506836, -0.215332, -0.6342773, -29.3292694, -148.6585388, 47.4390259, -0.0433051
-0.4345703, -0.2226562, -0.75, -29.1463413, -146.9512177, 47.6829262, -0.0463264
-0.4223633, -0.234375, -0.7817383, -29.5731716, -144.3902435, 49.5121956, -0.0476692
-0.3901367, -0.2314453, -0.7431641, -29.0853672, -143.9024353, 50.3048782, -0.0459907
-0.3793945, -0.2177734, -0.7148438, -26.5853672, -142.2561035, 51.2195129, -0.0426337
-0.3911133, -0.1464844, -0.7172852, -27.4390259, -137.3780518, 51.1585388, -0.0392767
-0.4067383, -0.1083984, -0.7490234, -29.5121956, -134.3292694, 51.5853653, -0.0352483
-0.4355469, -0.0864258, -0.7949219, -35.4878044, -129.5121918, 54.4512215, -0.0339055
-0.4370117, -0.0932617, -0.7680664, -37.4390259, -128.4146423, 55.9146347, -0.0325628
-0.4223633, -0.1342773, -0.6503906, -38.4146347, -127.86586, 57.5, -0.0352483
-0.4208984, -0.1513672, -0.6279297, -38.9024391, -126.2804871, 57.9268303, -0.0406195
-0.4414062, -0.1474609, -0.6582031, -43.3536606, -121.4024429, 59.7560997, -0.0453193
-0.4692383, -0.1552734, -0.6713867, -46.4634171, -119.6951218, 60.4268303, -0.0459907
-0.4643555, -0.1640625, -0.6450195, -50.4268303, -119.0853653, 61.0975609, -0.0439765
-0.4418945, -0.1806641, -0.6181641, -51.0365868, -118.6585388, 61.2195129, -0.0399481
-0.4423828, -0.1791992, -0.6347656, -52.5609779, -113.5365906, 59.3292694, -0.0359197
-0.4477539, -0.1708984, -0.7148438, -58.4146347, -106.4634171, 57.7439041, -0.0379339
-0.4443359, -0.1708984, -0.7329102, -62.3170738, -104.3292694, 57.3780518, -0.0386053
-0.4169922, -0.1943359, -0.6835938, -67.4390259, -102.3170776, 55.7926826, -0.0419623
-0.3999023, -0.2041016, -0.6518555, -68.7195129, -101.2195129, 54.8170738, -0.0520333
-0.3842773, -0.2163086, -0.609375, -70, -97.9878082, 52.8048782, -0.0513619
-0.3833008, -0.2231445, -0.5878906, -69.5731735, -96.7682953, 51.7073174, -0.0500191
-0.4038086, -0.2788086, -0.5175781, -65.6097565, -95.9146347, 50.9146347, -0.0493477
-0.4345703, -0.3173828, -0.434082, -61.2804909, -96.2804871, 51.0365868, -0.0449836
-0.456543, -0.3173828, -0.3754883, -52.0121956, -98.1097565, 50.6097565, -0.0500191
-0.5356445, -0.2421875, -0.3095703, -47.8658562, -99.2073212, 49.5121956, -0.0530404
-0.5820312, -0.1889648, -0.3286133, -41.5243912, -100.0609818, 45.7317085, -0.0574044
-0.6362305, -0.0854492, -0.4443359, -40.2439041, -99.0853653, 40.8536606, -0.0621042
-0.6391602, -0.0766602, -0.4970703, -41.0975609, -99.5121994, 38.2317085, -0.0621042
-0.5908203, -0.1235352, -0.5327148, -43.4756126, -101.1585388, 33.4756088, -0.0580758
-0.5537109, -0.1611328, -0.512207, -43.9024391, -101.7073212, 31.7073174, -0.0540475
-0.4970703, -0.1914062, -0.4545898, -42.3780479, -100.5487823, 30.2439022, -0.056733
-0.4873047, -0.1728516, -0.4360352, -41.6463432, -99.5121994, 30.2439022, -0.0580758
-0.5117188, -0.0844727, -0.4267578, -40.6707344, -96.4024429, 32.1951218, -0.0607614
-0.5576172, -0.0029297, -0.4814453, -41.4634171, -94.5121994, 33.3536606, -0.0607614
-0.5786133, 0.0200195, -0.5195312, -46.2195129, -89.9390259, 36.9512215, -0.0621042
-0.5805664, 0.0141602, -0.5454102, -49.7560997, -87.6219559, 37.9268303, -0.0594186
-0.5698242, -0.0097656, -0.5249023, -56.341465, -83.1097565, 38.7195129, -0.0500191
-0.5439453, -0.0703125, -0.5024414, -59.3292694, -79.3902435, 37.7439041, -0.0412909
-0.5341797, -0.0961914, -0.5058594, -61.1585388, -77.0121994, 37.3170738, -0.0352483
-0.5249023, -0.1289062, -0.503418, -66.2195129, -72.9878082, 36.2804871, -0.0275273
-0.5219727, -0.1318359, -0.4838867, -68.7804871, -71.0365906, 35.9146347, -0.0305486
-0.5395508, -0.1279297, -0.4487305, -73.4756088, -67.3780518, 35.0609779, -0.0359197
-0.5541992, -0.1083984, -0.4277344, -74.8780518, -65.6097565, 34.7560997, -0.0359197
-0.5981445, -0.0727539, -0.3657227, -75.9146347, -62.1951218, 33.2926826, -0.0332341
-0.6430664, -0.046875, -0.3208008, -75.8536606, -61.0975609, 32.6219521, -0.0359197
-0.6621094, -0.0429688, -0.3227539, -77.0121994, -59.1463432, 31.6463413, -0.0406195
-0.6733398, -0.0581055, -0.3320312, -77.9878082, -57.9878044, 31.5243912, -0.0480049
-0.6640625, -0.074707, -0.3378906, -79.8780518, -55.6707344, 31.0365868, -0.0500191
-0.6533203, -0.1230469, -0.3701172, -79.5731735, -52.4390259, 30.4268303, -0.0513619
-0.6411133, -0.1479492, -0.375, -78.0487823, -50.9146347, 30, -0.0500191
-0.6210938, -0.1855469, -0.3720703, -72.3780518, -46.9512215, 29.0853672, -0.0493477
-0.6220703, -0.2001953, -0.3691406, -68.9634171, -45.3048782, 28.7195129, -0.0500191
-0.6201172, -0.1953125, -0.3408203, -62.5, -42.2560997, 27.560976, -0.0527047
-0.6220703, -0.1772461, -0.3051758, -60.0609779, -41.4024391, 26.4024391, -0.0493477
-0.65625, -0.1176758, -0.2290039, -55.9146347, -39.1463432, 23.2926826, -0.0486763
-0.7036133, -0.0488281, -0.2436523, -54.2073174, -37.5609779, 21.5853672, -0.0500191
-0.7250977, -0.0239258, -0.2602539, -53.0487823, -33.9634171, 19.8170738, -0.0486763
-0.7368164, -0.03125, -0.2539062, -52.8048782, -32.4390259, 19.2073174, -0.0433051
-0.7270508, -0.0488281, -0.2329102, -51.7073174, -31.341465, 18.6585369, -0.0392767
-0.706543, -0.0751953, -0.1982422, -50.3048782, -29.3292694, 18.0487804, -0.0392767
-0.7036133, -0.0756836, -0.1904297, -49.8780518, -27.6219521, 17.6829281, -0.0419623
-0.7138672, -0.0473633, -0.1826172, -49.2682953, -23.4756107, 16.8902435, -0.042298
-0.7231445, -0.0244141, -0.1777344, -49.6951218, -22.0731716, 16.5853653, -0.0446479
-0.7456055, 0.0102539, -0.190918, -50.6707344, -18.4756107, 15.7317076, -0.0379339
-0.7558594, 0.0102539, -0.2109375, -51.8902435, -16.4024391, 15.4268293, -0.0621042
-0.7709961, -0.0029297, -0.2573242, -54.3902435, -11.5853662, 16.5243912, -0.0906386
-0.7631836, -0.034668, -0.2705078, -55.2439041, -9.0853662, 17.1341476, -0.0903029
-0.7529297, -0.043457, -0.262207, -54.8780518, -4.3292685, 18.2317085, -0.0745251
-0.7397461, -0.0449219, -0.2041016, -54.5731735, -2.195122, 17.8048782, -0.0580758
-0.7446289, -0.0424805, -0.1762695, -53.7804909, 1.9512196, 15.5487804, -0.0493477
-0.7695312, -0.0200195, -0.1445312, -55.9756126, 5.670732, 12.9268293, -0.0449836
-0.7900391, -0.0131836, -0.1459961, -58.1097565, 7.4390244, 12.0731707, -0.0473335
-0.8217773, -0.0073242, -0.1918945, -62.2560997, 11.4024391, 10.7317076, -0.0607614
-0.8330078, -0.0229492, -0.2128906, -63.5975609, 13.1097565, 10.4878054, -0.0715038
-0.8198242, -0.0585938, -0.2055664, -64.0243912, 15.6097565, 10.060976, -0.0708324
-0.8066406, -0.0761719, -0.1767578, -62.5, 16.8292694, 8.719512, -0.0674754
-0.7963867, -0.0976562, -0.1152344, -58.5365868, 18.3536587, 6.0975609, -0.056733
-0.8017578, -0.1064453, -0.0708008, -56.341465, 19.6341476, 4.390244, -0.0365911
-0.8134766, -0.105957, -0.0600586, -52.7439041, 22.2560978, 1.5243902, -0.0191348
-0.8276367, -0.1035156, -0.0546875, -51.6463432, 23.2317085, 0, -0.0003357
-0.8398438, -0.1035156, -0.059082, -49.0853653, 24.6341476, -2.9878049, 0.0151064
-0.8603516, -0.09375, -0.0864258, -46.1585388, 26.0975609, -5.4268293, 0.0154421
-0.8652344, -0.0908203, -0.1049805, -44.6341476, 26.7073174, -6.8292685, 0.0104067
-0.8657227, -0.0942383, -0.1362305, -41.4024391, 28.2317085, -9.3902445, -0.0003357
-0.859375, -0.0996094, -0.1420898, -39.8170738, 29.2682934, -10.9146347, -0.0140993
-0.8476562, -0.0961914, -0.1542969, -36.7682953, 31.8292694, -14.0853662, -0.0285344
-0.8359375, -0.0888672, -0.1577148, -35.1829262, 33.1097565, -15.9146347, -0.0372625
-0.8300781, -0.0810547, -0.1484375, -32.6829262, 36.5853653, -18.780489, -0.0433051
-0.8232422, -0.0727539, -0.1586914, -31.280489, 38.4756088, -20.060976, -0.0446479
-0.8198242, -0.0649414, -0.1708984, -29.5121956, 41.5853653, -21.1585369, -0.0449836
-0.8081055, -0.0527344, -0.1972656, -29.0853672, 43.5975609, -21.6463413, -0.0453193
-0.8027344, -0.0488281, -0.1904297, -29.3292694, 47.3170738, -22.3170738, -0.0399481
-0.7978516, -0.0454102, -0.1416016, -27.8658543, 50.1219521, -23.7195129, -0.0433051
-0.7954102, -0.0507812, -0.1162109, -26.4634151, 51.4024391, -24.6341476, -0.0466621
-0.7890625, -0.0483398, -0.0957031, -24.4512196, 53.9634171, -26.4634151, -0.0500191
-0.7954102, -0.0532227, -0.1064453, -24.0243912, 55.5487823, -27.1951218, -0.0500191
-0.8085938, -0.0708008, -0.1137695, -24.8170738, 57.5609779, -28.5365868, -0.0503548
-0.8144531, -0.0834961, -0.1040039, -24.3292694, 58.7804909, -29.0243912, -0.0466621
-0.8276367, -0.1079102, -0.0913086, -20.4268303, 60.1219521, -29.8170738, -0.0459907
-0.8266602, -0.112793, -0.1162109, -17.9878044, 60.7317085, -30.5487804, -0.0493477
-0.8198242, -0.1118164, -0.137207, -13.9024391, 62.2560997, -31.9512196, -0.0466621
-0.8139648, -0.1074219, -0.1577148, -12.7439032, 63.0487823, -33.1097565, -0.0527047
-0.8076172, -0.1030273, -0.1557617, -9.6341467, 64.3902435, -35.8536606, -0.0513619
-0.7963867, -0.0952148, -0.1435547, -5.9756098, 65.9756088, -38.9024391, -0.0527047
-0.7905273, -0.0961914, -0.1357422, -4.4512196, 67.0121994, -40.3658562, -0.0506905
-0.7797852, -0.1030273, -0.1279297, -2.195122, 69.4512177, -42.0121956, -0.0480049
-0.7817383, -0.1083984, -0.1113281, -0.7317073, 70.1219559, -42.8658562, -0.0459907
-0.7744141, -0.1137695, -0.0722656, 3.0487804, 70.6097565, -44.8170738, -0.0446479
-0.777832, -0.1225586, -0.0600586, 5.3658538, 70.7926865, -45.6097565, -0.0459907
-0.7885742, -0.1274414, -0.0600586, 10.8536587, 71.2195129, -46.7682953, -0.0433051
-0.7773438, -0.1416016, -0.0708008, 13.3536587, 71.2804871, -47.3170738, -0.0459907
-0.7739258, -0.1430664, -0.081543, 17.2560978, 71.0975647, -48.9634171, -0.0446479
-0.7675781, -0.137207, -0.128418, 19.1463413, 71.2195129, -50.1219521, -0.0406195
-0.7646484, -0.1206055, -0.1640625, 21.5853672, 71.7073212, -52.1951218, -0.0406195
-0.7524414, -0.0756836, -0.2089844, 22.560976, 73.1707306, -53.7195129, -0.0449836
-0.746582, -0.0537109, -0.2124023, 23.4146347, 73.7195129, -54.4512215, -0.0459907
-0.7260742, -0.0322266, -0.190918, 25.7926826, 74.8780518, -56.1585388, -0.0436408
-0.7124023, -0.0332031, -0.1801758, 26.8292694, 75.6707306, -56.8902435, -0.0453193
-0.6879883, -0.0649414, -0.184082, 26.9512196, 77.4390259, -58.2317085, -0.0449836
-0.6767578, -0.0981445, -0.1958008, 26.0365868, 78.7195129, -58.3536606, -0.0486763
-0.6743164, -0.1113281, -0.1958008, 24.3292694, 80.9756088, -58.3536606, -0.0463264
-0.6694336, -0.1044922, -0.2070312, 24.5731716, 82.5, -57.9878044, -0.0459907
-0.6723633, -0.0961914, -0.2275391, 25.4878063, 84.7560959, -57.5609779, -0.0433051
-0.6782227, -0.0942383, -0.2617188, 26.2195129, 86.5243912, -57.5, -0.0426337
-0.671875, -0.1030273, -0.2456055, 26.8292694, 86.4024429, -57.6219521, -0.0419623
-0.6567383, -0.1298828, -0.1894531, 29.3292694, 86.2804871, -58.7195129, -0.0379339
-0.6450195, -0.1367188, -0.1777344, 29.9390259, 86.5853653, -59.1463432, -0.0406195
-0.6484375, -0.1342773, -0.2021484, 28.5365868, 87.8658524, -60.3658562, -0.0396124
-0.6518555, -0.121582, -0.2211914, 27.0731716, 88.9024429, -60.2439041, -0.0359197
-0.6494141, -0.1147461, -0.2094727, 25.2439022, 89.6951218, -60, -0.0365911
-0.6230469, -0.1274414, -0.1518555, 26.2195129, 89.2682953, -60.1219521, -0.0352483
-0.6074219, -0.1328125, -0.1206055, 31.280489, 88.1707306, -61.0975609, -0.0416266
-0.5830078, -0.1469727, -0.1147461, 33.841465, 87.8658524, -61.8292694, -0.0419623
-0.5742188, -0.1582031, -0.1518555, 35.5487823, 89.2073212, -62.4390259, -0.0412909
-0.5761719, -0.1875, -0.2944336, 33.5365868, 92.6219559, -61.0975609, -0.0419623
-0.5737305, -0.2006836, -0.3564453, 32.7439041, 94.0243912, -59.6951218, -0.0379339
-0.5317383, -0.230957, -0.4047852, 33.9634171, 95.5487823, -58.1707344, -0.0352483
-0.4858398, -0.237793, -0.4077148, 37.3780479, 95.7926865, -58.841465, -0.0339055
-0.4672852, -0.2456055, -0.3632812, 43.7195129, 98.5975647, -61.341465, -0.0302129
-0.4941406, -0.2426758, -0.3291016, 46.4634171, 100.9756088, -60.6707344, -0.0332341
-0.5244141, -0.1782227, -0.3154297, 48.0487823, 105.4878082, -58.2926826, -0.0493477
-0.4897461, -0.0927734, -0.4189453, 46.0975609, 108.2317123, -58.5365868, -0.063447
-0.4628906, -0.081543, -0.4667969, 35.8536606, 115.4268341, -61.8902435, -0.063447
-0.4921875, -0.2172852, -0.5307617, 29.0853672, 119.9390259, -62.4390259, -0.0513619
-0.5410156, -0.3422852, -0.4643555, 20.060976, 128.9024353, -53.4146347, -0.0325628
-0.6220703, -0.5732422, -0.2529297, 28.9634151, 132.6219482, -36.5853653, -0.0164492
-0.6669922, -0.5917969, -0.1948242, 38.7195129, 132.0121918, -29.1463413, -0.0114137
-0.6616211, -0.3237305, -0.3710938, 53.4146347, 127.9878082, -26.7073174, -0.0083925
-0.6044922, -0.0629883, -0.534668, 52.3780518, 126.5853653, -34.5121956, -0.011078
-0.515625, 0.3657227, -0.7324219, 34.6951218, 129.5731812, -61.9512215, -0.0218204
-0.5136719, 0.3974609, -0.7514648, 23.9634151, 134.2073212, -72.8658524, -0.0204776
-0.5092773, 0.1210938, -0.7290039, 10.4268293, 145.9756165, -73.5365906, -0.0265202
-0.3583984, -0.1694336, -0.6420898, 9.0243902, 149.0243988, -65.7926865, -0.0251774
-0.2436523, -0.2255859, -0.5986328, 12.4390249, 147.8048859, -53.7804909, -0.03122
-0.0639648, -0.1416016, -0.5146484, 15.1219511, 146.9512177, -53.5975609, -0.0379339
-0.0229492, -0.0517578, -0.496582, 17.6829281, 148.9024353, -64.0243912, -0.0406195
-0.0146484, 0.0429688, -0.4848633, 14.8170738, 154.2073212, -77.2560959, -0.0426337
-0.0478516, 0.0092773, -0.4975586, 11.280488, 156.7682953, -79.8780518, -0.0453193
-0.1459961, -0.1586914, -0.6025391, 1.7073171, 162.9268341, -71.8902435, -0.0406195
-0.1948242, -0.2543945, -0.6650391, -2.7439024, 166.2195129, -62.9268303, -0.0406195
-0.28125, -0.3808594, -0.7070312, -5.3658538, 170.2439117, -46.7682953, -0.0352483
-0.3110352, -0.4052734, -0.6865234, -2.5, 171.4024506, -42.5609779, -0.0298772
-0.3691406, -0.3823242, -0.6479492, 7.1951222, 171.8902435, -44.0853653, -0.0325628
-0.4204102, -0.3076172, -0.75, 10.6097565, 173.1097565, -48.2317085, -0.0339055
-0.4306641, -0.2788086, -0.8232422, 10.5487804, 176.8292694, -57.6219521, -0.0352483
-0.4150391, -0.2617188, -0.8769531, 7.5609756, 178.5975647, -61.7073174, -0.0406195
-0.387207, -0.2709961, -0.8525391, 3.2317073, 178.8414612, -67.5, -0.0500191
-0.3149414, -0.2983398, -0.7563477, 4.0243902, 178.4146423, -70.9756088, -0.0527047
-0.2871094, -0.2998047, -0.6889648, 5.7317076, 178.7804871, -71.4024429, -0.0513619
-0.2631836, -0.2861328, -0.5483398, 10.9146347, 180.4268341, -70.7317123, -0.0493477
-0.2617188, -0.2666016, -0.5258789, 12.9268293, 181.7682953, -69.1463394, -0.0540475
-0.2929688, -0.2177734, -0.6567383, 12.3780489, 186.7682953, -64.5121994, -0.0527047
-0.3168945, -0.1889648, -0.7631836, 9.6341467, 189.3902435, -60.9756126, -0.056733
-0.3349609, -0.184082, -0.8212891, 4.5121951, 191.646347, -56.1585388, -0.056733
-0.2900391, -0.2709961, -0.6738281, 5.5487804, 190.5487823, -55.9146347, -0.0587472
-0.2592773, -0.328125, -0.6176758, 13.5365858, 187.86586, -60.18293, -0.0610971
-0.2324219, -0.4091797, -0.668457, 16.9512196, 188.1097565, -63.2926826, -0.0641184
-0.2260742, -0.4379883, -0.7768555, 17.1951218, 191.4024506, -67.0121994, -0.0614328
-0.2099609, -0.4516602, -1.0639648, 10.1829271, 195.36586, -65.7317123, -0.0574044
-0.1879883, -0.4604492, -1.168457, 6.890244, 197.012207, -64.0853653, -0.056733
-0.1049805, -0.4980469, -1.2294922, 6.8292685, 198.5975647, -61.6463432, -0.0553902
-0.0532227, -0.5258789, -1.1586914, 10.9146347, 198.2926941, -61.5853691, -0.0527047
0.0195312, -0.5683594, -0.8735352, 24.3902435, 197.1951294, -64.3902435, -0.0486763
0.0292969, -0.5678711, -0.7099609, 31.0975609, 196.7073212, -66.2195129, -0.0486763
-0.0283203, -0.4750977, -0.5371094, 39.5731735, 197.5, -68.9024429, -0.0446479
-0.1699219, -0.3027344, -0.6157227, 39.5731735, 198.7804871, -68.1707306, -0.0446479
-0.2451172, -0.2236328, -0.6689453, 33.1707306, 200.2439117, -63.841465, -0.0433051
-0.3413086, -0.1489258, -0.6928711, 30.7317085, 198.3536682, -61.0365868, -0.0449836
-0.3461914, -0.1625977, -0.6777344, 31.8292694, 192.3170776, -57.7439041, -0.0433051
-0.3051758, -0.2426758, -0.7387695, 36.0975609, 189.146347, -58.2926826, -0.0459907
-0.2749023, -0.2822266, -0.8564453, 35.1829262, 190.6707306, -58.841465, -0.0463264
-0.2231445, -0.3320312, -1.0976562, 25.6707325, 195.2439117, -59.3292694, -0.0439765
-0.1904297, -0.34375, -1.1230469, 21.4634151, 195.5487823, -59.5121956, -0.0406195
-0.0673828, -0.3808594, -0.9746094, 23.6585369, 190.2439117, -62.0731735, -0.0466621
0.0014648, -0.3979492, -0.859375, 30.7317085, 187.5, -64.4512177, -0.056733
0.081543, -0.4291992, -0.7089844, 46.341465, 185.6097565, -67.7439041, -0.0560616
0.0600586, -0.402832, -0.7949219, 51.0975609, 186.7682953, -67.3170776, -0.0500191
0.0307617, -0.3666992, -0.8969727, 50.9756126, 191.4634247, -60.7317085, -0.0500191
-0.0161133, -0.3027344, -1.0639648, 47.5609779, 193.2926941, -55.7317085, -0.0476692
0, -0.293457, -1.0927734, 43.4146347, 192.4390259, -48.0487823, -0.0473335
0.0605469, -0.3081055, -1.0795898, 45.3658562, 189.0243988, -47.6829262, -0.0580758
0.0986328, -0.3276367, -1.1005859, 46.4024391, 189.0243988, -49.8170738, -0.0627756
0.1494141, -0.3642578, -1.2363281, 43.7804871, 192.86586, -54.0853653, -0.0688182
0.1625977, -0.3945312, -1.2866211, 39.6341476, 194.512207, -55.5487823, -0.0664683
0.1982422, -0.4472656, -1.2412109, 34.5121956, 194.512207, -55.9756126, -0.0553902
0.2158203, -0.4658203, -1.1801758, 35.4268303, 193.4146423, -55.3658562, -0.0392767
0.2329102, -0.4575195, -1.1000977, 40.3658562, 194.3902435, -53.9024391, -0.0265202
0.2216797, -0.4189453, -1.0249023, 42.2560997, 195.4878082, -53.0487823, -0.0151064
0.2060547, -0.4111328, -0.9467773, 43.1097565, 194.2682953, -52.6219521, -0.0137636
0.1821289, -0.4121094, -0.7993164, 43.3536606, 191.646347, -53.4756126, -0.0325628
0.1508789, -0.4155273, -0.7866211, 43.9024391, 186.5853729, -55.5487823, -0.0446479
0.0756836, -0.4106445, -0.9145508, 40.6097565, 185, -54.7560997, -0.0513619
0.0429688, -0.3994141, -1.043457, 36.7073174, 185.2439117, -52.7439041, -0.0580758
0.0234375, -0.3867188, -1.2675781, 27.0731716, 184.6951294, -48.9634171, -0.0553902
0.0537109, -0.3969727, -1.293457, 23.9634151, 182.6829376, -48.5365868, -0.0547189
0.1782227, -0.4667969, -1.140625, 25.6707325, 176.3414612, -53.3536606, -0.0547189
0.237793, -0.5141602, -1.0297852, 29.5731716, 173.1707306, -57.5609779, -0.0527047
0.2744141, -0.5585938, -0.8833008, 37.4390259, 171.7682953, -64.3292694, -0.0433051
0.2236328, -0.5102539, -0.8588867, 38.3536606, 172.5609741, -64.9390259, -0.0416266
0.1899414, -0.4584961, -0.8803711, 35.6097565, 173.4756165, -61.2804909, -0.0392767
0.1459961, -0.3427734, -0.9750977, 33.0487823, 172.5609741, -58.2926826, -0.0318914
0.1494141, -0.3007812, -1.0405273, 28.0487804, 169.2073212, -54.3902435, -0.0258488
0.2055664, -0.2719727, -1.1767578, 20.5487804, 166.2195129, -54.8780518, -0.0265202
0.2426758, -0.2949219, -1.2148438, 16.4634151, 164.8780518, -56.0975609, -0.0298772
0.3173828, -0.3886719, -1.140625, 11.0365858, 162.1341553, -59.5731735, -0.0292058
0.340332, -0.4487305, -1.0527344, 10.9756098, 160.5487823, -60.7317085, -0.0305486
0.3266602, -0.5112305, -0.8911133, 16.8902435, 158.6585388, -61.4024391, -0.0292058
0.2958984, -0.5175781, -0.8364258, 21.0365868, 157.9268341, -59.6951218, -0.0285344
0.1958008, -0.4946289, -0.7543945, 30.5487804, 155.3048859, -54.6951218, -0.0305486
0.1049805, -0.4628906, -0.7373047, 35.1829262, 152.7439117, -52.3170738, -0.0298772
0.0693359, -0.4384766, -0.7963867, 41.0365868, 147.8048859, -49.2682953, -0.035584
0.0449219, -0.3881836, -1.0385742, 41.5243912, 146.8292694, -49.2073174, -0.0406195
0.0712891, -0.3911133, -1.1635742, 36.2195129, 145.7317047, -51.7682953, -0.0412909
0.2006836, -0.4482422, -1.2797852, 30.7317085, 141.7073212, -59.5121956, -0.0443122
0.2949219, -0.4980469, -1.2729492, 30.1829281, 139.2682953, -64.7560959, -0.0493477
0.4638672, -0.5830078, -1.2202148, 32.2560997, 137.3780518, -75.3658524, -0.0486763
0.5170898, -0.5991211, -1.2060547, 32.5, 138.8414612, -78.5975647, -0.0446479
0.5561523, -0.578125, -1.2558594, 30.3048782, 145.1829376, -78.7195129, -0.0459907
0.5541992, -0.5493164, -1.3217773, 27.8048782, 147.9878082, -75.9146347, -0.0473335
0.5644531, -0.5014648, -1.3852539, 21.0975609, 150.8536682, -69.3292694, -0.0459907
0.6010742, -0.4887695, -1.2856445, 18.4756107, 150.6707306, -67.5, -0.0493477
0.5996094, -0.4931641, -1.1879883, 14.7560978, 149.0243988, -69.1463394, -0.0473335
0.5341797, -0.4790039, -0.9868164, 13.4756098, 148.4756165, -71.4634171, -0.0466621
0.4614258, -0.4575195, -0.9135742, 11.0365858, 148.6585388, -75, -0.0446479
0.2861328, -0.4057617, -0.8935547, 6.6463418, 150.1829376, -74.3292694, -0.0459907
0.2011719, -0.3789062, -0.9472656, 3.9024391, 150.3048859, -72.4390259, -0.0500191
0.0981445, -0.3530273, -1.0673828, -2.7439024, 149.5121918, -68.2317123, -0.0466621
0.0878906, -0.3623047, -1.0864258, -5.1829271, 147.3780518, -67.5, -0.0473335
0.1367188, -0.4267578, -1.0097656, -4.3292685, 142.0731812, -71.5853653, -0.0513619
0.171875, -0.4604492, -0.9443359, -1.5853659, 140.0609741, -75.6097565, -0.0547189
0.2163086, -0.5053711, -0.8417969, 5, 139.2073212, -82.3780518, -0.0540475
0.2319336, -0.4868164, -0.7558594, 7.6829271, 139.8170776, -84.146347, -0.056733
0.2363281, -0.4599609, -0.7290039, 12.0121956, 139.3902435, -83.6585388, -0.0540475
0.2480469, -0.3945312, -0.7382812, 13.780488, 138.5365906, -82.0731735, -0.0527047
0.2573242, -0.375, -0.7631836, 16.8292694, 136.1585388, -78.5365906, -0.0527047
0.2963867, -0.3862305, -0.8007812, 18.6585369, 133.1707306, -75.6707306, -0.0473335
0.3139648, -0.4082031, -0.8486328, 19.6341476, 132.0731812, -75.6097565, -0.0446479
0.3447266, -0.4677734, -1.0307617, 18.8414631, 134.2073212, -75.6707306, -0.0459907
0.3662109, -0.4956055, -1.1240234, 17.2560978, 136.4024353, -75.6707306, -0.0486763
0.4179688, -0.5429688, -1.2392578, 13.7195129, 140.0609741, -77.2560959, -0.0466621
0.4526367, -0.5610352, -1.2460938, 13.2926836, 141.1585388, -78.3536606, -0.0433051
0.5078125, -0.5874023, -1.1459961, 16.7682934, 143.4756165, -81.7073212, -0.0379339
0.5258789, -0.5610352, -0.9682617, 19.5731716, 144.3902435, -83.4146347, -0.0365911
0.5102539, -0.5219727, -0.9194336, 25.6097565, 147.86586, -85.2439041, -0.0399481
0.4331055, -0.4067383, -0.972168, 26.1585369, 150.7317047, -84.8780518, -0.0352483
0.3945312, -0.3461914, -1.0439453, 20.2439022, 156.7073212, -81.4024429, -0.0339055
0.3808594, -0.253418, -1.1669922, 8.2317076, 158.2926941, -79.2073212, -0.0339055
0.4023438, -0.2436523, -1.2006836, 2.3780489, 158.1097565, -79.9390259, -0.0345769
0.487793, -0.2988281, -1.2207031, -6.0975609, 157.8048859, -85.4878082, -0.0224918
0.5253906, -0.3603516, -1.1953125, -8.6585369, 158.5365906, -89.2682953, -0.0151064
0.5615234, -0.4936523, -1.0605469, -10.9756098, 160.8536682, -93.8414688, -0.0151064
0.5405273, -0.5737305, -0.9501953, -10.060976, 161.2804871, -94.3292694, -0.017792
0.5146484, -0.5756836, -0.9921875, -9.8780489, 165.4878082, -90.8536606, -0.0251774
0.4829102, -0.5371094, -1.1889648, -12.3170738, 169.5121918, -87.8048782, -0.0335698
0.4970703, -0.5229492, -1.2495117, -20.1829281, 174.0243988, -82.8048782, -0.0406195
0.5859375, -0.5297852, -1.1870117, -22.9268303, 170.2439117, -84.9390259, -0.0439765
0.6337891, -0.546875, -1.0756836, -21.0365868, 167.4390259, -88.3536606, -0.0520333
0.6542969, -0.5761719, -0.8022461, -12.8048782, 164.6951294, -94.5121994, -0.0594186
0.6176758, -0.5717773, -0.6948242, -9.2682924, 164.9390259, -95.4878082, -0.0641184
0.487793, -0.519043, -0.6503906, -6.7073174, 167.2561035, -90.7317123, -0.073518
0.4199219, -0.4711914, -0.7143555, -8.0487804, 168.6585388, -85.6097565, -0.0849317
0.3452148, -0.3852539, -0.8769531, -13.1097565, 168.0487823, -76.4024429, -0.0842603
0.3847656, -0.340332, -0.9404297, -14.8170738, 166.1585388, -74.8170776, -0.0647898
0.4316406, -0.3374023, -0.9301758, -14.0853662, 161.2804871, -79.2682953, -0.0597543
0.5087891, -0.3618164, -0.8461914, -12.7439032, 159.5731812, -83.5975647, -0.0728466
0.5253906, -0.3740234, -0.7851562, -9.8780489, 157.9268341, -90.5487823, -0.0694896
0.5258789, -0.3725586, -0.7495117, -9.0243902, 158.7804871, -90.3048782, -0.0584115
0.5244141, -0.3579102, -0.7929688, -9.8170738, 160.5487823, -87.3170776, -0.0493477
0.5336914, -0.3139648, -0.9272461, -13.9024391, 163.3536682, -79.9390259, -0.0386053
0.5678711, -0.2915039, -0.987793, -16.0975609, 163.1097565, -77.2560959, -0.0352483
0.6518555, -0.2919922, -1.0751953, -18.6585369, 162.6219482, -76.2804871, -0.0473335
0.7016602, -0.3188477, -1.0859375, -19.5731716, 162.2561035, -77.8048782, -0.070161
0.7729492, -0.4169922, -1.0014648, -19.939024, 162.1341553, -81.8902435, -0.0869459
0.7788086, -0.5390625, -0.8212891, -18.1707325, 161.5853729, -83.7195129, -0.0889601
0.7602539, -0.5825195, -0.7421875, -10.9146347, 160.4268341, -84.2682953, -0.0795605
0.6987305, -0.6079102, -0.7358398, -6.2195125, 160.4268341, -83.2926865, -0.0553902
0.6723633, -0.5908203, -0.8442383, -1.5243902, 164.0243988, -79.9390259, -0.0332341
0.6542969, -0.5292969, -1.1459961, -6.2195125, 169.5121918, -77.7439041, -0.0010071
0.6811523, -0.5175781, -1.2543945, -9.2073174, 170.5487823, -78.8414688, 0.021149
0.7871094, -0.5288086, -1.2861328, -11.7073174, 168.5365906, -86.0975647, 0.0359197
0.8422852, -0.5517578, -1.2016602, -10, 167.0121918, -91.1585388, 0.0372625
0.8950195, -0.5737305, -0.9443359, -3.0487804, 165.6707306, -99.7561035, 0.0265202
0.8808594, -0.5639648, -0.8461914, 0.1219512, 166.4024353, -101.646347, 0.0130922
0.8105469, -0.4887695, -0.871582, -0.8536586, 171.4634247, -98.8414688, -0.0016785
0.7436523, -0.3896484, -1.1030273, -5.3048782, 175.3048859, -94.8780518, -0.0208133
0.7504883, -0.3681641, -1.1801758, -15.9756098, 178.9634247, -88.4146347, -0.0359197
0.8374023, -0.3818359, -1.1733398, -19.1463413, 177.3780518, -88.4146347, -0.0439765
0.875, -0.409668, -1.1088867, -18.1707325, 173.5365906, -94.2073212, -0.0486763
0.8837891, -0.4536133, -0.8984375, -14.0853662, 172.6829376, -101.3414688, -0.0500191
0.8583984, -0.4648438, -0.7924805, -11.7682934, 172.4390259, -102.68293, -0.0540475
0.7695312, -0.4487305, -0.6816406, -8.9634151, 172.7439117, -99.7561035, -0.0580758
0.7250977, -0.4267578, -0.7016602, -8.5975609, 173.4756165, -96.5853653, -0.0621042
0.6694336, -0.3466797, -0.8994141, -10.4878054, 176.4024506, -88.9634171, -0.0627756
0.6694336, -0.3100586, -1.0097656, -12.4390249, 178.2926941, -86.8902435, -0.0594186
0.730957, -0.2768555, -1.0688477, -14.2682934, 176.5853729, -89.146347, -0.0570687
0.8378906, -0.3056641, -0.8969727, -12.6829271, 173.8414612, -92.8658524, -0.0597543
0.8759766, -0.3383789, -0.7871094, -8.1097565, 168.6585388, -101.5853653, -0.0594186
0.8759766, -0.3896484, -0.6098633, -6.6463418, 168.1097565, -103.9024429, -0.0553902
0.8505859, -0.4033203, -0.5742188, -5.8536587, 168.1707306, -102.3170776, -0.0580758
0.8012695, -0.3999023, -0.609375, -6.0365853, 166.9512177, -95.3048782, -0.0607614
0.7905273, -0.3925781, -0.6743164, -5.4878049, 166.0975647, -91.5243912, -0.0651255
0.8237305, -0.3720703, -0.8051758, -2.2560976, 163.5975647, -87.9878082, -0.0553902
0.8579102, -0.3769531, -0.855957, 0.0609756, 161.646347, -88.3536606, -0.0419623
0.9638672, -0.4067383, -0.9223633, 2.195122, 159.3292694, -94.3292694, -0.0439765
1.0102539, -0.4296875, -0.9428711, 2.0121951, 159.4512177, -97.3170776, -0.0493477
1.0751953, -0.5063477, -0.9223633, 0.1829268, 159.2073212, -101.8902435, -0.0580758
1.1025391, -0.5581055, -0.8320312, 0, 158.5365906, -102.8048782, -0.0661326
1.1015625, -0.5620117, -0.7958984, 2.804878, 157.1341553, -101.8292694, -0.0674754
1.0634766, -0.5268555, -0.7700195, 4.8780489, 156.4024353, -100.6097565, -0.0621042
1.0424805, -0.4902344, -0.7866211, 7.8658538, 155.9146423, -97.6219559, -0.0607614
1.0219727, -0.3994141, -0.8999023, 6.5243902, 156.0975647, -96.5853653, -0.0597543
1.0292969, -0.3623047, -0.9770508, 3.2317073, 157.0121918, -96.8292694, -0.0547189
1.0727539, -0.3564453, -1.0410156, -4.9390244, 156.4024353, -100.0609818, -0.0540475
1.1030273, -0.3847656, -1.0112305, -7.3780489, 154.6341553, -102.5, -0.0493477
1.140625, -0.4545898, -0.887207, -9.1463413, 152.0121918, -105.4878082, -0.0513619
1.1337891, -0.4702148, -0.8208008, -8.5975609, 151.2804871, -105.3048782, -0.0587472
1.0820312, -0.4506836, -0.7216797, -6.5853658, 149.3292694, -101.7073212, -0.0597543
1.0317383, -0.3793945, -0.6889648, -5.8536587, 147.6829376, -99.146347, -0.0533761
1.0112305, -0.3417969, -0.7041016, -4.2682929, 144.0853729, -95.4878082, -0.0473335
0.9951172, -0.2861328, -0.7797852, -4.8780489, 143.0487823, -94.5121994, -0.0480049
0.9946289, -0.2753906, -0.8139648, -7.9268293, 141.0975647, -94.2073212, -0.0520333
1.0068359, -0.2895508, -0.8378906, -11.0365858, 139.2073212, -94.3292694, -0.0516976
1.0219727, -0.3125, -0.8344727, -11.7682934, 138.2317047, -94.3902435, -0.0500191
1.0493164, -0.371582, -0.7919922, -11.8902445, 136.5243988, -94.0243912, -0.0473335
1.0527344, -0.3945312, -0.7529297, -11.6463413, 135.3048859, -93.7195129, -0.0493477
1.0527344, -0.4189453, -0.6879883, -10.060976, 132.86586, -92.7439041, -0.0459907
1.0498047, -0.418457, -0.6860352, -9.7560978, 131.9512177, -92.1341476, -0.0476692
1.0380859, -0.3803711, -0.7568359, -11.4634151, 131.5243988, -91.5243912, -0.0500191
1.0595703, -0.347168, -0.8154297, -13.2926836, 131.2804871, -91.7073212, -0.0500191
1.081543, -0.3481445, -0.7944336, -15.060976, 127.8048782, -92.6219559, -0.0486763
1.1313477, -0.3759766, -0.7226562, -14.6341467, 125, -93.7804871, -0.0446479
1.1376953, -0.390625, -0.7060547, -14.1463413, 122.2561035, -94.2682953, -0.0433051
1.1040039, -0.3916016, -0.6943359, -15.6707325, 120.8536606, -91.2195129, -0.0433051
1.0859375, -0.3828125, -0.684082, -16.2195129, 119.2682953, -89.0243912, -0.0379339
1.0566406, -0.3354492, -0.6831055, -16.0365849, 115.8536606, -86.3414688, -0.0406195
1.0537109, -0.3144531, -0.6987305, -15.2439032, 114.8170776, -85.9146347, -0.0433051
1.0566406, -0.2929688, -0.7460938, -15, 113.5975647, -86.5853653, -0.0345769
1.0717773, -0.2919922, -0.7666016, -15.2439032, 113.3536606, -87.1951218, -0.0352483
1.1079102, -0.3125, -0.7880859, -15.4878054, 112.7439041, -88.1707306, -0.0386053
1.1323242, -0.3481445, -0.7958984, -15.6097565, 112.5609818, -88.3536606, -0.0621042
1.1391602, -0.3588867, -0.7988281, -15.4268293, 112.68293, -87.3170776, -0.0896315
1.140625, -0.3598633, -0.7993164, -15.3658543, 112.86586, -86.7682953, -0.0903029
1.1303711, -0.3535156, -0.7866211, -15.060976, 112.6219559, -85.5487823, -0.0688182
1.1108398, -0.3447266, -0.7373047, -12.9878054, 111.8292694, -85.4268341, -0.0392767
1.0966797, -0.3417969, -0.7084961, -12.0121956, 111.0365906, -85.6097565, -0.021149
1.0786133, -0.3364258, -0.6572266, -11.219512, 110.2439041, -85.8536606, -0.0715038
1.0683594, -0.3354492, -0.6533203, -11.219512, 109.8780518, -86.4634171, -0.115816
1.0585938, -0.3447266, -0.6879883, -12.560976, 109.0243912, -86.7682953, -0.0889601
1.0546875, -0.3520508, -0.7060547, -13.2926836, 108.2926865, -86.5853653, -0.0325628
1.0600586, -0.371582, -0.6870117, -13.6585369, 105.4268341, -86.1585388, 0.0184634
1.0693359, -0.3837891, -0.6464844, -12.8048782, 104.2682953, -86.0975647, 0.0339055
1.0668945, -0.3837891, -0.6298828, -9.9390249, 102.3780518, -85.6097565, 0.0379339
1.0498047, -0.3642578, -0.5893555, -8.5975609, 101.5243912, -84.8780518, 0.0285344
1.0415039, -0.3461914, -0.5708008, -7.1951222, 98.7195129, -84.146347, 0.0130922
1.0268555, -0.293457, -0.5688477, -5.9146342, 96.4024429, -83.4756088, 0.0104067
1.0209961, -0.2724609, -0.5761719, -6.0365853, 95.18293, -83.0487823, 0.0070497
1.0263672, -0.2456055, -0.5766602, -5.7317076, 92.8048782, -82.5, 0.0030213
1.03125, -0.2456055, -0.5668945, -5.3658538, 91.3414688, -82.3780518, -0.0046998
1.0463867, -0.2680664, -0.5512695, -4.4512196, 88.1097565, -81.0365906, -0.0151064
1.050293, -0.28125, -0.5478516, -4.0243902, 87.5, -80.18293, -0.0184634
1.0375977, -0.2915039, -0.5585938, -4.390244, 86.1585388, -77.5609741, -0.0258488
1.0249023, -0.2714844, -0.5869141, -4.0243902, 85.18293, -76.646347, -0.0325628
1.0234375, -0.2548828, -0.6035156, -3.4146342, 83.7195129, -75.3658524, -0.0332341
1.0356445, -0.2080078, -0.6767578, -3.0487804, 83.7804871, -75.3048782, -0.0359197
1.0419922, -0.1806641, -0.7255859, -3.4756098, 85.6707306, -74.8170776, -0.0379339
1.0673828, -0.1411133, -0.7753906, -5.3658538, 87.4390259, -74.0853653, -0.0392767
1.0810547, -0.1323242, -0.7646484, -5.8536587, 87.7439041, -72.9878082, -0.0433051
1.1098633, -0.1435547, -0.7231445, -7.9878049, 89.3902435, -70.6707306, -0.0486763
1.1123047, -0.1630859, -0.6982422, -9.5121956, 90.0609741, -68.9634171, -0.0513619
1.0893555, -0.2207031, -0.6337891, -12.1341467, 91.2804871, -66.5243912, -0.0540475
1.0668945, -0.246582, -0.6015625, -13.1707315, 91.5853653, -65, -0.0543832
1.0161133, -0.2753906, -0.5385742, -14.5731707, 90.4878082, -62.8658562, -0.0466621
0.9926758, -0.2871094, -0.4912109, -15.1219511, 89.6951218, -62.1341476, -0.0486763
0.9887695, -0.2905273, -0.4799805, -15.7926836, 87.7439041, -61.8902435, -0.0439765
0.9951172, -0.2802734, -0.4448242, -15.9756098, 86.5853653, -62.0731735, -0.0419623
1.0073242, -0.2685547, -0.4311523, -15.4878054, 83.5365906, -61.8292694, -0.0473335
1.0151367, -0.2324219, -0.4335938, -14.6341467, 80.8536606, -60.5487823, -0.0466621
1.0205078, -0.2148438, -0.4394531, -14.5731707, 79.5121994, -59.3902435, -0.0419623
1.0258789, -0.2094727, -0.4633789, -15.1829271, 76.646347, -56.8292694, -0.0386053
1.0283203, -0.2202148, -0.46875, -15.060976, 74.7560959, -55.3658562, -0.03122
1.0166016, -0.2646484, -0.4545898, -15.1219511, 71.2804871, -53.4756126, -0.056733
1.0058594, -0.2875977, -0.4633789, -15.2439032, 69.1463394, -52.8048782, -0.0822461
0.9506836, -0.3012695, -0.5078125, -16.3414631, 67.9878082, -50, -0.1010452
0.918457, -0.2573242, -0.4628906, -15.7926836, 66.3414612, -48.5365868, -0.1037308
0.9238281, -0.2373047, -0.4423828, -13.2926836, 60.9756126, -48.9634171, -0.102388
0.9418945, -0.2216797, -0.425293, -12.3170738, 59.1463432, -49.6951218, -0.1107805
0.9384766, -0.2216797, -0.4282227, -13.4756098, 57.3170738, -49.5731735, -0.1171588
0.9267578, -0.2001953, -0.418457, -15.6097565, 53.6585388, -46.5853653, -0.1211872
0.9272461, -0.1918945, -0.4135742, -15.7317076, 51.2804909, -45.0609779, -0.1117876
0.9453125, -0.1894531, -0.4194336, -15.6707325, 47.4390259, -43.2317085, -0.0903029
0.9511719, -0.2045898, -0.4223633, -15.4268293, 45.7317085, -42.6219521, -0.056733
0.9580078, -0.2592773, -0.4375, -14.8780489, 42.5, -41.7073174, -0.0077211
0.9599609, -0.2915039, -0.4780273, -15.060976, 41.341465, -40.8536606, 0.0439765
0.953125, -0.2851562, -0.5136719, -14.5731707, 39.7560997, -39.6951218, 0.0842603
0.9399414, -0.2451172, -0.5888672, -14.6951227, 39.2682953, -38.841465, 0.0956741
0.9487305, -0.2148438, -0.6142578, -15.7317076, 38.7804871, -37.7439041, 0.0909743
0.9848633, -0.1738281, -0.6401367, -16.9512196, 38.0487823, -37.6219521, 0.0748608
1.0029297, -0.1616211, -0.6435547, -17.6219521, 37.8658562, -37.2560997, 0.0480049
1.0209961, -0.1621094, -0.6210938, -19.8170738, 38.4756088, -35.4878044, 0.0238346
1.0224609, -0.1679688, -0.6054688, -20.9756107, 38.2317085, -34.2073174, 0.0036927
1.0048828, -0.1689453, -0.5678711, -24.0243912, 37.0731697, -31.0365868, -0.014435
0.9892578, -0.1699219, -0.5498047, -25.6707325, 36.5243912, -29.4512196, -0.0298772
0.9526367, -0.171875, -0.5595703, -29.9390259, 35.1829262, -26.280489, -0.0386053
0.9423828, -0.2080078, -0.5893555, -32.0121956, 34.1463432, -25.3658543, -0.0466621
0.9404297, -0.2382812, -0.5908203, -34.9390259, 31.5243912, -23.780489, -0.0513619
0.9360352, -0.2866211, -0.559082, -35.9146347, 30.2439022, -23.2926826, -0.0594186
0.9326172, -0.2958984, -0.5385742, -36.1585388, 27.0121956, -21.6463413, -0.0637827
0.9130859, -0.2836914, -0.4921875, -35.6097565, 24.0853672, -20.2439022, -0.0647898
0.8989258, -0.2719727, -0.4829102, -35.3658562, 22.439024, -19.8170738, -0.0681468
0.8886719, -0.2441406, -0.5214844, -36.341465, 19.1463413, -18.8414631, -0.0674754
0.890625, -0.2392578, -0.5546875, -37.3170738, 17.3780499, -18.6585369, -0.0661326
0.9130859, -0.2626953, -0.5991211, -39.0853653, 13.841464, -18.5975609, -0.0674754
0.9179688, -0.2817383, -0.6044922, -39.1463432, 12.1951218, -17.7439022, -0.0688182
0.9321289, -0.2919922, -0.6123047, -38.841465, 9.8170738, -15.6097565, -0.0715038
0.9267578, -0.2734375, -0.6142578, -38.2317085, 8.9024391, -14.1463413, -0.0741894
0.9223633, -0.2602539, -0.6176758, -37.7439041, 7.1951222, -12.1951218, -0.0748608
0.9155273, -0.2128906, -0.6538086, -38.7804871, 5.9756098, -11.6463413, -0.0694896
0.9125977, -0.1948242, -0.6806641, -42.7439041, 4.6341462, -10.060976, -0.0715038
0.9277344, -0.1777344, -0.7114258, -47.3780518, 2.9878049, -9.0243902, -0.0842603
0.9462891, -0.1923828, -0.7167969, -48.841465, 2.5, -8.4756098, -0.1131304
0.9702148, -0.230957, -0.7270508, -51.1585388, 1.6463414, -6.6463418, -0.1198444
0.9765625, -0.2509766, -0.7158203, -51.8902435, 1.6463414, -5.5487804, -0.105745
0.9672852, -0.2739258, -0.6782227, -52.5, 0.3658537, -2.6829269, -0.0788891
0.9619141, -0.2763672, -0.6621094, -52.6219521, 0.1219512, -1.1585366, -0.0580758
0.9443359, -0.269043, -0.6577148, -53.9024391, -1.1585366, 0.3048781, -0.0533761
0.9321289, -0.2626953, -0.6591797, -54.8780518, -1.8292683, 0.7926829, -0.0325628
0.9296875, -0.2695312, -0.6450195, -55.7317085, -4.5121951, 1.0365853, 0.0023499
0.9335938, -0.2880859, -0.5981445, -55.6097565, -6.3414636, 1.3414634, 0.0010071
0.9277344, -0.2900391, -0.5791016, -55.9146347, -9.5731707, 3.3536587, -0.0218204
0.9042969, -0.2758789, -0.5668945, -56.6463432, -12.0731707, 6.1585369, -0.0533761
0.9013672, -0.2519531, -0.5664062, -57.4390259, -13.7195129, 7.3780489, -0.0755322
0.90625, -0.215332, -0.5664062, -58.6585388, -17.1341476, 8.780488, -0.0741894
0.9150391, -0.2163086, -0.5620117, -59.4512215, -19.0853672, 8.5975609, -0.0614328
0.9350586, -0.2431641, -0.5541992, -59.8780518, -22.6219521, 8.9024391, -0.0365911
0.9365234, -0.2602539, -0.5556641, -60.0609779, -24.2682934, 9.7560978, -0.0167849
0.9370117, -0.2666016, -0.6113281, -60.2439041, -26.2195129, 12.0731707, -0.0077211
0.9487305, -0.2612305, -0.6923828, -60.8536606, -27.3170738, 13.4146347, -0.0043641
0.9584961, -0.2583008, -0.7011719, -61.5853691, -29.2073174, 15.1219511, -0.0057069
0.9804688, -0.2431641, -0.6396484, -61.7682953, -30.7317085, 15.6707325, -0.0164492
0.9829102, -0.2260742, -0.5717773, -61.341465, -33.9024391, 17.1951218, -0.0218204
0.9824219, -0.2055664, -0.4541016, -60.7317085, -37.8658562, 18.4756107, -0.0352483
0.965332, -0.203125, -0.4291992, -60.2439041, -40.0609779, 18.9634151, -0.0386053
0.925293, -0.2207031, -0.4541016, -61.341465, -44.0243912, 21.7073174, -0.0419623
0.9125977, -0.2333984, -0.4780273, -61.7073174, -46.4024391, 22.6829281, -0.0480049
0.9199219, -0.2626953, -0.5366211, -61.5853691, -51.5853653, 24.1463413, -0.0516976
0.9370117, -0.2734375, -0.5634766, -60.7317085, -53.4756126, 24.5121956, -0.0516976
0.9848633, -0.2924805, -0.6030273, -59.0853691, -56.341465, 23.1097565, -0.0580758
1.0249023, -0.2851562, -0.612793, -58.5975609, -57.3170738, 22.5, -0.0580758
1.0341797, -0.2797852, -0.6079102, -58.0487823, -59.0853691, 22.9878063, -0.0553902
1.0507812, -0.2612305, -0.6005859, -57.7439041, -60.1219521, 23.8414631, -0.0527047
1.0498047, -0.2519531, -0.6005859, -57.5609779, -62.68293, 25.6707325, -0.0513619
1.0400391, -0.2368164, -0.609375, -57.6219521, -65, 27.6219521, -0.0520333
1.0317383, -0.234375, -0.6259766, -57.6219521, -65.7317123, 28.9634151, -0.056733
1.0288086, -0.2250977, -0.6689453, -58.4756126, -67.1951218, 31.280489, -0.056733
1.0283203, -0.2177734, -0.6953125, -59.2073174, -67.8658524, 32.1341476, -0.0553902
1.0361328, -0.2192383, -0.7172852, -60.6097565, -68.7195129, 33.1707306, -0.0527047
1.0439453, -0.2280273, -0.6992188, -60.7317085, -69.3292694, 33.4756088, -0.0540475
1.0556641, -0.2587891, -0.640625, -59.8780518, -70.9146347, 34.4512215, -0.0516976
1.0458984, -0.269043, -0.6259766, -59.1463432, -71.2804871, 35.1219521, -0.0513619
1.0419922, -0.2666016, -0.6245117, -58.3536606, -72.3780518, 36.341465, -0.0594186
1.0185547, -0.2553711, -0.6259766, -58.4146347, -73.7804871, 36.8902435, -0.056733
1.0229492, -0.2519531, -0.6235352, -57.68293, -76.2804871, 37.8658562, -0.0513619
1.0239258, -0.2470703, -0.6391602, -57.68293, -78.7195129, 38.5365868, -0.0513619
1.0214844, -0.2421875, -0.6523438, -58.1707344, -79.8780518, 39.2073174, -0.0533761
1.0302734, -0.2338867, -0.5878906, -57.9878044, -84.0243912, 40, -0.0553902
1.0522461, -0.2543945, -0.5620117, -56.5243912, -87.0121994, 39.5121956, -0.0466621
1.0585938, -0.328125, -0.5854492, -54.1463432, -89.9390259, 39.9390259, -0.0365911
1.0429688, -0.3476562, -0.6103516, -54.3902435, -91.5243912, 41.341465, -0.0285344
1.0009766, -0.3198242, -0.637207, -53.7195129, -95.9146347, 44.0853653, -0.0191348
0.9853516, -0.2661133, -0.6572266, -52.9268303, -97.9268341, 44.7560997, -0.0137636
0.9882812, -0.2441406, -0.6699219, -51.5853653, -100.4878082, 44.5121956, -0.0070497
1.0141602, -0.2368164, -0.6796875, -51.2195129, -101.646347, 44.4512215, -0.0016785
1.0253906, -0.237793, -0.6738281, -51.2195129, -104.8780518, 43.7804871, -0.0043641
1.0410156, -0.2451172, -0.6762695, -51.8292694, -107.1951218, 44.8170738, -0.0104067
1.0493164, -0.2451172, -0.6875, -52.1341476, -108.2926865, 45.9146347, -0.0151064
1.059082, -0.2441406, -0.7207031, -52.8048782, -110.9146347, 47.6829262, -0.0204776
1.0644531, -0.2490234, -0.7421875, -52.8048782, -111.8292694, 48.5975609, -0.0224918
1.0673828, -0.2626953, -0.7485352, -51.8902435, -113.9634171, 49.8780518, -0.027863
1.0678711, -0.2675781, -0.737793, -51.0365868, -115.0609818, 50.4878044, -0.0409552
1.0644531, -0.2641602, -0.7368164, -49.0853653, -115.9756088, 51.4024391, -0.1164874
1.0507812, -0.2382812, -0.7402344, -48.841465, -116.1585388, 52.1951218, -0.1836271
1.0478516, -0.2294922, -0.7348633, -48.7195129, -117.3170776, 53.0487823, -0.1540856
1.0507812, -0.2329102, -0.706543, -48.841465, -118.2317123, 53.2926826, -0.0809033
1.0419922, -0.2416992, -0.706543, -48.1707344, -120.6707382, 54.1463432, -0.0194705
1.0317383, -0.2646484, -0.7084961, -47.9268303, -122.1951218, 54.7560997, 0.011078
1.0258789, -0.2753906, -0.7138672, -47.9268303, -123.4756088, 55.3658562, 0.017792
1.0234375, -0.2949219, -0.7255859, -47.8658562, -126.2195129, 56.2195129, 0.0050355
1.0185547, -0.3037109, -0.7324219, -47.1951218, -126.9512253, 56.2804909, -0.0077211
1.0175781, -0.2871094, -0.7202148, -45.3658562, -129.0243988, 56.7682953, -0.0224918
1.0224609, -0.2768555, -0.715332, -44.3292694, -130.36586, 56.5853653, -0.03122
1.0273438, -0.2641602, -0.7163086, -42.9268303, -132.5, 56.4024391, -0.0392767
1.0361328, -0.2470703, -0.7333984, -42.4390259, -133.7804871, 56.2195129, -0.0473335
1.0444336, -0.2431641, -0.7319336, -42.6219521, -136.2195129, 56.7682953, -0.0500191
1.0483398, -0.253418, -0.722168, -42.0731735, -137.9268341, 57.1341476, -0.0553902
1.0512695, -0.2626953, -0.7192383, -40.7317085, -141.3414612, 57.68293, -0.0621042
1.0478516, -0.2734375, -0.7412109, -40.0609779, -144.0853729, 58.4146347, -0.0674754
1.0429688, -0.277832, -0.7636719, -39.8170738, -145.1829376, 58.7804909, -0.0688182
1.0307617, -0.2739258, -0.7988281, -40.0609779, -147.3170776, 59.3902435, -0.0681468
1.0288086, -0.2617188, -0.8061523, -39.8780479, -147.8048859, 59.7560997, -0.0795605
1.043457, -0.2426758, -0.796875, -38.5365868, -148.6585388, 60.7926826, -0.0983597
1.0576172, -0.2416992, -0.7822266, -37.8658562, -149.6341553, 60.5487823, -0.1017166
1.0722656, -0.253418, -0.753418, -36.341465, -151.2195129, 60.8536606, -0.1094377
1.0727539, -0.2626953, -0.7734375, -36.0975609, -152.3170776, 61.0975609, -0.1117876
1.0605469, -0.2719727, -0.7993164, -36.5243912, -153.7195129, 62.4390259, -0.1077592
1.0454102, -0.2685547, -0.8535156, -36.7073174, -154.5121918, 63.6585388, -0.1010452
1.0458984, -0.2626953, -0.8540039, -36.7073174, -155.4268341, 65.3658524, -0.0849317
1.0581055, -0.2485352, -0.8037109, -34.0243912, -156.4024353, 65.6097565, -0.0708324
1.0644531, -0.2470703, -0.7773438, -32.5609779, -157.1951294, 65.4268341, -0.0574044
1.0717773, -0.2524414, -0.7753906, -31.1585369, -157.7439117, 65.6097565, -0.063447
1.0600586, -0.2539062, -0.8085938, -31.7073174, -158.2317047, 65.9756088, -0.0866102
1.0532227, -0.2626953, -0.8745117, -33.3536606, -159.5121918, 67.8048782, -0.0960098
1.0551758, -0.2729492, -0.8720703, -33.5365868, -160.4268341, 68.7804871, -0.0970169
1.074707, -0.2924805, -0.8364258, -30.7317085, -162.0121918, 70.18293, -0.0929885
1.0898438, -0.2944336, -0.7456055, -28.9634151, -162.5609741, 70.2439041, -0.0721752
1.0883789, -0.2978516, -0.7397461, -25.9146347, -164.2682953, 69.5121994, -0.0412909
1.059082, -0.2915039, -0.8305664, -25.9756107, -164.4512177, 69.2682953, -0.0043641
1.0424805, -0.2895508, -0.8457031, -28.3536587, -165.3048859, 69.7560959, 0.0332341
1.0458984, -0.2973633, -0.8071289, -27.0731716, -169.3902435, 69.5731735, 0.066804
1.0561523, -0.3012695, -0.7944336, -25.3658543, -170.1219482, 68.9634171, 0.0896315
1.0688477, -0.3203125, -0.8100586, -22.3780499, -170.0609741, 68.0487823, 0.0923171
1.0654297, -0.3276367, -0.8276367, -22.2560978, -170.7926941, 67.7439041, 0.0842603
1.0595703, -0.3276367, -0.8681641, -22.1341476, -172.5609741, 67.3170776, 0.073518
1.0620117, -0.3286133, -0.8745117, -21.9512196, -173.4756165, 67.2560959, 0.0547189
1.074707, -0.3266602, -0.8691406, -19.6951218, -173.9634247, 67.3170776, 0.0359197
1.0830078, -0.3222656, -0.8388672, -18.8414631, -174.4512177, 67.0121994, 0.0234989
1.0820312, -0.3208008, -0.8242188, -15.6097565, -175.7317047, 66.4024429, 0.0077211
1.0732422, -0.3115234, -0.8383789, -14.2073174, -176.5853729, 66.2804871, -0.011078
1.0664062, -0.3046875, -0.8754883, -13.7195129, -177.2561035, 66.5853653, -0.0171206
1.0610352, -0.277832, -0.9399414, -15.7926836, -178.3536682, 66.8902435, -0.0271916
1.059082, -0.2749023, -0.9467773, -15.9756098, -179.0243988, 67.0121994, -0.0369268
1.0712891, -0.2880859, -0.9135742, -13.5975609, -180.9146423, 67.4390259, -0.0493477
1.0800781, -0.3022461, -0.890625, -12.0121956, -180.9756165, 67.9268341, -0.0647898
1.078125, -0.3359375, -0.8574219, -9.2682924, -181.4634247, 68.4756088, -0.0889601
1.0610352, -0.3369141, -0.9067383, -8.3536587, -181.5243988, 68.7195129, -0.1258869
1.0444336, -0.3305664, -0.9472656, -8.1097565, -181.7073212, 69.5731735, -0.1453574
1.0283203, -0.3251953, -0.9760742, -8.1707315, -181.646347, 69.6341476, -0.1292439
1.0361328, -0.3291016, -0.9589844, -8.0487804, -182.2561035, 69.2682953, -0.1017166
1.0429688, -0.3334961, -0.9130859, -6.9512196, -182.3170776, 69.0853653, -0.0728466
1.0410156, -0.3344727, -0.9008789, -5.5487804, -182.3170776, 68.7804871, -0.0594186
1.0219727, -0.3139648, -0.9316406, -5, -182.4390259, 69.2073212, -0.0553902
1.0195312, -0.2998047, -0.9599609, -5.1829271, -182.5, 69.9390259, -0.0594186
1.0151367, -0.2890625, -0.9790039, -6.5853658, -183.3536682, 70.4878082, -0.0651255
1.0136719, -0.3007812, -0.9692383, -6.6463418, -183.9634247, 70.6707306, -0.0674754
