Application:, Trigno Discover (1.6.5)
Date/Time:, 29/01/2025 16:08:04
Collection Length (seconds):, 41.9985
wrist (81457), , , , , , bicep (81139)
sensor mode: 609, , , , , , sensor mode: 40
ACC X (G), ACC Y (G), ACC Z (G), GYRO X (deg/s), GYRO Y (deg/s), GYRO Z (deg/s), EMG 1 (mV)
370.3704 Hz, 370.3704 Hz, 370.3704 Hz, 370.3704 Hz, 370.3704 Hz, 370.3704 Hz, 2148.1481 Hz
0.9243164, -0.3256836, 0.1831055, -12.560976, -8.5975609, 2.5, -0.0379339
0.9204102, -0.3256836, 0.1875, -12.7439032, -8.5365858, 2.1341465, -0.0406195
0.9179688, -0.3271484, 0.1826172, -12.6219511, -8.4756098, 2.3780489, -0.0433051
0.9199219, -0.3222656, 0.1821289, -12.5, -8.780488, 2.4390244, -0.0439765
0.9155273, -0.3286133, 0.1835938, -12.4390249, -9.0243902, 2.0731707, -0.0486763
0.9223633, -0.3217773, 0.1850586, -12.560976, -8.9634151, 2.2560976, -0.0540475
0.9208984, -0.3217773, 0.184082, -12.2560978, -8.780488, 2.4390244, -0.0473335
0.918457, -0.3227539, 0.184082, -12.0731707, -8.719512, 2.3170731, -0.0433051
0.9135742, -0.3188477, 0.1875, -11.8292685, -8.6585369, 2.2560976, -0.0406195
0.9135742, -0.3198242, 0.1831055, -12.1341467, -8.6585369, 2.5, -0.0399481
0.9140625, -0.3183594, 0.1806641, -12.0731707, -8.9024391, 2.6219513, -0.0392767
0.9116211, -0.3188477, 0.1787109, -11.9512196, -9.2682924, 3.0487804, -0.0406195
0.9130859, -0.3134766, 0.1777344, -12.0731707, -8.780488, 2.8658538, -0.0419623
0.9145508, -0.3110352, 0.1791992, -12.1341467, -8.6585369, 2.9268293, -0.035584
0.9160156, -0.3144531, 0.1772461, -12.3780489, -8.9024391, 3.0487804, -0.0386053
0.9130859, -0.3173828, 0.1767578, -12.560976, -8.9634151, 3.2926829, -0.0433051
0.9135742, -0.3173828, 0.1821289, -12.4390249, -8.841464, 3.3536587, -0.0392767
0.9135742, -0.3173828, 0.1811523, -12.560976, -8.9634151, 3.2926829, -0.0298772
0.9160156, -0.3168945, 0.1816406, -12.3780489, -8.9024391, 2.9268293, -0.0298772
0.9130859, -0.3168945, 0.1811523, -12.1341467, -9.1463413, 3.0487804, -0.0379339
0.9165039, -0.3178711, 0.1806641, -11.6463413, -8.841464, 3.1707318, -0.0352483
0.9160156, -0.3178711, 0.1791992, -11.7682934, -9.0243902, 3.4146342, -0.0392767
0.9174805, -0.3183594, 0.1787109, -11.8292685, -8.9634151, 3.1097562, -0.0419623
0.9121094, -0.3212891, 0.1791992, -11.5853662, -8.9024391, 2.9878049, -0.0386053
0.9111328, -0.3203125, 0.1782227, -11.4024391, -8.9634151, 2.804878, -0.0379339
0.9135742, -0.3168945, 0.1772461, -11.4634151, -8.9024391, 2.6829269, -0.0365911
0.9150391, -0.3193359, 0.1777344, -11.4024391, -8.841464, 2.5609756, -0.0379339
0.9179688, -0.3168945, 0.1801758, -10.7317076, -9.0243902, 2.4390244, -0.0352483
0.9111328, -0.3149414, 0.1801758, -11.0365858, -9.1463413, 2.3170731, -0.0369268
0.9072266, -0.3134766, 0.1791992, -10.7317076, -9.2073174, 2.3170731, -0.0379339
0.9072266, -0.3134766, 0.1806641, -10.7926836, -9.0243902, 2.4390244, -0.0339055
0.9091797, -0.309082, 0.1816406, -10.9756098, -8.9024391, 2.2560976, -0.0399481
0.9106445, -0.3125, 0.1801758, -10.9756098, -9.1463413, 2.3170731, -0.0439765
0.9111328, -0.3125, 0.1796875, -11.0975609, -9.2073174, 2.3170731, -0.0412909
0.90625, -0.3110352, 0.1791992, -11.0365858, -9.3902445, 2.2560976, -0.0412909
0.9086914, -0.309082, 0.1767578, -11.341464, -9.2682924, 2.195122, -0.0433051
0.9145508, -0.3134766, 0.1772461, -11.0365858, -9.3902445, 2.195122, -0.0439765
0.9111328, -0.3134766, 0.1801758, -10.9756098, -9.3292685, 2.0731707, -0.0359197
0.9082031, -0.3076172, 0.1767578, -11.4634151, -9.3902445, 1.8902439, -0.0392767
0.9086914, -0.3100586, 0.1762695, -11.5853662, -8.841464, 1.5853659, -0.0433051
0.9101562, -0.3085938, 0.1728516, -11.7682934, -8.719512, 2.195122, -0.0486763
0.9101562, -0.3095703, 0.1757812, -11.7682934, -8.9024391, 2.0731707, -0.0500191
0.90625, -0.3129883, 0.1733398, -11.8292685, -8.9024391, 1.8902439, -0.0513619
0.9125977, -0.3139648, 0.1713867, -12.0731707, -9.2073174, 2.2560976, -0.0500191
0.9121094, -0.3144531, 0.171875, -12.6219511, -9.2682924, 2.0731707, -0.0533761
0.9106445, -0.3105469, 0.1772461, -12.4390249, -9.3292685, 2.0731707, -0.0513619
0.9111328, -0.3144531, 0.1762695, -12.560976, -9.2682924, 2.1341465, -0.0500191
0.9150391, -0.3168945, 0.1772461, -12.3780489, -9.2073174, 1.8902439, -0.0459907
0.9145508, -0.3222656, 0.1772461, -12.7439032, -9.2682924, 1.8292683, -0.0446479
0.9150391, -0.3227539, 0.1816406, -12.8048782, -9.0243902, 2.195122, -0.0392767
0.9145508, -0.3208008, 0.1767578, -12.560976, -9.1463413, 1.9512196, -0.0412909
0.9169922, -0.3227539, 0.1782227, -12.7439032, -9.0853662, 2.0121951, -0.0433051
0.9145508, -0.3217773, 0.1791992, -12.8048782, -9.2073174, 1.9512196, -0.0433051
0.9169922, -0.3203125, 0.1772461, -12.6219511, -8.841464, 2.3170731, -0.0433051
0.9121094, -0.3266602, 0.1748047, -12.560976, -8.719512, 1.8902439, -0.0412909
0.9140625, -0.3222656, 0.1748047, -12.2560978, -8.780488, 1.8292683, -0.0439765
0.9086914, -0.3217773, 0.1738281, -12.2560978, -8.9634151, 1.5853659, -0.0473335
0.9106445, -0.3232422, 0.1723633, -12.2560978, -9.1463413, 1.8292683, -0.0419623
0.9091797, -0.3227539, 0.1738281, -12.3780489, -9.1463413, 1.7073171, -0.0446479
0.9067383, -0.3232422, 0.1733398, -11.8902445, -9.2682924, 1.8902439, -0.0446479
0.9082031, -0.3193359, 0.1728516, -12.3780489, -9.0243902, 1.8902439, -0.0439765
0.9082031, -0.3212891, 0.175293, -12.3170738, -8.9024391, 1.9512196, -0.0392767
0.9086914, -0.3203125, 0.1699219, -12.3780489, -9.1463413, 1.9512196, -0.0379339
0.909668, -0.3222656, 0.1728516, -11.8902445, -9.2073174, 1.8902439, -0.0436408
0.9067383, -0.3227539, 0.1733398, -12.1951218, -9.3902445, 1.9512196, -0.0466621
0.9111328, -0.3212891, 0.1743164, -12.1341467, -9.3292685, 1.9512196, -0.042298
0.9111328, -0.3208008, 0.1743164, -12.0121956, -9.4512196, 1.7073171, -0.0446479
0.9106445, -0.3198242, 0.1743164, -11.8902445, -9.5731707, 1.7682927, -0.0433051
0.9116211, -0.3222656, 0.1743164, -11.8902445, -9.4512196, 1.8292683, -0.0459907
0.9091797, -0.3271484, 0.1738281, -11.8292685, -9.5731707, 1.7073171, -0.0486763
0.9116211, -0.3193359, 0.1733398, -11.7682934, -9.4512196, 1.7073171, -0.0459907
0.9160156, -0.3198242, 0.1748047, -11.7073174, -9.4512196, 1.7682927, -0.0459907
0.918457, -0.3212891, 0.1728516, -11.6463413, -9.7560978, 1.5853659, -0.0419623
0.918457, -0.3198242, 0.1743164, -11.4024391, -9.3292685, 1.5243902, -0.0406195
0.9223633, -0.3193359, 0.1748047, -11.5243902, -9.5731707, 1.6463414, -0.0446479
0.9165039, -0.3198242, 0.1782227, -11.4634151, -9.5121956, 1.4634147, -0.0436408
0.9160156, -0.3193359, 0.1757812, -11.5853662, -9.6951218, 1.7073171, -0.0409552
0.9194336, -0.315918, 0.1748047, -11.4634151, -9.5731707, 1.6463414, -0.0406195
0.9160156, -0.3144531, 0.1733398, -11.280488, -9.5121956, 1.5853659, -0.0386053
0.9155273, -0.3129883, 0.171875, -10.9146347, -9.2682924, 1.6463414, -0.0439765
0.9145508, -0.3178711, 0.1674805, -11.341464, -9.3292685, 1.7073171, -0.0412909
0.9130859, -0.3134766, 0.1679688, -11.6463413, -9.3292685, 1.7073171, -0.0386053
0.9125977, -0.3168945, 0.1674805, -11.8902445, -9.1463413, 1.5853659, -0.0332341
0.9130859, -0.3149414, 0.1679688, -11.8292685, -9.3902445, 1.7682927, -0.0365911
0.9165039, -0.3164062, 0.1713867, -12.0731707, -9.2073174, 1.9512196, -0.0379339
0.918457, -0.3183594, 0.1689453, -12.1951218, -9.3292685, 2.0121951, -0.0476692
0.9165039, -0.3183594, 0.1713867, -12.0731707, -9.0853662, 1.7682927, -0.0486763
0.9135742, -0.3198242, 0.1728516, -12.0731707, -9.3902445, 1.7682927, -0.0459907
0.9145508, -0.3242188, 0.1757812, -12.0731707, -9.2073174, 1.7073171, -0.0486763
0.9165039, -0.3203125, 0.1757812, -11.8292685, -9.3292685, 1.4634147, -0.0500191
0.9150391, -0.3212891, 0.1748047, -11.8902445, -9.1463413, 1.5243902, -0.0379339
0.9155273, -0.3178711, 0.1723633, -11.7682934, -9.3292685, 1.7682927, -0.0486763
0.9150391, -0.3173828, 0.1728516, -11.9512196, -9.3292685, 1.6463414, -0.0486763
0.9145508, -0.3188477, 0.1699219, -12.0121956, -9.3292685, 1.7682927, -0.0459907
0.9150391, -0.3168945, 0.168457, -11.8292685, -9.3292685, 1.8902439, -0.0433051
0.9169922, -0.315918, 0.1713867, -12.3780489, -9.5121956, 1.8902439, -0.0473335
0.9150391, -0.315918, 0.1723633, -12.1341467, -9.3292685, 1.7682927, -0.0493477
0.9179688, -0.3125, 0.1728516, -12.1951218, -9.5121956, 1.8902439, -0.049012
0.9204102, -0.3139648, 0.1699219, -12.5, -9.4512196, 2.1341465, -0.0466621
0.9194336, -0.3120117, 0.168457, -12.3780489, -9.2682924, 2.0731707, -0.049012
0.9169922, -0.3129883, 0.1669922, -12.3780489, -9.3292685, 2.0121951, -0.0426337
0.9135742, -0.3154297, 0.1694336, -12.6829271, -9.4512196, 1.9512196, -0.0372625
0.9194336, -0.3125, 0.168457, -12.6219511, -9.4512196, 2.2560976, -0.0436408
0.9169922, -0.3125, 0.1699219, -12.6829271, -9.5731707, 2.1341465, -0.0513619
0.9179688, -0.3139648, 0.1723633, -13.1097565, -9.5731707, 2.1341465, -0.0486763
0.9208984, -0.3134766, 0.1694336, -12.9878054, -9.5731707, 2.3170731, -0.0513619
0.9174805, -0.3149414, 0.1708984, -13.0487804, -9.3902445, 2.4390244, -0.0453193
0.9204102, -0.3149414, 0.1738281, -12.9878054, -9.6951218, 2.195122, -0.0466621
0.9223633, -0.3173828, 0.1704102, -12.8048782, -9.4512196, 2.1341465, -0.0486763
0.9277344, -0.3154297, 0.171875, -12.8658543, -9.6951218, 2.0731707, -0.0500191
0.9243164, -0.3144531, 0.1713867, -12.8048782, -9.6341467, 2.0121951, -0.0476692
0.9238281, -0.3154297, 0.1704102, -12.3780489, -9.5731707, 1.9512196, -0.0412909
0.9257812, -0.3178711, 0.1728516, -12.560976, -9.5731707, 1.7073171, -0.0459907
0.921875, -0.3125, 0.171875, -12.4390249, -9.3902445, 1.7073171, -0.0506905
0.9179688, -0.3095703, 0.1694336, -12.1951218, -9.4512196, 1.6463414, -0.0409552
0.9208984, -0.3100586, 0.1679688, -12.2560978, -9.6341467, 1.7682927, -0.0379339
0.9223633, -0.3105469, 0.1699219, -12.1341467, -9.5731707, 1.8902439, -0.0433051
0.9228516, -0.3125, 0.1689453, -12.3780489, -9.9390249, 1.8902439, -0.0419623
0.9194336, -0.3110352, 0.1689453, -12.5, -9.8780489, 1.9512196, -0.0419623
0.9174805, -0.3085938, 0.1669922, -12.4390249, -9.6951218, 1.8292683, -0.0480049
0.9169922, -0.3115234, 0.1733398, -12.7439032, -9.5731707, 1.8902439, -0.0419623
0.9194336, -0.3105469, 0.1728516, -12.6219511, -9.6951218, 2.0731707, -0.0392767
0.9179688, -0.3120117, 0.1738281, -12.5, -9.5121956, 1.7682927, -0.0419623
0.9189453, -0.3129883, 0.171875, -12.3780489, -9.7560978, 1.8902439, -0.0446479
0.9194336, -0.3081055, 0.1699219, -12.5, -9.6951218, 1.7682927, -0.0419623
0.9213867, -0.3134766, 0.1699219, -12.3780489, -9.9390249, 1.7682927, -0.0419623
0.9150391, -0.3178711, 0.1723633, -12.2560978, -9.8780489, 1.7682927, -0.0409552
0.9169922, -0.3139648, 0.1738281, -12.5, -9.8170738, 1.6463414, -0.0459907
0.9169922, -0.3110352, 0.1713867, -12.7439032, -9.8780489, 1.402439, -0.0500191
0.9145508, -0.3129883, 0.1713867, -12.4390249, -9.9390249, 1.7073171, -0.0540475
0.9199219, -0.3129883, 0.1772461, -12.4390249, -9.6951218, 1.6463414, -0.0473335
0.9199219, -0.3164062, 0.1777344, -12.1951218, -9.8170738, 1.5853659, -0.0486763
0.9169922, -0.315918, 0.1757812, -12.0731707, -9.6341467, 1.3414634, -0.0446479
0.9165039, -0.3154297, 0.1733398, -12.0731707, -9.8780489, 1.402439, -0.0453193
0.9155273, -0.3144531, 0.1757812, -11.8292685, -9.6951218, 1.4634147, -0.0476692
0.9135742, -0.3183594, 0.1767578, -11.8292685, -9.7560978, 1.1585366, -0.0439765
0.9130859, -0.3139648, 0.1757812, -11.8292685, -9.8170738, 1.2195122, -0.0493477
0.9155273, -0.3110352, 0.1733398, -12.1951218, -9.6951218, 1.402439, -0.0513619
0.9125977, -0.3125, 0.1728516, -11.8902445, -9.5121956, 1.5243902, -0.0513619
0.9121094, -0.3110352, 0.1782227, -12.1341467, -9.8170738, 1.4634147, -0.0466621
0.9130859, -0.3110352, 0.1777344, -12.3170738, -9.6951218, 1.3414634, -0.0453193
0.9091797, -0.3139648, 0.175293, -12.0731707, -9.8780489, 1.4634147, -0.0419623
0.9145508, -0.3120117, 0.1738281, -11.8902445, -9.8780489, 1.2195122, -0.0406195
0.9179688, -0.3168945, 0.1728516, -12.1951218, -9.6341467, 1.402439, -0.0473335
0.9150391, -0.3125, 0.1748047, -12.2560978, -9.8170738, 1.3414634, -0.0446479
0.9140625, -0.3129883, 0.1743164, -12.0731707, -9.6951218, 1.3414634, -0.0433051
0.9174805, -0.3139648, 0.1791992, -12.5, -9.5731707, 1.1585366, -0.0392767
0.9135742, -0.3105469, 0.1791992, -12.2560978, -9.6951218, 1.5853659, -0.0412909
0.9169922, -0.3164062, 0.1782227, -12.4390249, -9.6951218, 1.5243902, -0.0386053
0.9150391, -0.3164062, 0.1772461, -12.3780489, -9.5731707, 1.5243902, -0.0365911
0.9189453, -0.3149414, 0.1782227, -12.560976, -9.5731707, 1.4634147, -0.0386053
0.9145508, -0.3110352, 0.1757812, -12.0731707, -9.7560978, 1.2804878, -0.0379339
0.9145508, -0.3120117, 0.1748047, -12.1951218, -9.8170738, 1.4634147, -0.0339055
0.9165039, -0.3139648, 0.1738281, -12.0121956, -9.8170738, 1.3414634, -0.0382696
0.9213867, -0.3149414, 0.1748047, -12.0731707, -9.8780489, 1.1585366, -0.0386053
0.9155273, -0.3139648, 0.1767578, -12.3780489, -9.9390249, 1.3414634, -0.0339055
0.9160156, -0.3144531, 0.1738281, -12.1951218, -10, 1.2804878, -0.0386053
0.9189453, -0.3188477, 0.1762695, -12.1951218, -10.1219511, 1.2804878, -0.0406195
0.9194336, -0.3154297, 0.1782227, -12.0121956, -10, 1.1585366, -0.0406195
0.9189453, -0.3168945, 0.1796875, -11.6463413, -10, 1.2804878, -0.0325628
0.9233398, -0.3149414, 0.1777344, -11.9512196, -9.9390249, 1.1585366, -0.0386053
0.9189453, -0.315918, 0.1811523, -11.7073174, -10, 1.2195122, -0.0359197
0.9169922, -0.315918, 0.1757812, -11.8292685, -10, 1.2804878, -0.042298
0.918457, -0.315918, 0.1767578, -12.0121956, -10, 1.2804878, -0.0439765
0.9208984, -0.3183594, 0.1767578, -11.7682934, -10, 0.9756098, -0.0412909
0.9204102, -0.3173828, 0.1782227, -11.8292685, -10.1219511, 1.097561, -0.0453193
0.9213867, -0.3164062, 0.1762695, -11.8292685, -10.1219511, 1.3414634, -0.0419623
0.9223633, -0.3178711, 0.1738281, -11.7682934, -10.1829271, 1.097561, -0.0386053
0.9204102, -0.3154297, 0.1796875, -11.7073174, -10.1219511, 1.1585366, -0.0419623
0.918457, -0.3125, 0.1777344, -11.7073174, -10.2439022, 1.2195122, -0.0463264
0.9174805, -0.3154297, 0.1787109, -11.4024391, -9.9390249, 1.2195122, -0.0406195
0.9179688, -0.3164062, 0.1767578, -11.6463413, -10.1829271, 1.3414634, -0.0426337
0.9204102, -0.3164062, 0.1772461, -11.5853662, -10.1829271, 1.3414634, -0.0386053
0.9208984, -0.3183594, 0.1801758, -11.280488, -10.1829271, 1.2195122, -0.0379339
0.9160156, -0.3149414, 0.1806641, -11.6463413, -9.8170738, 1.3414634, -0.0419623
0.9135742, -0.3193359, 0.1748047, -11.7073174, -9.9390249, 1.5853659, -0.0446479
0.9179688, -0.3178711, 0.1762695, -11.4634151, -10.1219511, 1.6463414, -0.0433051
0.9165039, -0.3168945, 0.1796875, -11.7073174, -10.3048782, 1.2804878, -0.0433051
0.9160156, -0.3183594, 0.1831055, -11.4634151, -10.2439022, 1.2195122, -0.0406195
0.9150391, -0.3164062, 0.1782227, -11.219512, -10.1219511, 1.4634147, -0.0480049
0.9130859, -0.3183594, 0.1796875, -11.341464, -10.3048782, 1.5243902, -0.0493477
0.9243164, -0.3193359, 0.1791992, -10.8536587, -10.4268293, 1.5243902, -0.0503548
0.9199219, -0.3168945, 0.1796875, -11.0365858, -10.4878054, 1.4634147, -0.0553902
0.9204102, -0.3168945, 0.1796875, -11.0365858, -10.5487804, 1.7073171, -0.0513619
0.9174805, -0.3193359, 0.1806641, -11.0975609, -10.4268293, 1.5853659, -0.0466621
0.9208984, -0.3178711, 0.1777344, -11.0365858, -10.4878054, 1.8292683, -0.0486763
0.918457, -0.3149414, 0.1787109, -10.7317076, -10.4268293, 1.5853659, -0.0527047
0.918457, -0.3129883, 0.1787109, -10.4878054, -10.7926836, 1.5243902, -0.0459907
0.9174805, -0.315918, 0.1782227, -10.8536587, -10.3048782, 1.8292683, -0.0433051
0.9199219, -0.3120117, 0.1791992, -10.9146347, -10.2439022, 1.7073171, -0.0412909
0.9165039, -0.3115234, 0.1782227, -10.7317076, -10.3048782, 1.7073171, -0.0392767
0.9179688, -0.3115234, 0.1806641, -10.4878054, -10.4878054, 1.7073171, -0.0439765
0.9179688, -0.3139648, 0.1811523, -10.7317076, -10.1829271, 1.7682927, -0.0466621
0.9194336, -0.3129883, 0.1791992, -10.4268293, -10, 1.9512196, -0.0443122
0.9213867, -0.3139648, 0.1772461, -10.1829271, -10.060976, 1.6463414, -0.0419623
0.9199219, -0.3085938, 0.1777344, -10.2439022, -10.3048782, 1.4634147, -0.0399481
0.9243164, -0.309082, 0.175293, -10.6097565, -10.4268293, 1.7682927, -0.0379339
0.9228516, -0.3100586, 0.1767578, -10.7926836, -10.3048782, 1.9512196, -0.0406195
0.9213867, -0.3095703, 0.1791992, -10.9146347, -9.9390249, 1.9512196, -0.0392767
0.9155273, -0.3081055, 0.175293, -10.7926836, -9.8780489, 1.9512196, -0.0352483
0.9213867, -0.3076172, 0.1806641, -10.9146347, -9.8780489, 2.0731707, -0.0352483
0.9233398, -0.3095703, 0.1772461, -10.9146347, -9.5731707, 2.0121951, -0.0352483
0.9199219, -0.3076172, 0.1772461, -10.8536587, -9.5731707, 2.0731707, -0.0325628
0.9204102, -0.3115234, 0.1743164, -10.7317076, -9.8170738, 2.2560976, -0.0352483
0.9233398, -0.3144531, 0.1733398, -10.9146347, -10, 2.1341465, -0.0345769
0.9248047, -0.3129883, 0.1708984, -11.0975609, -9.6951218, 2.0121951, -0.0325628
0.9291992, -0.3115234, 0.1699219, -11.0365858, -9.7560978, 2.0731707, -0.0339055
0.9272461, -0.3125, 0.1694336, -11.4024391, -9.5121956, 1.9512196, -0.0352483
0.9272461, -0.3110352, 0.1723633, -10.7926836, -9.2073174, 1.5243902, -0.0352483
0.9257812, -0.3120117, 0.1713867, -11.0365858, -9.3902445, 1.6463414, -0.03122
0.9233398, -0.3081055, 0.1713867, -11.0975609, -9.2073174, 1.6463414, -0.0359197
0.9257812, -0.3066406, 0.168457, -11.280488, -9.3902445, 1.7073171, -0.0365911
0.9272461, -0.3071289, 0.1640625, -11.219512, -9.3902445, 1.9512196, -0.0392767
0.9233398, -0.3012695, 0.1704102, -11.7073174, -9.3292685, 1.9512196, -0.0446479
0.9233398, -0.3037109, 0.1708984, -12.3780489, -9.5121956, 1.9512196, -0.0406195
0.918457, -0.2998047, 0.1733398, -12.4390249, -9.5121956, 1.7682927, -0.0399481
0.918457, -0.3051758, 0.1733398, -12.1341467, -9.0243902, 1.8902439, -0.0365911
0.9194336, -0.3037109, 0.1699219, -12.3170738, -8.9024391, 2.0121951, -0.0386053
0.9155273, -0.3076172, 0.1704102, -12.560976, -9.2073174, 2.195122, -0.0365911
0.9174805, -0.3071289, 0.1669922, -12.3780489, -9.3292685, 2.6219513, -0.0365911
0.9174805, -0.3129883, 0.1650391, -12.7439032, -9.6341467, 2.5, -0.0412909
0.9174805, -0.3178711, 0.1674805, -12.560976, -9.2682924, 2.804878, -0.0459907
0.9179688, -0.3134766, 0.1704102, -12.2560978, -9.0243902, 2.6219513, -0.0446479
0.9223633, -0.3154297, 0.1728516, -11.7682934, -9.3292685, 2.5, -0.042298
0.9194336, -0.3149414, 0.1674805, -11.7682934, -9.1463413, 2.195122, -0.0412909
0.918457, -0.3115234, 0.1694336, -11.0365858, -9.1463413, 1.9512196, -0.0406195
0.9150391, -0.3066406, 0.1669922, -10.9756098, -9.5121956, 1.7682927, -0.0453193
0.9174805, -0.3085938, 0.1572266, -10.6707315, -9.7560978, 1.7073171, -0.049012
0.9155273, -0.2998047, 0.1542969, -11.4024391, -9.5121956, 2.0731707, -0.0459907
0.9145508, -0.2978516, 0.1552734, -11.8902445, -9.6341467, 2.0731707, -0.0486763
0.9130859, -0.2885742, 0.1547852, -12.3780489, -9.3902445, 2.3780489, -0.0480049
0.9135742, -0.2890625, 0.1567383, -12.6219511, -9.5121956, 2.5, -0.0392767
0.9160156, -0.2905273, 0.1582031, -13.0487804, -9.5121956, 2.5, -0.0386053
0.918457, -0.2929688, 0.159668, -13.0487804, -9.4512196, 2.5609756, -0.0352483
0.9199219, -0.3032227, 0.1586914, -13.2317076, -9.6951218, 2.9268293, -0.0339055
0.9213867, -0.3051758, 0.1572266, -13.5365858, -9.7560978, 2.6829269, -0.0352483
0.9233398, -0.3125, 0.1606445, -13.841464, -9.7560978, 2.804878, -0.0325628
0.9243164, -0.315918, 0.1635742, -13.9634151, -9.6341467, 2.6829269, -0.0365911
0.9301758, -0.3217773, 0.1674805, -13.4756098, -9.5731707, 2.3780489, -0.0365911
0.9272461, -0.3232422, 0.1689453, -12.6829271, -9.5121956, 2.0121951, -0.0365911
0.9267578, -0.3232422, 0.1699219, -12.5, -9.6341467, 1.6463414, -0.0379339
0.9282227, -0.3232422, 0.175293, -11.7682934, -9.8780489, 1.3414634, -0.0386053
0.9262695, -0.3198242, 0.1713867, -11.280488, -9.9390249, 1.1585366, -0.0419623
0.9291992, -0.3085938, 0.1655273, -10.8536587, -9.9390249, 1.0365853, -0.0446479
0.9296875, -0.3061523, 0.1669922, -10.4268293, -10.060976, 1.1585366, -0.0409552
0.9272461, -0.2988281, 0.1616211, -10.7926836, -10.060976, 0.6707317, -0.0392767
0.925293, -0.2954102, 0.1621094, -11.0365858, -9.8170738, 0.6707317, -0.0466621
0.9238281, -0.2861328, 0.1552734, -11.219512, -9.5121956, 0.8536586, -0.0419623
0.9233398, -0.2875977, 0.1582031, -11.5243902, -9.5731707, 1.0365853, -0.0439765
0.9155273, -0.2890625, 0.1582031, -12.0121956, -9.6951218, 1.2195122, -0.0486763
0.9213867, -0.2949219, 0.1567383, -12.8048782, -9.6341467, 1.6463414, -0.0493477
0.9194336, -0.2963867, 0.1582031, -13.1707315, -9.8170738, 1.7073171, -0.0459907
0.9233398, -0.3027344, 0.1616211, -13.6585369, -9.5121956, 1.8902439, -0.0473335
0.9213867, -0.3051758, 0.1616211, -14.0243902, -9.3902445, 1.8292683, -0.0469978
0.9233398, -0.3134766, 0.1660156, -14.1463413, -9.7560978, 1.8902439, -0.0459907
0.9267578, -0.3125, 0.168457, -14.0853662, -9.5731707, 2.3170731, -0.0459907
0.9267578, -0.3139648, 0.1728516, -14.0243902, -9.7560978, 2.0121951, -0.0459907
0.9257812, -0.3095703, 0.171875, -13.841464, -9.2682924, 1.8902439, -0.0459907
0.9262695, -0.3100586, 0.1704102, -13.7195129, -9.6341467, 1.7682927, -0.0513619
0.925293, -0.3129883, 0.1674805, -13.4146347, -9.4512196, 1.8292683, -0.0459907
0.9243164, -0.3154297, 0.1694336, -13.3536587, -9.4512196, 1.8902439, -0.0419623
0.9228516, -0.3105469, 0.1694336, -13.2317076, -9.5731707, 1.8902439, -0.0433051
0.9228516, -0.3081055, 0.1679688, -13.3536587, -9.6341467, 1.8902439, -0.0453193
0.921875, -0.3071289, 0.1699219, -13.3536587, -9.3292685, 1.8292683, -0.0386053
0.9189453, -0.3085938, 0.1708984, -13.3536587, -9.4512196, 1.7682927, -0.0453193
0.9194336, -0.3085938, 0.1708984, -13.2926836, -9.2073174, 2.0121951, -0.0473335
0.9194336, -0.3017578, 0.1699219, -13.2926836, -9.3292685, 1.9512196, -0.0439765
0.9208984, -0.3027344, 0.1665039, -13.1707315, -9.5121956, 1.8902439, -0.0459907
0.9194336, -0.3007812, 0.1669922, -13.1097565, -9.5121956, 1.8902439, -0.0453193
0.9160156, -0.296875, 0.1689453, -13.2926836, -9.3292685, 2.3170731, -0.0399481
0.9150391, -0.296875, 0.1689453, -13.4146347, -9.2682924, 2.195122, -0.042298
0.9174805, -0.3027344, 0.1669922, -13.7195129, -9.5731707, 2.5, -0.0473335
0.9194336, -0.3017578, 0.168457, -14.2073174, -9.3292685, 2.4390244, -0.0473335
0.9174805, -0.3007812, 0.1689453, -13.5975609, -9.3902445, 2.2560976, -0.0459907
0.9199219, -0.3017578, 0.171875, -13.5365858, -9.2073174, 2.1341465, -0.042298
0.9165039, -0.3037109, 0.1694336, -13.7195129, -9.4512196, 2.0121951, -0.0446479
0.9194336, -0.3022461, 0.1665039, -13.6585369, -9.6341467, 1.8902439, -0.0446479
0.9155273, -0.3051758, 0.1645508, -13.4146347, -9.5121956, 2.1341465, -0.049012
0.9189453, -0.3017578, 0.1655273, -13.4756098, -9.4512196, 1.8292683, -0.0459907
0.9160156, -0.3022461, 0.1704102, -13.4756098, -9.6951218, 2.0121951, -0.0446479
0.9160156, -0.3007812, 0.1665039, -13.5975609, -9.5731707, 1.9512196, -0.0419623
0.9140625, -0.3022461, 0.1669922, -13.780488, -9.5121956, 2.0121951, -0.0392767
0.9199219, -0.3041992, 0.1694336, -13.841464, -9.4512196, 1.7682927, -0.0365911
0.921875, -0.3007812, 0.1728516, -13.9024391, -9.4512196, 1.5853659, -0.0379339
0.9179688, -0.3037109, 0.1733398, -13.780488, -9.5121956, 1.5853659, -0.0365911
0.9213867, -0.3027344, 0.1728516, -13.780488, -9.3902445, 1.6463414, -0.0406195
0.9238281, -0.3022461, 0.1748047, -13.5975609, -9.4512196, 1.5853659, -0.0486763
0.921875, -0.3012695, 0.1728516, -13.6585369, -9.2682924, 1.2195122, -0.0412909
0.9179688, -0.3076172, 0.1738281, -13.5975609, -9.3902445, 1.3414634, -0.0342412
0.9189453, -0.3081055, 0.1767578, -13.6585369, -9.2682924, 1.1585366, -0.0345769
0.921875, -0.3115234, 0.175293, -13.780488, -9.1463413, 1.1585366, -0.0332341
0.9199219, -0.3105469, 0.1748047, -13.9024391, -9.0243902, 1.3414634, -0.0325628
0.9150391, -0.3110352, 0.1738281, -13.6585369, -8.9634151, 1.3414634, -0.0382696
0.9204102, -0.3110352, 0.175293, -13.5365858, -8.9634151, 1.0365853, -0.0426337
0.9169922, -0.3085938, 0.1796875, -13.5365858, -9.2073174, 0.9756098, -0.0439765
0.9155273, -0.309082, 0.1787109, -13.5365858, -8.9024391, 1.0365853, -0.0500191
0.9199219, -0.3125, 0.1772461, -13.841464, -9.2682924, 0.8536586, -0.0446479
0.9233398, -0.3105469, 0.1762695, -13.5365858, -9.2073174, 1.2195122, -0.0406195
0.9179688, -0.3139648, 0.1738281, -14.0853662, -9.0853662, 1.4634147, -0.0399481
0.9194336, -0.3144531, 0.1762695, -14.0853662, -9.0853662, 1.2195122, -0.0379339
0.9228516, -0.3188477, 0.1826172, -13.9024391, -8.9024391, 1.2195122, -0.0473335
0.9208984, -0.3149414, 0.1801758, -13.780488, -9.0243902, 1.0365853, -0.0584115
0.921875, -0.3178711, 0.1821289, -14.0853662, -9.0243902, 1.2804878, -0.0621042
0.9199219, -0.3222656, 0.1821289, -14.2073174, -8.9634151, 1.3414634, -0.0607614
0.9238281, -0.3222656, 0.1777344, -14.1463413, -9.0243902, 1.4634147, -0.0580758
0.9204102, -0.3242188, 0.1767578, -14.0853662, -8.841464, 1.4634147, -0.056733
0.9194336, -0.3261719, 0.1777344, -14.2682934, -8.9024391, 1.4634147, -0.0473335
0.9228516, -0.3251953, 0.1787109, -13.9634151, -8.841464, 1.6463414, -0.0466621
0.921875, -0.3242188, 0.1772461, -14.0853662, -8.5975609, 1.5853659, -0.0513619
0.918457, -0.3212891, 0.1748047, -14.2073174, -8.5365858, 1.7682927, -0.0520333
0.9199219, -0.3178711, 0.1733398, -14.0243902, -8.4146347, 1.8902439, -0.0520333
0.9208984, -0.3242188, 0.1777344, -14.1463413, -8.5365858, 2.195122, -0.0426337
0.9165039, -0.3212891, 0.1762695, -14.3902445, -8.5975609, 2.2560976, -0.0399481
0.9199219, -0.3266602, 0.1777344, -14.2682934, -8.2926826, 2.1341465, -0.0386053
0.9174805, -0.3295898, 0.1743164, -14.3902445, -8.2317076, 2.3170731, -0.0439765
0.9150391, -0.324707, 0.1733398, -14.0243902, -8.3536587, 2.3170731, -0.0446479
0.9106445, -0.3295898, 0.1801758, -13.9024391, -8.3536587, 2.4390244, -0.0459907
0.9111328, -0.3242188, 0.1787109, -13.841464, -8.4146347, 2.6219513, -0.0352483
0.9130859, -0.3232422, 0.1772461, -13.5365858, -8.4756098, 2.6219513, -0.0352483
0.9145508, -0.3251953, 0.1772461, -13.5365858, -8.5975609, 2.804878, -0.0365911
0.9130859, -0.3222656, 0.1757812, -13.6585369, -8.4756098, 2.7439024, -0.0365911
0.9150391, -0.3203125, 0.1728516, -13.6585369, -8.4146347, 2.804878, -0.0412909
0.9106445, -0.3227539, 0.171875, -13.6585369, -8.1097565, 2.8658538, -0.0359197
0.9111328, -0.3212891, 0.1713867, -13.5975609, -8.4756098, 3.1097562, -0.0359197
0.9145508, -0.3164062, 0.1723633, -13.2317076, -8.4146347, 2.804878, -0.0339055
0.9145508, -0.3178711, 0.168457, -13.1097565, -8.3536587, 2.7439024, -0.0339055
0.9160156, -0.3154297, 0.1723633, -13.5975609, -8.2926826, 3.1707318, -0.0298772
0.9145508, -0.3125, 0.1713867, -14.0243902, -8.1707315, 3.1097562, -0.0339055
0.9121094, -0.3105469, 0.1723633, -13.5975609, -8.2926826, 3.1097562, -0.0298772
0.9150391, -0.3105469, 0.171875, -13.7195129, -8.2317076, 3.2317073, -0.03122
0.9135742, -0.3139648, 0.1704102, -13.780488, -8.1707315, 3.1097562, -0.0298772
0.9140625, -0.3105469, 0.1708984, -13.5365858, -8.5365858, 3.1097562, -0.0302129
0.9135742, -0.3129883, 0.1713867, -13.4146347, -8.5975609, 3.1097562, -0.0328985
0.9101562, -0.3095703, 0.1748047, -13.7195129, -8.4756098, 3.1097562, -0.0339055
0.9116211, -0.3076172, 0.1708984, -13.9024391, -8.5975609, 2.9878049, -0.0345769
0.9160156, -0.3110352, 0.1679688, -13.780488, -8.6585369, 2.8658538, -0.0352483
0.9194336, -0.3134766, 0.1689453, -13.841464, -8.6585369, 3.1707318, -0.0439765
0.9179688, -0.3120117, 0.1699219, -13.9634151, -8.6585369, 2.8658538, -0.0399481
0.9233398, -0.3120117, 0.1723633, -14.1463413, -8.841464, 2.9878049, -0.0412909
0.9243164, -0.3129883, 0.1728516, -13.9024391, -8.841464, 2.9878049, -0.0379339
0.9248047, -0.3173828, 0.1723633, -13.841464, -8.5975609, 2.5609756, -0.0379339
0.9213867, -0.3144531, 0.1743164, -13.5975609, -8.841464, 2.5, -0.0439765
0.9194336, -0.3144531, 0.1748047, -13.4756098, -8.719512, 2.6219513, -0.0406195
0.9208984, -0.315918, 0.1743164, -13.4146347, -8.719512, 2.6829269, -0.0399481
0.9199219, -0.3173828, 0.1772461, -13.3536587, -8.6585369, 2.4390244, -0.0446479
0.9208984, -0.3193359, 0.1757812, -12.9878054, -8.4756098, 2.195122, -0.0449836
0.9213867, -0.3183594, 0.1704102, -13.1707315, -8.2926826, 2.5609756, -0.0446479
0.9208984, -0.3188477, 0.1708984, -12.9268293, -8.4146347, 2.5, -0.0419623
0.9189453, -0.3154297, 0.1679688, -13.0487804, -8.4756098, 2.4390244, -0.0459907
0.9238281, -0.3222656, 0.1723633, -13.2926836, -8.4146347, 2.5609756, -0.0406195
0.9233398, -0.3203125, 0.1738281, -13.1707315, -8.2317076, 2.6219513, -0.0439765
0.9204102, -0.3217773, 0.1757812, -13.4146347, -8.5975609, 2.804878, -0.0486763
0.9189453, -0.3222656, 0.1748047, -13.1707315, -8.4756098, 2.6219513, -0.0540475
0.921875, -0.3198242, 0.1704102, -13.3536587, -8.5365858, 2.9878049, -0.0493477
0.9174805, -0.3232422, 0.1723633, -13.4146347, -8.5365858, 2.804878, -0.0553902
0.9165039, -0.3208008, 0.175293, -13.4146347, -8.4756098, 2.9878049, -0.056733
0.9145508, -0.3227539, 0.1738281, -13.0487804, -8.5365858, 2.6219513, -0.0520333
0.921875, -0.3212891, 0.1762695, -13.1707315, -8.2926826, 2.9268293, -0.0449836
0.9160156, -0.3203125, 0.1733398, -12.9268293, -8.2926826, 3.1707318, -0.0392767
0.9145508, -0.3212891, 0.1777344, -12.8048782, -8.3536587, 3.2317073, -0.0459907
0.9160156, -0.3188477, 0.1777344, -12.8658543, -8.1097565, 3.2926829, -0.0486763
0.9155273, -0.3164062, 0.1728516, -12.8658543, -8.2317076, 3.2317073, -0.0513619
0.9150391, -0.3198242, 0.1713867, -12.6829271, -8.1707315, 3.4146342, -0.0406195
0.909668, -0.3193359, 0.1704102, -12.8658543, -8.2926826, 3.4756098, -0.0419623
0.9101562, -0.3134766, 0.171875, -12.6829271, -8.1097565, 3.9634147, -0.0392767
0.9121094, -0.3105469, 0.1694336, -12.6219511, -8.1097565, 3.5365853, -0.0392767
0.9155273, -0.315918, 0.1728516, -12.3170738, -8.4146347, 3.8414636, -0.0419623
0.9130859, -0.3183594, 0.171875, -12.3170738, -8.4756098, 3.8414636, -0.0433051
0.9116211, -0.3144531, 0.1660156, -12.3780489, -8.5365858, 3.7804878, -0.0345769
0.9179688, -0.3125, 0.1679688, -12.4390249, -8.1707315, 3.8414636, -0.0369268
0.9155273, -0.3139648, 0.1704102, -12.5, -8.5365858, 3.9634147, -0.0409552
0.9165039, -0.3115234, 0.171875, -12.0731707, -8.6585369, 3.4756098, -0.0379339
0.9160156, -0.3105469, 0.1694336, -12.1951218, -8.5365858, 3.4756098, -0.0359197
0.9130859, -0.3115234, 0.1704102, -11.9512196, -8.6585369, 3.4756098, -0.0433051
0.9135742, -0.3115234, 0.1704102, -11.8292685, -8.4146347, 3.2926829, -0.0459907
0.9116211, -0.3081055, 0.1699219, -11.7682934, -8.719512, 3.4146342, -0.0466621
0.9130859, -0.3081055, 0.1733398, -11.5243902, -8.719512, 3.4146342, -0.0399481
0.9145508, -0.3085938, 0.1738281, -11.5243902, -8.780488, 3.5365853, -0.0419623
0.9155273, -0.3056641, 0.171875, -11.280488, -8.9024391, 3.4146342, -0.0463264
0.9140625, -0.3061523, 0.1748047, -10.9756098, -8.9024391, 3.2317073, -0.0392767
0.9121094, -0.3051758, 0.1772461, -11.0975609, -8.9634151, 2.9268293, -0.0459907
0.9169922, -0.309082, 0.1743164, -11.0365858, -8.9634151, 2.9878049, -0.049012
0.9155273, -0.309082, 0.1762695, -11.0365858, -8.9634151, 2.6829269, -0.056733
0.9145508, -0.3071289, 0.1743164, -11.0975609, -8.9634151, 2.8658538, -0.0493477
0.9160156, -0.3066406, 0.1772461, -10.9146347, -9.0243902, 2.6219513, -0.0466621
0.9169922, -0.3066406, 0.1796875, -11.4024391, -8.841464, 2.7439024, -0.0433051
0.9174805, -0.3115234, 0.1787109, -11.219512, -8.9634151, 2.5609756, -0.0433051
0.918457, -0.3134766, 0.1816406, -11.1585369, -9.1463413, 2.5609756, -0.0480049
0.9194336, -0.3129883, 0.1791992, -11.0365858, -8.9634151, 2.0121951, -0.0513619
0.921875, -0.3134766, 0.1772461, -11.219512, -8.9024391, 1.8902439, -0.0500191
0.9223633, -0.3139648, 0.1782227, -11.0365858, -9.2073174, 2.1341465, -0.0513619
0.9199219, -0.3110352, 0.1762695, -11.4024391, -9.2682924, 1.8902439, -0.0527047
0.9160156, -0.3139648, 0.175293, -11.280488, -9.2682924, 1.7073171, -0.0473335
0.918457, -0.3125, 0.1743164, -11.4634151, -9.2682924, 1.8292683, -0.042298
0.918457, -0.3110352, 0.1738281, -11.5853662, -9.3902445, 1.5853659, -0.0365911
0.918457, -0.3173828, 0.171875, -11.7073174, -9.6341467, 1.6463414, -0.0325628
0.918457, -0.3188477, 0.171875, -11.7682934, -9.5731707, 1.7682927, -0.0318914
0.918457, -0.3168945, 0.1733398, -11.9512196, -9.5731707, 1.9512196, -0.0352483
0.9223633, -0.3168945, 0.1762695, -11.9512196, -9.2682924, 2.0731707, -0.0379339
0.9204102, -0.3212891, 0.1733398, -12.0121956, -9.3292685, 1.8902439, -0.0369268
0.921875, -0.3203125, 0.1748047, -11.9512196, -9.2682924, 2.0731707, -0.0406195
0.9243164, -0.3217773, 0.1743164, -11.9512196, -9.2682924, 2.195122, -0.0419623
0.9208984, -0.3217773, 0.1757812, -11.7073174, -9.2682924, 1.7682927, -0.0486763
0.9199219, -0.3198242, 0.1723633, -11.5853662, -9.2073174, 2.0121951, -0.0459907
0.9189453, -0.3188477, 0.1748047, -11.4634151, -9.1463413, 2.0731707, -0.0406195
0.9165039, -0.3193359, 0.1728516, -11.280488, -9.1463413, 2.0121951, -0.0365911
0.918457, -0.3178711, 0.1708984, -11.6463413, -8.9634151, 2.0731707, -0.0379339
0.9174805, -0.3193359, 0.1679688, -11.7073174, -9.1463413, 1.9512196, -0.0466621
0.9155273, -0.3237305, 0.1694336, -12.0121956, -9.0243902, 2.195122, -0.0386053
0.9169922, -0.3286133, 0.171875, -12.0731707, -9.1463413, 2.195122, -0.0325628
0.9189453, -0.3251953, 0.1757812, -12.0121956, -9.3292685, 2.4390244, -0.0392767
0.9208984, -0.3271484, 0.1738281, -11.9512196, -9.4512196, 2.2560976, -0.0392767
0.9204102, -0.3256836, 0.1748047, -11.8292685, -9.4512196, 2.1341465, -0.0426337
0.9208984, -0.3261719, 0.1704102, -11.0975609, -9.6341467, 1.9512196, -0.0480049
0.9194336, -0.3261719, 0.1689453, -10.8536587, -9.5121956, 1.9512196, -0.0473335
0.9213867, -0.3203125, 0.1704102, -10.6707315, -9.6951218, 2.0731707, -0.0446479
0.9233398, -0.3203125, 0.1708984, -10.5487804, -9.8170738, 1.8292683, -0.0406195
0.9199219, -0.3173828, 0.1694336, -10.4268293, -9.5731707, 1.8292683, -0.0426337
0.9165039, -0.3193359, 0.1669922, -10.4268293, -9.5731707, 1.9512196, -0.0459907
0.9160156, -0.3164062, 0.1601562, -10.9756098, -10.2439022, 2.0731707, -0.0446479
0.9174805, -0.3144531, 0.1567383, -11.341464, -10.4878054, 2.1341465, -0.0419623
0.9223633, -0.3125, 0.1586914, -11.8902445, -10.060976, 2.4390244, -0.0466621
0.9208984, -0.3095703, 0.1616211, -11.7682934, -10, 2.195122, -0.0486763
0.9174805, -0.3134766, 0.1621094, -11.219512, -9.2682924, 2.0121951, -0.0486763
0.9101562, -0.3193359, 0.1621094, -10.4878054, -8.6585369, 2.6219513, -0.0500191
0.9086914, -0.3242188, 0.1606445, -10.5487804, -8.719512, 2.5, -0.0520333
0.9101562, -0.3300781, 0.1572266, -10.9146347, -9.5121956, 3.3536587, -0.0533761
0.9130859, -0.331543, 0.1591797, -10.9756098, -9.8170738, 3.3536587, -0.0513619
0.9223633, -0.3393555, 0.1679688, -11.219512, -10.6097565, 3.4756098, -0.0412909
0.9291992, -0.3388672, 0.1723633, -11.0365858, -10.6097565, 3.4756098, -0.0419623
0.9316406, -0.3364258, 0.1733398, -10.3658543, -10.5487804, 2.804878, -0.0446479
0.9326172, -0.3320312, 0.175293, -9.8170738, -10.6097565, 2.3780489, -0.0433051
0.9282227, -0.3256836, 0.1762695, -8.780488, -10.5487804, 1.2195122, -0.0406195
0.9267578, -0.3168945, 0.1738281, -8.2317076, -10.7317076, 0.9756098, -0.0493477
0.925293, -0.3139648, 0.1689453, -7.9268293, -10.6097565, 0.7317073, -0.0506905
0.9243164, -0.309082, 0.1635742, -8.6585369, -10.8536587, 1.4634147, -0.0506905
0.9257812, -0.3095703, 0.1606445, -9.4512196, -10.3048782, 2.0121951, -0.0513619
0.9238281, -0.3076172, 0.1650391, -10.4268293, -10.2439022, 2.6829269, -0.0520333
0.9233398, -0.3081055, 0.1660156, -10.7926836, -10.3048782, 2.804878, -0.0500191
0.9291992, -0.3125, 0.1767578, -11.280488, -10.3048782, 3.1707318, -0.052369
0.9326172, -0.3134766, 0.1767578, -11.219512, -10.4878054, 2.804878, -0.0513619
0.934082, -0.3178711, 0.1767578, -11.219512, -10.5487804, 2.3780489, -0.0500191
0.9350586, -0.3178711, 0.1772461, -11.341464, -10.5487804, 2.2560976, -0.0486763
0.934082, -0.3125, 0.1723633, -10.8536587, -10.3048782, 1.7682927, -0.0480049
0.9360352, -0.3154297, 0.1723633, -10.7926836, -10.3658543, 1.7073171, -0.0493477
0.9306641, -0.3178711, 0.1708984, -11.219512, -9.9390249, 1.7682927, -0.0486763
0.9306641, -0.3217773, 0.1665039, -11.5243902, -10.060976, 2.3170731, -0.0446479
0.9345703, -0.3193359, 0.1679688, -11.7682934, -10, 2.195122, -0.0399481
0.934082, -0.3134766, 0.168457, -12.1951218, -9.5121956, 2.6829269, -0.0392767
0.9365234, -0.315918, 0.1713867, -12.2560978, -9.6341467, 2.804878, -0.0463264
0.9296875, -0.3120117, 0.1728516, -12.6829271, -9.6341467, 2.7439024, -0.0379339
0.9331055, -0.3188477, 0.1733398, -12.2560978, -9.5121956, 2.8658538, -0.042298
0.9296875, -0.3232422, 0.1733398, -12.7439032, -9.3902445, 2.7439024, -0.0459907
0.934082, -0.3173828, 0.1699219, -12.560976, -9.3292685, 2.8658538, -0.0459907
0.9291992, -0.315918, 0.1679688, -12.7439032, -9.2682924, 2.9268293, -0.0412909
0.9296875, -0.3164062, 0.1694336, -12.9878054, -9.2682924, 3.1707318, -0.0379339
0.9257812, -0.3164062, 0.1708984, -13.1097565, -9.2073174, 3.5365853, -0.035584
0.9262695, -0.3193359, 0.1738281, -13.3536587, -9.0243902, 3.9634147, -0.0386053
0.9262695, -0.3227539, 0.1762695, -13.1707315, -8.780488, 4.3292685, -0.0392767
0.9262695, -0.3198242, 0.1806641, -13.2926836, -8.841464, 4.8170733, -0.0419623
0.9204102, -0.3237305, 0.1791992, -13.3536587, -8.780488, 5, -0.0459907
0.9272461, -0.324707, 0.1875, -13.0487804, -8.780488, 5.3048782, -0.0379339
0.9267578, -0.3232422, 0.1889648, -12.7439032, -8.5365858, 5.3048782, -0.0325628
0.925293, -0.3212891, 0.1845703, -12.3780489, -8.2926826, 5.4268293, -0.0372625
0.9199219, -0.324707, 0.1811523, -12.1951218, -8.2317076, 5.4878049, -0.0406195
0.9223633, -0.3203125, 0.1801758, -11.6463413, -8.3536587, 5.670732, -0.042298
0.9199219, -0.3203125, 0.1762695, -11.5853662, -8.1097565, 5.670732, -0.042298
0.9199219, -0.3173828, 0.1787109, -11.341464, -8.2926826, 5.9146342, -0.0480049
0.9111328, -0.309082, 0.1738281, -11.280488, -7.9268293, 5.9146342, -0.0446479
0.9101562, -0.3066406, 0.175293, -11.4024391, -8.0487804, 6.2195125, -0.0412909
0.9121094, -0.3027344, 0.1728516, -11.5853662, -8.1097565, 6.5243902, -0.0379339
0.909668, -0.3032227, 0.168457, -11.7682934, -8.0487804, 6.7073174, -0.0365911
0.9121094, -0.3061523, 0.1723633, -12.0731707, -8.1707315, 6.9512196, -0.0459907
0.9140625, -0.3012695, 0.1689453, -11.9512196, -8.4146347, 7.1341467, -0.0419623
0.9086914, -0.2998047, 0.1655273, -12.0731707, -8.4756098, 7.1341467, -0.0426337
0.9116211, -0.3012695, 0.1630859, -12.2560978, -8.6585369, 7.3780489, -0.0412909
0.9194336, -0.2983398, 0.1616211, -12.9268293, -8.5365858, 7.3780489, -0.0406195
0.9228516, -0.296875, 0.1591797, -13.1707315, -8.6585369, 7.6219516, -0.0513619
0.9287109, -0.2949219, 0.1655273, -13.5975609, -8.3536587, 7.7439027, -0.0553902
0.9277344, -0.2924805, 0.1699219, -14.3292685, -8.2317076, 7.3780489, -0.0459907
0.9311523, -0.2880859, 0.1733398, -14.3902445, -8.2317076, 7.5609756, -0.0419623
0.934082, -0.2866211, 0.1733398, -14.8170738, -8.1707315, 7.7439027, -0.0406195
0.9360352, -0.2851562, 0.1777344, -14.9390249, -8.1707315, 7.8658538, -0.0439765
0.9350586, -0.2866211, 0.1806641, -15.1829271, -7.8658538, 7.8658538, -0.0476692
0.9350586, -0.2861328, 0.184082, -15.3048782, -7.6219516, 7.6219516, -0.0433051
0.9360352, -0.2817383, 0.1870117, -15.8536587, -7.6219516, 7.3780489, -0.0433051
0.9360352, -0.2807617, 0.1914062, -15.8536587, -7.5609756, 7.0731707, -0.0406195
0.9375, -0.2788086, 0.190918, -15.9146347, -7.0731707, 6.7073174, -0.0406195
0.9326172, -0.2729492, 0.1894531, -15.9756098, -6.6463418, 6.5853658, -0.0386053
0.9321289, -0.265625, 0.1962891, -16.2195129, -6.7073174, 6.3414636, -0.0305486
0.9301758, -0.269043, 0.1943359, -17.0731716, -6.5243902, 6.7073174, -0.0339055
0.9291992, -0.2685547, 0.1948242, -17.6829281, -6.4634147, 6.9512196, -0.0339055
0.9277344, -0.2680664, 0.199707, -18.0487804, -6.1585369, 6.9512196, -0.0365911
0.9291992, -0.269043, 0.1958008, -18.8414631, -6.0975609, 7.0121951, -0.03122
0.9228516, -0.2758789, 0.1923828, -19.939024, -5.8536587, 7.1341467, -0.0281987
0.921875, -0.2773438, 0.1928711, -20.3048782, -5.9146342, 7.0121951, -0.0325628
0.9233398, -0.2802734, 0.190918, -21.2195129, -5.8536587, 6.890244, -0.0305486
0.9223633, -0.28125, 0.1904297, -21.5853672, -5.7317076, 6.6463418, -0.0332341
0.9213867, -0.2802734, 0.1860352, -22.2560978, -5.7926831, 6.2195125, -0.0352483
0.9189453, -0.28125, 0.1850586, -22.3780499, -6.0975609, 6.0365853, -0.03122
0.9208984, -0.2788086, 0.1845703, -23.4756107, -5.9756098, 5.9146342, -0.0386053
0.9213867, -0.2709961, 0.1782227, -24.2073174, -6.3414636, 5.7317076, -0.0392767
0.9248047, -0.2719727, 0.1762695, -24.6341476, -6.5243902, 5.3658538, -0.0406195
0.9291992, -0.2700195, 0.1704102, -25.4878063, -6.3414636, 5.3658538, -0.0466621
0.9316406, -0.2661133, 0.1689453, -25.8536587, -6.5243902, 5.3048782, -0.0365911
0.9321289, -0.262207, 0.1611328, -27.1341476, -6.5853658, 5.1219511, -0.0379339
0.9360352, -0.2661133, 0.1645508, -27.8658543, -6.4024391, 5.0609756, -0.0412909
0.9399414, -0.2685547, 0.1621094, -28.9634151, -6.2195125, 4.5121951, -0.0446479
0.9453125, -0.2680664, 0.1616211, -29.5731716, -6.4024391, 4.390244, -0.0446479
0.9487305, -0.2709961, 0.1611328, -30.2439022, -6.3414636, 4.4512196, -0.0426337
0.9526367, -0.2744141, 0.1630859, -30.7317085, -6.4024391, 4.390244, -0.0446479
0.953125, -0.2802734, 0.1669922, -31.2195129, -6.5243902, 3.9634147, -0.0473335
0.9570312, -0.2832031, 0.1694336, -31.0975609, -6.4024391, 3.3536587, -0.0433051
0.9619141, -0.2895508, 0.1704102, -31.0365868, -6.2195125, 3.2317073, -0.0433051
0.9614258, -0.2866211, 0.1777344, -30.6097565, -6.0975609, 2.7439024, -0.0392767
0.9619141, -0.2915039, 0.184082, -30.2439022, -6.0975609, 2.4390244, -0.0426337
0.9682617, -0.2983398, 0.1948242, -29.2073174, -6.5243902, 2.1341465, -0.0486763
0.9667969, -0.2973633, 0.1967773, -28.1707325, -6.4024391, 1.5853659, -0.0513619
0.9697266, -0.3007812, 0.2011719, -26.8902454, -5.9146342, 1.2804878, -0.0493477
0.9707031, -0.3041992, 0.2055664, -26.1585369, -6.4024391, 0.7317073, -0.0480049
0.9707031, -0.309082, 0.2128906, -24.5731716, -6.4024391, -0.1219512, -0.0473335
0.9672852, -0.3134766, 0.2158203, -23.4756107, -6.0975609, -0.3658537, -0.0453193
0.9599609, -0.3105469, 0.2197266, -22.0731716, -6.7073174, -1.402439, -0.0473335
0.9609375, -0.3129883, 0.2250977, -20.7926826, -6.7073174, -1.8902439, -0.0466621
0.9594727, -0.3105469, 0.2294922, -19.8780499, -6.7073174, -2.5609756, -0.0453193
0.9555664, -0.3076172, 0.2314453, -18.5365849, -7.0731707, -3.2317073, -0.0500191
0.9526367, -0.3085938, 0.2290039, -17.9878044, -7.2560978, -3.1707318, -0.0493477
0.9448242, -0.3081055, 0.2285156, -16.6463413, -7.3170733, -4.3292685, -0.0513619
0.9462891, -0.3056641, 0.230957, -15.8536587, -7.8048782, -4.6341462, -0.0466621
0.9389648, -0.3022461, 0.2333984, -15.3048782, -8.1097565, -5.1829271, -0.0365911
0.9326172, -0.3022461, 0.2353516, -14.9390249, -8.1707315, -5.4268293, -0.0419623
0.9331055, -0.2958984, 0.2368164, -14.3292685, -8.780488, -5.7317076, -0.0446479
0.9257812, -0.2944336, 0.2353516, -13.7195129, -9.1463413, -5.609756, -0.0386053
0.9243164, -0.2915039, 0.234375, -13.2926836, -9.2073174, -6.2195125, -0.0446479
0.9160156, -0.2895508, 0.2363281, -12.9268293, -9.3902445, -6.5853658, -0.0493477
0.9106445, -0.2900391, 0.2368164, -13.2926836, -9.3292685, -6.890244, -0.0506905
0.9086914, -0.2807617, 0.2348633, -13.1707315, -9.6341467, -7.1951222, -0.0513619
0.9033203, -0.2792969, 0.2363281, -13.780488, -10, -7.3780489, -0.0433051
0.8955078, -0.2675781, 0.2363281, -14.4512196, -10, -7.8658538, -0.0412909
0.8945312, -0.2680664, 0.2436523, -14.8780489, -10, -7.6219516, -0.0480049
0.8911133, -0.2553711, 0.2397461, -15.4268293, -9.9390249, -7.6219516, -0.0486763
0.8901367, -0.2553711, 0.2392578, -15.8536587, -9.9390249, -7.5, -0.0419623
0.8886719, -0.2539062, 0.2382812, -17.0121956, -10.4268293, -7.5, -0.0379339
0.8876953, -0.2553711, 0.2299805, -17.3780499, -10.6097565, -7.3780489, -0.0406195
0.8916016, -0.253418, 0.2299805, -18.8414631, -10.5487804, -7.3170733, -0.0436408
0.8989258, -0.2524414, 0.2226562, -20.6097565, -10.6707315, -7.1341467, -0.0453193
0.9023438, -0.2524414, 0.2177734, -21.280489, -10.3048782, -7.2560978, -0.0406195
0.9086914, -0.2558594, 0.2124023, -22.8658543, -10.3658543, -7.0731707, -0.0342412
0.9111328, -0.2573242, 0.2109375, -23.4146347, -10.1219511, -7.0731707, -0.0352483
0.918457, -0.2641602, 0.2109375, -25.2439022, -10.1219511, -7.1951222, -0.0372625
0.921875, -0.2651367, 0.206543, -25.6097565, -10.3048782, -7.3780489, -0.0439765
0.9223633, -0.2695312, 0.206543, -26.4634151, -9.5731707, -7.3780489, -0.0433051
0.9238281, -0.2724609, 0.2089844, -27.0121956, -9.2682924, -7.6219516, -0.0365911
0.9291992, -0.2773438, 0.2084961, -27.5, -8.780488, -7.8658538, -0.0339055
0.9267578, -0.2792969, 0.2041016, -28.1707325, -8.3536587, -8.3536587, -0.0406195
0.9296875, -0.2788086, 0.2070312, -28.3536587, -8.3536587, -8.5365858, -0.0426337
0.9243164, -0.2817383, 0.2055664, -28.7195129, -7.8658538, -8.4146347, -0.0419623
0.9267578, -0.284668, 0.2080078, -28.5975609, -7.9268293, -8.841464, -0.0372625
0.9248047, -0.2880859, 0.215332, -28.4146347, -7.3780489, -8.9634151, -0.0339055
0.9199219, -0.2871094, 0.2148438, -28.2926826, -7.5, -9.2073174, -0.0392767
0.9155273, -0.293457, 0.2172852, -27.8658543, -6.9512196, -9.3902445, -0.0419623
0.9155273, -0.2910156, 0.21875, -27.5, -6.9512196, -9.4512196, -0.0439765
0.9033203, -0.2900391, 0.222168, -26.8292694, -6.5853658, -10.060976, -0.0433051
0.8979492, -0.2910156, 0.21875, -26.4024391, -6.7073174, -10.1219511, -0.0406195
0.8969727, -0.2910156, 0.21875, -26.0975609, -6.7073174, -10.3048782, -0.0459907
0.8837891, -0.2929688, 0.2172852, -25.3658543, -6.7682929, -10.2439022, -0.0439765
0.8803711, -0.2866211, 0.215332, -25.060976, -6.7682929, -10.3658543, -0.0433051
0.8710938, -0.2895508, 0.2099609, -25, -6.890244, -10.2439022, -0.0459907
0.8652344, -0.2836914, 0.2094727, -24.8780499, -7.0731707, -10.1829271, -0.0439765
0.8554688, -0.2827148, 0.2055664, -24.7560978, -7.5, -10.1219511, -0.0513619
0.8530273, -0.28125, 0.2011719, -24.8170738, -7.7439027, -10.060976, -0.052369
0.8442383, -0.2807617, 0.1943359, -24.8170738, -8.1097565, -9.8780489, -0.0513619
0.8442383, -0.2773438, 0.1879883, -24.9390259, -8.4756098, -9.8170738, -0.0513619
0.8369141, -0.2749023, 0.1918945, -24.8780499, -8.841464, -9.5121956, -0.0459907
0.8354492, -0.2797852, 0.1914062, -24.8170738, -9.2682924, -9.5731707, -0.0453193
0.8378906, -0.2783203, 0.1875, -25, -9.8780489, -9.3902445, -0.0412909
0.8408203, -0.2792969, 0.1845703, -25.3658543, -10.7926836, -9.2682924, -0.0412909
0.8422852, -0.2797852, 0.1870117, -25.060976, -10.9756098, -9.3902445, -0.0386053
0.8520508, -0.2856445, 0.1933594, -25.4878063, -11.5853662, -9.4512196, -0.0352483
0.8510742, -0.2827148, 0.1943359, -25.4878063, -11.8902445, -9.2682924, -0.0325628
0.859375, -0.2875977, 0.1982422, -25.3658543, -12.4390249, -9.5731707, -0.0365911
0.8618164, -0.2827148, 0.1987305, -25.2439022, -12.6219511, -9.5731707, -0.0406195
0.8662109, -0.2851562, 0.1992188, -24.6951218, -13.1707315, -10.1219511, -0.0339055
0.8666992, -0.2871094, 0.1992188, -24.5121956, -13.2926836, -10.3658543, -0.0315557
0.8720703, -0.2924805, 0.2016602, -24.1463413, -13.780488, -10.8536587, -0.0412909
0.871582, -0.2924805, 0.2016602, -24.2073174, -13.841464, -11.1585369, -0.0386053
0.8774414, -0.2900391, 0.1948242, -23.5975609, -14.0243902, -11.341464, -0.0399481
0.8803711, -0.2841797, 0.1982422, -22.9268303, -14.3292685, -11.7073174, -0.0399481
0.8789062, -0.2875977, 0.199707, -22.9878063, -14.5121956, -11.8902445, -0.0345769
0.8789062, -0.2871094, 0.1953125, -22.6829281, -14.7560978, -12.0731707, -0.0392767
0.8798828, -0.2822266, 0.1918945, -22.8658543, -14.8170738, -12.1951218, -0.0449836
0.8823242, -0.2822266, 0.1914062, -23.2926826, -14.9390249, -12.5, -0.0453193
0.8833008, -0.2807617, 0.1953125, -23.2317085, -14.9390249, -12.3780489, -0.0446479
0.8808594, -0.2768555, 0.1962891, -23.6585369, -14.8780489, -12.3170738, -0.0473335
0.8818359, -0.2783203, 0.2006836, -23.780489, -15.060976, -12.6219511, -0.0459907
0.8823242, -0.2788086, 0.2036133, -23.8414631, -15.3048782, -12.5, -0.0459907
0.8813477, -0.2753906, 0.2050781, -23.780489, -15.3048782, -12.4390249, -0.0446479
0.8798828, -0.2753906, 0.199707, -23.780489, -15.3048782, -12.8048782, -0.0446479
0.8833008, -0.2758789, 0.1953125, -24.4512196, -15.1829271, -12.6219511, -0.0473335
0.8828125, -0.2768555, 0.1923828, -24.5731716, -15.4878054, -12.9878054, -0.0419623
0.8867188, -0.2758789, 0.1865234, -25.1219521, -15.3658543, -13.0487804, -0.0419623
0.8857422, -0.2768555, 0.1831055, -25.6097565, -15.5487804, -13.2926836, -0.0379339
0.8881836, -0.2753906, 0.1884766, -26.4024391, -15.3658543, -12.9878054, -0.0419623
0.8852539, -0.2744141, 0.1884766, -27.0121956, -15.3048782, -12.9878054, -0.0459907
0.8935547, -0.2773438, 0.1821289, -27.8048782, -15.060976, -13.2317076, -0.0486763
0.8950195, -0.2783203, 0.1806641, -28.3536587, -15.3658543, -13.2317076, -0.0433051
0.8925781, -0.2841797, 0.1787109, -28.5975609, -15, -13.2926836, -0.0396124
0.8935547, -0.2851562, 0.1791992, -28.6585369, -15.060976, -13.4756098, -0.0409552
0.8955078, -0.2900391, 0.1772461, -28.9634151, -14.7560978, -13.6585369, -0.0392767
0.8969727, -0.2924805, 0.1772461, -29.5731716, -14.3902445, -13.4756098, -0.0409552
0.8925781, -0.293457, 0.1757812, -29.5731716, -14.3292685, -13.5365858, -0.0359197
0.8896484, -0.2954102, 0.175293, -30.1829281, -14.3292685, -13.5365858, -0.0372625
0.8886719, -0.3027344, 0.1791992, -30, -14.3902445, -13.4146347, -0.0352483
0.8803711, -0.3012695, 0.1811523, -29.9390259, -14.3292685, -13.780488, -0.0365911
0.878418, -0.3056641, 0.1791992, -29.5731716, -14.3292685, -13.6585369, -0.0433051
0.8725586, -0.3100586, 0.1757812, -29.0853672, -14.3902445, -13.6585369, -0.0392767
0.8696289, -0.3085938, 0.1728516, -28.780489, -14.6341467, -13.5365858, -0.0459907
0.8666992, -0.3100586, 0.1645508, -27.6219521, -15.060976, -13.780488, -0.0486763
0.8657227, -0.3129883, 0.1635742, -27.5, -15.3048782, -13.6585369, -0.0473335
0.8623047, -0.3125, 0.1582031, -27.1341476, -15.7317076, -13.5975609, -0.0473335
0.855957, -0.3139648, 0.1586914, -25.7926826, -15.9146347, -13.4146347, -0.0466621
0.8588867, -0.3183594, 0.1577148, -25.5487804, -16.0975609, -13.4756098, -0.0520333
0.8583984, -0.3168945, 0.1606445, -24.6341476, -16.4024391, -12.9268293, -0.0520333
0.8603516, -0.315918, 0.15625, -24.0853672, -16.4024391, -12.8048782, -0.0520333
0.8618164, -0.3154297, 0.1640625, -23.2926826, -16.7682934, -12.8048782, -0.0449836
0.8588867, -0.3129883, 0.1606445, -22.6829281, -16.8902435, -12.8048782, -0.0473335
0.8554688, -0.3134766, 0.1586914, -21.8902435, -17.1951218, -12.2560978, -0.0459907
0.8500977, -0.3120117, 0.1611328, -21.5853672, -17.2560978, -12.2560978, -0.0473335
0.8491211, -0.3144531, 0.1665039, -20.7926826, -17.6829281, -11.8902445, -0.0433051
0.8417969, -0.3115234, 0.1640625, -20.6097565, -18.1097565, -11.5243902, -0.0446479
0.8378906, -0.3081055, 0.1694336, -20.3658543, -18.4756107, -11.280488, -0.0426337
0.8364258, -0.3041992, 0.1728516, -19.4512196, -18.9634151, -10.8536587, -0.0386053
0.8320312, -0.3022461, 0.1743164, -19.2682934, -19.3292694, -10.4268293, -0.0412909
0.824707, -0.296875, 0.1694336, -18.4756107, -19.6341476, -10.060976, -0.0439765
0.8261719, -0.2983398, 0.1640625, -18.1097565, -19.939024, -9.9390249, -0.0392767
0.8183594, -0.2905273, 0.1557617, -17.8048782, -20.5487804, -9.3902445, -0.0412909
0.8149414, -0.2890625, 0.1479492, -18.1097565, -20.7926826, -9.3902445, -0.0419623
0.8110352, -0.2817383, 0.1386719, -18.5975609, -21.0975609, -8.6585369, -0.0412909
0.8095703, -0.2802734, 0.1362305, -19.3292694, -21.3414631, -8.2926826, -0.0433051
0.8085938, -0.2695312, 0.1303711, -19.939024, -21.5243912, -7.8048782, -0.0459907
0.8041992, -0.2695312, 0.1293945, -20.3048782, -21.5243912, -7.3780489, -0.0493477
0.8041992, -0.2729492, 0.1240234, -20.9146347, -22.1341476, -6.5853658, -0.0486763
0.8017578, -0.2719727, 0.1220703, -21.6463413, -22.439024, -6.0975609, -0.0473335
0.8012695, -0.2705078, 0.1181641, -22.1341476, -22.560976, -5.9756098, -0.0459907
0.7958984, -0.2714844, 0.1083984, -23.0487804, -23.3536587, -5.1829271, -0.0433051
0.7924805, -0.2739258, 0.1040039, -23.4756107, -23.1097565, -4.8780489, -0.0392767
0.7871094, -0.2758789, 0.1049805, -24.2682934, -23.2926826, -4.5121951, -0.0419623
0.7866211, -0.2749023, 0.1030273, -24.6951218, -23.5365868, -4.2682929, -0.0466621
0.7788086, -0.2822266, 0.1020508, -25.2439022, -23.2926826, -3.7804878, -0.049012
0.7773438, -0.2792969, 0.1005859, -25.7926826, -23.5365868, -3.6585367, -0.0500191
0.7631836, -0.2792969, 0.09375, -26.2195129, -23.4146347, -3.2926829, -0.0520333
0.7597656, -0.2797852, 0.0878906, -26.2195129, -23.780489, -3.2317073, -0.0433051
0.753418, -0.2802734, 0.0834961, -26.1585369, -24.3292694, -2.6829269, -0.0406195
0.7407227, -0.2792969, 0.0771484, -26.1585369, -24.8780499, -2.6829269, -0.0433051
0.7363281, -0.2802734, 0.0732422, -26.4024391, -25.2439022, -2.195122, -0.0372625
0.7338867, -0.2783203, 0.0717773, -26.7073174, -25.5487804, -1.4634147, -0.0406195
0.7294922, -0.2792969, 0.0678711, -26.8902454, -26.1585369, -1.1585366, -0.0433051
0.7211914, -0.2758789, 0.0625, -27.0121956, -26.5243912, -0.3658537, -0.0446479
0.7236328, -0.2773438, 0.059082, -26.8902454, -27.0121956, -0.1219512, -0.0493477
0.722168, -0.2729492, 0.0522461, -27.0121956, -27.9268303, 0.4878049, -0.0466621
0.7202148, -0.2744141, 0.0493164, -27.3170738, -28.6585369, 0.7926829, -0.0486763
0.7246094, -0.2739258, 0.0483398, -27.3170738, -29.8780499, 1.402439, -0.0433051
0.7314453, -0.2763672, 0.0424805, -27.2560978, -30.3658543, 1.8292683, -0.0446479
0.7333984, -0.2807617, 0.0444336, -27.0121956, -31.4634151, 2.195122, -0.0446479
0.7421875, -0.2841797, 0.0498047, -27.1341476, -32.1951218, 2.5609756, -0.0433051
0.7436523, -0.28125, 0.0546875, -26.9512196, -32.8658562, 2.7439024, -0.0459907
0.7509766, -0.2890625, 0.0629883, -25.7317085, -33.9024391, 2.9878049, -0.0446479
0.7568359, -0.2875977, 0.0668945, -25.4878063, -34.3292694, 2.9268293, -0.0446479
0.7670898, -0.2915039, 0.0742188, -23.9634151, -35.3048782, 3.0487804, -0.0500191
0.7695312, -0.2885742, 0.0737305, -22.9268303, -35.9756088, 2.7439024, -0.0453193
0.777832, -0.293457, 0.0742188, -20.9756107, -36.7682953, 2.9268293, -0.0419623
0.7851562, -0.2944336, 0.0688477, -19.6951218, -36.7682953, 2.3780489, -0.0486763
0.7866211, -0.2954102, 0.0693359, -17.8048782, -37.5, 1.8902439, -0.0453193
0.7890625, -0.2895508, 0.0644531, -17.3780499, -37.8658562, 1.7682927, -0.0379339
0.7919922, -0.2875977, 0.0605469, -15.7926836, -38.5365868, 1.402439, -0.0352483
0.7973633, -0.28125, 0.0600586, -14.5731707, -38.9634171, 1.2195122, -0.0345769
0.793457, -0.2797852, 0.0610352, -14.0243902, -39.0243912, 0.7926829, -0.0382696
0.7944336, -0.2792969, 0.0561523, -12.7439032, -39.5121956, 0.3048781, -0.0449836
0.7958984, -0.2724609, 0.0546875, -12.0731707, -39.7560997, -0.1219512, -0.0480049
0.7875977, -0.2695312, 0.0473633, -11.4024391, -40.7317085, -0.4878049, -0.0476692
0.7915039, -0.2666016, 0.0400391, -10.9146347, -41.1585388, -0.7926829, -0.0493477
0.7939453, -0.2617188, 0.0366211, -10.7926836, -41.7073174, -0.9146342, -0.0473335
0.7929688, -0.2626953, 0.0351562, -10.6707315, -41.8292694, -1.2195122, -0.0399481
0.7924805, -0.2636719, 0.0327148, -10.9756098, -42.1341476, -1.2195122, -0.0359197
0.7895508, -0.2641602, 0.0366211, -10.9146347, -42.6219521, -1.402439, -0.0439765
0.7895508, -0.2631836, 0.0390625, -10.9146347, -43.1097565, -1.7682927, -0.0459907
0.7905273, -0.2641602, 0.0429688, -10.7317076, -43.7804871, -2.3780489, -0.0433051
0.7919922, -0.2666016, 0.0400391, -10.6097565, -44.1463432, -2.195122, -0.0459907
0.7929688, -0.2666016, 0.0327148, -10.4878054, -44.8780479, -2.9268293, -0.0473335
0.796875, -0.2666016, 0.0288086, -10.5487804, -45.1829262, -3.3536587, -0.0493477
0.7978516, -0.2607422, 0.0214844, -10.4878054, -45.6707344, -3.7195122, -0.0459907
0.7973633, -0.262207, 0.0253906, -10.6707315, -45.8536606, -3.8414636, -0.0486763
0.796875, -0.2578125, 0.0200195, -11.0975609, -46.0365868, -3.7195122, -0.0439765
0.7978516, -0.2578125, 0.0200195, -11.1585369, -46.2804871, -3.7804878, -0.0433051
0.7998047, -0.2563477, 0.012207, -11.280488, -46.4634171, -3.5975611, -0.0406195
0.8022461, -0.2524414, 0.0102539, -11.1585369, -46.5243912, -3.5975611, -0.0392767
0.8032227, -0.2490234, 0.0058594, -11.5853662, -46.8902435, -3.3536587, -0.0412909
0.8105469, -0.2480469, 0.0009766, -11.7073174, -47.4390259, -3.1097562, -0.0406195
0.8110352, -0.2480469, -0.0029297, -12.2560978, -47.3170738, -2.6829269, -0.0382696
0.8154297, -0.2485352, -0.0014648, -12.8658543, -47.6829262, -2.3170731, -0.0365911
0.8188477, -0.2475586, -0.0019531, -13.1097565, -47.7439041, -2.0121951, -0.0439765
0.8310547, -0.2490234, 0, -13.5365858, -47.6829262, -1.5243902, -0.0412909
0.8305664, -0.2529297, 0.0019531, -13.780488, -47.8048782, -1.402439, -0.035584
0.8383789, -0.2587891, 0.0039062, -14.0243902, -47.9268303, -1.2804878, -0.0365911
0.8432617, -0.2583008, 0.0053711, -14.0243902, -48.2926826, -1.5853659, -0.0392767
0.8515625, -0.2626953, 0, -13.7195129, -47.9268303, -1.2804878, -0.0406195
0.862793, -0.2680664, 0.0024414, -13.4756098, -47.8048782, -1.2195122, -0.0459907
0.8637695, -0.2680664, 0.0053711, -13.2926836, -47.6219521, -1.2195122, -0.0493477
0.8623047, -0.2758789, 0.0102539, -12.8658543, -47.3780518, -1.3414634, -0.0446479
0.8623047, -0.2749023, 0.0092773, -12.3780489, -47.0121956, -1.2804878, -0.0473335
0.8652344, -0.2773438, 0.0141602, -11.4024391, -46.8292694, -1.2804878, -0.0459907
0.8642578, -0.2768555, 0.0141602, -11.1585369, -46.5243912, -1.3414634, -0.0459907
0.8632812, -0.2763672, 0.0117188, -10.1829271, -46.341465, -1.2804878, -0.0433051
0.8603516, -0.2797852, 0.0083008, -9.6341467, -46.1585388, -0.9756098, -0.0439765
0.8549805, -0.2724609, -0.0004883, -8.5365858, -45.8536606, -0.9146342, -0.0443122
0.8530273, -0.265625, -0.0019531, -8.2317076, -45.5487823, -0.8536586, -0.0436408
0.8413086, -0.2651367, -0.0058594, -7.8658538, -45.1829262, -0.3658537, -0.0419623
0.8349609, -0.2563477, -0.0048828, -7.5609756, -44.7560997, 0.1829268, -0.0352483
0.8266602, -0.2524414, -0.0048828, -7.5, -44.6951218, 0.4878049, -0.0419623
0.8232422, -0.2460938, -0.0126953, -7.6219516, -44.3902435, 1.1585366, -0.0459907
0.8217773, -0.2436523, -0.0097656, -7.3780489, -44.0853653, 1.7682927, -0.0513619
0.8115234, -0.2368164, -0.0175781, -7.9878049, -44.0243912, 2.3780489, -0.0419623
0.8115234, -0.234375, -0.0224609, -7.9268293, -43.9024391, 2.804878, -0.0439765
0.8037109, -0.2265625, -0.0249023, -9.2073174, -43.4756126, 3.9634147, -0.0486763
0.800293, -0.2246094, -0.0249023, -9.3902445, -43.841465, 4.3292685, -0.0486763
0.7973633, -0.2241211, -0.0273438, -10.2439022, -43.5975609, 5.3048782, -0.0446479
0.7939453, -0.2246094, -0.0292969, -11.4024391, -43.3536606, 5.7317076, -0.0406195
0.7895508, -0.2241211, -0.0283203, -12.2560978, -43.4146347, 6.4634147, -0.0433051
0.7905273, -0.21875, -0.0283203, -13.2317076, -43.1707344, 7.3780489, -0.0386053
0.7910156, -0.2172852, -0.0322266, -13.5975609, -43.4756126, 7.7439027, -0.0419623
0.7973633, -0.2226562, -0.0327148, -14.3902445, -43.3536606, 8.5975609, -0.0439765
0.7978516, -0.2265625, -0.0322266, -14.8170738, -42.9878044, 8.6585369, -0.0406195
0.7998047, -0.2265625, -0.0356445, -15.3658543, -43.0487823, 9.0853662, -0.0406195
0.8041992, -0.230957, -0.0332031, -15.9146347, -42.8048782, 9.3292685, -0.0379339
0.8095703, -0.2333984, -0.0327148, -16.2195129, -42.5, 9.7560978, -0.0365911
0.8110352, -0.237793, -0.0361328, -16.6463413, -42.3170738, 9.6951218, -0.0365911
0.8222656, -0.2358398, -0.0361328, -16.7073174, -42.1341476, 9.7560978, -0.0396124
0.8203125, -0.2319336, -0.0332031, -16.6463413, -41.8902435, 9.8780489, -0.0446479
0.8251953, -0.2329102, -0.0317383, -16.1585369, -41.4634171, 9.6341467, -0.0419623
0.8291016, -0.234375, -0.0351562, -15.5487804, -41.1585388, 9.2682924, -0.0399481
0.8286133, -0.234375, -0.0380859, -15.3658543, -40.8536606, 9.3292685, -0.0412909
0.8261719, -0.237793, -0.0371094, -14.9390249, -40.6097565, 8.9024391, -0.0352483
0.8320312, -0.2353516, -0.0366211, -14.5731707, -40.4268303, 8.719512, -0.0433051
0.8305664, -0.2280273, -0.0385742, -14.2073174, -40.3658562, 8.4756098, -0.0433051
0.8305664, -0.2290039, -0.0361328, -13.9634151, -40.3658562, 7.8658538, -0.0386053
0.8369141, -0.2338867, -0.0395508, -13.4756098, -40.3048782, 7.5609756, -0.0386053
0.8374023, -0.2329102, -0.0371094, -13.5975609, -40.6707344, 7.2560978, -0.0392767
0.8461914, -0.2255859, -0.0361328, -13.5975609, -40.1829262, 6.890244, -0.0352483
0.8496094, -0.2265625, -0.0351562, -13.3536587, -39.9390259, 6.4634147, -0.0352483
0.8520508, -0.2216797, -0.034668, -12.9878054, -39.4512215, 5.9146342, -0.0318914
0.8652344, -0.2211914, -0.0390625, -13.1707315, -39.1463432, 5.1219511, -0.0379339
0.8671875, -0.2211914, -0.0380859, -12.8658543, -38.841465, 4.8170733, -0.0446479
0.8681641, -0.2172852, -0.0424805, -13.1707315, -37.8658562, 4.2073174, -0.0399481
0.8696289, -0.2148438, -0.0424805, -13.1097565, -37.6219521, 4.0853658, -0.0359197
0.8676758, -0.2109375, -0.0473633, -13.5975609, -36.9512215, 3.4146342, -0.0365911
0.8681641, -0.2070312, -0.0498047, -13.6585369, -36.4634171, 3.3536587, -0.0359197
0.8588867, -0.2041016, -0.0556641, -14.4512196, -35.5487823, 3.2926829, -0.0406195
0.8588867, -0.2011719, -0.0649414, -15.060976, -35.3048782, 3.1707318, -0.0433051
0.8583984, -0.1865234, -0.0698242, -16.2195129, -35.1219521, 3.4146342, -0.0433051
0.8598633, -0.1894531, -0.074707, -17.1341476, -35.1829262, 3.2926829, -0.0412909
0.859375, -0.1860352, -0.0869141, -18.8414631, -34.8170738, 3.5975611, -0.0419623
0.8608398, -0.1811523, -0.09375, -21.0365868, -34.4512215, 3.7804878, -0.0486763
0.8642578, -0.1835938, -0.0927734, -21.9512196, -34.5121956, 4.2073174, -0.0463264
0.8740234, -0.1870117, -0.0942383, -23.9024391, -34.1463432, 4.8780489, -0.0439765
0.8764648, -0.190918, -0.0932617, -24.9390259, -34.1463432, 4.9390244, -0.0486763
0.8891602, -0.1962891, -0.0981445, -26.9512196, -34.0243912, 5, -0.0473335
0.9008789, -0.1982422, -0.0966797, -27.6829281, -33.9024391, 5, -0.0439765
0.9106445, -0.2016602, -0.0986328, -29.3902454, -33.1707306, 4.9390244, -0.0433051
0.9145508, -0.2124023, -0.0961914, -29.9390259, -32.7439041, 4.7560978, -0.0480049
0.925293, -0.222168, -0.0922852, -30.6707325, -32.3170738, 4.4512196, -0.0446479
0.9326172, -0.2231445, -0.0927734, -30.7317085, -31.8902454, 4.2682929, -0.0446479
0.9428711, -0.230957, -0.0810547, -30.2439022, -31.1585369, 3.9024391, -0.0419623
0.9482422, -0.2382812, -0.0791016, -29.5121956, -30.2439022, 3.5365853, -0.0486763
0.9487305, -0.2441406, -0.0800781, -28.780489, -30.1829281, 3.1707318, -0.0520333
0.9526367, -0.2436523, -0.0786133, -27.8048782, -29.3902454, 2.6219513, -0.0513619
0.9492188, -0.2431641, -0.0766602, -27.1951218, -28.9634151, 2.5609756, -0.0436408
0.953125, -0.2456055, -0.0805664, -25.7317085, -28.5365868, 1.7073171, -0.0365911
0.9545898, -0.2451172, -0.0839844, -25.060976, -28.2926826, 1.5853659, -0.0406195
0.9526367, -0.2480469, -0.0883789, -23.4756107, -27.4390259, 0.9756098, -0.0325628
0.9555664, -0.25, -0.090332, -22.9268303, -27.0121956, 0.6707317, -0.0365911
0.9521484, -0.2426758, -0.1000977, -21.2195129, -26.6463413, 0.4878049, -0.0379339
0.9482422, -0.2416992, -0.1044922, -20.5487804, -26.2195129, 0.3048781, -0.0406195
0.9492188, -0.2368164, -0.112793, -20.4268303, -25.9756107, 0.4268293, -0.0406195
0.9462891, -0.2246094, -0.1191406, -19.6951218, -25.7317085, 0.4878049, -0.0459907
0.9458008, -0.2236328, -0.1235352, -19.5731716, -25.4878063, 0.6707317, -0.0473335
0.9536133, -0.2192383, -0.1303711, -19.3902435, -25.1829281, 1.0365853, -0.0486763
0.9560547, -0.2172852, -0.137207, -19.5121956, -25, 0.9756098, -0.0406195
0.9550781, -0.2172852, -0.1489258, -20.1219521, -24.6341476, 1.5243902, -0.0433051
0.9570312, -0.2207031, -0.1479492, -20.6707325, -24.3292694, 1.7073171, -0.0459907
0.9541016, -0.2202148, -0.15625, -21.4024391, -24.3292694, 1.7073171, -0.0466621
0.9536133, -0.2182617, -0.1616211, -22.0731716, -24.3292694, 1.7073171, -0.0446479
0.9599609, -0.2128906, -0.1694336, -22.9268303, -23.780489, 1.7682927, -0.0386053
0.9594727, -0.2128906, -0.1738281, -23.7195129, -23.4756107, 1.7682927, -0.0379339
0.9560547, -0.2128906, -0.1743164, -24.8170738, -23.780489, 1.8292683, -0.0379339
0.9580078, -0.2114258, -0.1699219, -26.4634151, -23.7195129, 1.9512196, -0.0298772
0.9550781, -0.2104492, -0.1708984, -27.0121956, -23.6585369, 1.8292683, -0.0325628
0.9604492, -0.2104492, -0.171875, -28.6585369, -23.8414631, 2.1341465, -0.0369268
0.9589844, -0.2114258, -0.1694336, -29.2682934, -24.0853672, 2.0731707, -0.0406195
0.9663086, -0.2133789, -0.1621094, -30.7317085, -24.5731716, 2.195122, -0.0386053
0.965332, -0.2080078, -0.1572266, -31.2195129, -24.7560978, 2.1341465, -0.0446479
0.965332, -0.2148438, -0.1533203, -32.6219521, -25.1219521, 2.3780489, -0.0473335
0.9667969, -0.215332, -0.1474609, -33.3536606, -25.3048782, 2.5, -0.0486763
0.9672852, -0.2158203, -0.1391602, -34.5121956, -25.4878063, 2.9268293, -0.0433051
0.972168, -0.21875, -0.1313477, -35.1219521, -25.5487804, 2.804878, -0.042298
0.9755859, -0.2158203, -0.121582, -36.5853653, -25.6707325, 3.3536587, -0.0433051
0.9853516, -0.2177734, -0.1152344, -36.8902435, -25.9146347, 3.4756098, -0.0433051
0.987793, -0.2143555, -0.1152344, -36.8902435, -25.9146347, 3.5975611, -0.0339055
0.9951172, -0.2119141, -0.1186523, -37.5609779, -25.9146347, 3.8414636, -0.0379339
0.9960938, -0.2138672, -0.1235352, -37.8048782, -26.1585369, 3.7804878, -0.0328985
1.0009766, -0.2070312, -0.1313477, -38.2926826, -25.6707325, 3.6585367, -0.0298772
1.0014648, -0.2084961, -0.137207, -38.6585388, -25.6707325, 3.5975611, -0.0379339
1.0014648, -0.2099609, -0.1508789, -39.2073174, -25.6707325, 3.9634147, -0.0429694
0.9990234, -0.2089844, -0.1582031, -39.9390259, -25.4878063, 4.2073174, -0.0433051
0.996582, -0.2036133, -0.1694336, -40.5487823, -25.2439022, 4.8170733, -0.0416266
0.9970703, -0.1982422, -0.1787109, -41.0365868, -25.1219521, 4.9390244, -0.0433051
0.9946289, -0.1948242, -0.1831055, -41.9512215, -24.8780499, 5.4268293, -0.0406195
0.9912109, -0.1982422, -0.1938477, -42.6829262, -24.2073174, 6.1585369, -0.0453193
0.9882812, -0.1977539, -0.1948242, -42.9268303, -24.0243912, 6.0975609, -0.0459907
0.9887695, -0.1987305, -0.2011719, -44.0853653, -23.8414631, 6.5243902, -0.0459907
0.9814453, -0.1977539, -0.2006836, -44.5121956, -23.8414631, 6.7682929, -0.0406195
0.9833984, -0.203125, -0.2060547, -45.4878044, -23.7195129, 6.9512196, -0.042298
0.9794922, -0.206543, -0.2099609, -45.4878044, -23.9634151, 7.1341467, -0.0453193
0.9765625, -0.2128906, -0.2099609, -45.9146347, -24.3292694, 7.5, -0.0446479
0.9755859, -0.21875, -0.2055664, -45.9756126, -24.0243912, 7.3170733, -0.0486763
0.9707031, -0.2260742, -0.2011719, -45.4878044, -24.0853672, 7.1341467, -0.0486763
0.9770508, -0.2299805, -0.1943359, -44.8780479, -24.0853672, 6.7682929, -0.0500191
0.9755859, -0.2348633, -0.1923828, -43.6585388, -24.1463413, 6.5243902, -0.0513619
0.9726562, -0.2363281, -0.1875, -41.1585388, -24.4512196, 5.9146342, -0.0453193
0.9726562, -0.234375, -0.1850586, -39.8170738, -24.5121956, 5.8536587, -0.0436408
0.9736328, -0.2392578, -0.1801758, -37.4390259, -24.5121956, 5.2439027, -0.0399481
0.9741211, -0.2387695, -0.1777344, -36.4024391, -24.7560978, 5.1219511, -0.0486763
0.9702148, -0.2387695, -0.1787109, -33.841465, -24.8780499, 4.8170733, -0.0516976
0.9731445, -0.2392578, -0.1757812, -32.6219521, -24.9390259, 4.8780489, -0.0486763
0.9716797, -0.2348633, -0.168457, -30.4268303, -25.3658543, 4.390244, -0.0540475
0.9702148, -0.234375, -0.1674805, -29.3292694, -25.5487804, 4.4512196, -0.0533761
0.9765625, -0.2348633, -0.1586914, -26.7073174, -26.280489, 3.7804878, -0.0463264
0.9790039, -0.2314453, -0.1547852, -25.6097565, -26.3414631, 3.4146342, -0.0419623
0.9794922, -0.2333984, -0.152832, -22.9878063, -27.0731716, 2.6219513, -0.0412909
0.9790039, -0.2363281, -0.1391602, -20.8536587, -27.6219521, 1.6463414, -0.0426337
0.9833984, -0.2338867, -0.1337891, -19.5731716, -28.0487804, 1.3414634, -0.0433051
0.9824219, -0.2353516, -0.128418, -17.3170738, -28.9024391, 0.3658537, -0.0446479
0.9819336, -0.2392578, -0.1240234, -16.280489, -29.0243912, -0.2439024, -0.0446479
0.9887695, -0.2338867, -0.1147461, -14.2073174, -29.8170738, -0.9146342, -0.0476692
0.9921875, -0.2348633, -0.1137695, -13.3536587, -30.060976, -1.4634147, -0.0359197
1.0009766, -0.2373047, -0.1103516, -10.7926836, -30.7317085, -2.3170731, -0.0386053
0.996582, -0.2392578, -0.1098633, -9.6951218, -31.0975609, -2.7439024, -0.0419623
1.0024414, -0.2407227, -0.1030273, -7.4390244, -31.7682934, -3.6585367, -0.0419623
1.0019531, -0.2387695, -0.1079102, -6.0975609, -31.7682934, -4.2682929, -0.0406195
1.0024414, -0.2387695, -0.1044922, -3.7804878, -32.4390259, -5.1219511, -0.0352483
1.0004883, -0.237793, -0.1074219, -1.3414634, -32.8658562, -6.0365853, -0.0386053
1.0014648, -0.2397461, -0.1103516, -0.5487805, -32.9268303, -6.3414636, -0.0409552
1.0004883, -0.2368164, -0.1171875, 1.1585366, -33.4146347, -6.9512196, -0.0473335
0.9985352, -0.2373047, -0.1201172, 1.9512196, -33.5365868, -7.3780489, -0.0446479
1.0014648, -0.2265625, -0.1289062, 2.9268293, -32.9878044, -7.9878049, -0.0372625
1.0014648, -0.2250977, -0.1298828, 3.7195122, -33.0487823, -8.1097565, -0.0318914
1.0004883, -0.2182617, -0.1342773, 4.5121951, -32.8048782, -8.4756098, -0.0352483
0.9990234, -0.2158203, -0.1391602, 4.8170733, -32.4390259, -8.6585369, -0.0339055
0.9931641, -0.2114258, -0.1425781, 5.5487804, -32.0121956, -8.9024391, -0.0365911
0.9868164, -0.2070312, -0.1455078, 5.7317076, -31.8292694, -8.780488, -0.0406195
0.9858398, -0.2099609, -0.1499023, 5.7926831, -31.4634151, -8.9634151, -0.0392767
0.9760742, -0.2080078, -0.1552734, 5.5487804, -31.5243912, -8.9024391, -0.0365911
0.9775391, -0.206543, -0.15625, 5.4878049, -31.280489, -8.9634151, -0.0406195
0.9716797, -0.2124023, -0.1533203, 4.6951222, -30.7926846, -8.4756098, -0.0459907
0.96875, -0.2114258, -0.1538086, 3.9634147, -30.7317085, -8.2926826, -0.0459907
0.9692383, -0.215332, -0.1489258, 3.2317073, -30.5487804, -7.8658538, -0.0392767
0.9711914, -0.2202148, -0.140625, 2.6829269, -30.1829281, -8.0487804, -0.0439765
0.9702148, -0.2260742, -0.1342773, 2.2560976, -29.3902454, -7.8048782, -0.0392767
0.9711914, -0.2285156, -0.1298828, 2.3170731, -29.0853672, -7.5609756, -0.0406195
0.9746094, -0.2368164, -0.1210938, 2.7439024, -28.7195129, -7.8658538, -0.0453193
0.9760742, -0.2402344, -0.1088867, 3.5975611, -28.3536587, -8.2317076, -0.0459907
0.9726562, -0.2397461, -0.1088867, 4.0243902, -28.0487804, -8.4146347, -0.0453193
0.96875, -0.2431641, -0.105957, 4.7560978, -27.8048782, -8.5975609, -0.0419623
0.96875, -0.2456055, -0.1079102, 5.0609756, -27.3170738, -8.5365858, -0.0486763
0.9658203, -0.246582, -0.1103516, 5.9756098, -26.9512196, -8.9634151, -0.0520333
0.9643555, -0.246582, -0.112793, 6.0365853, -26.4024391, -8.9634151, -0.0500191
0.9633789, -0.2485352, -0.1108398, 6.7073174, -26.3414631, -9.0853662, -0.0480049
0.9628906, -0.2475586, -0.1083984, 6.890244, -25.9146347, -9.1463413, -0.0426337
0.9614258, -0.2539062, -0.109375, 6.6463418, -25.6097565, -9.3292685, -0.0406195
0.9633789, -0.2553711, -0.1079102, 6.890244, -25.5487804, -9.5731707, -0.0365911
0.9609375, -0.2607422, -0.109375, 7.7439027, -25.4268303, -10.1829271, -0.0392767
0.9619141, -0.2661133, -0.1064453, 8.4146347, -25.3048782, -10.3658543, -0.0446479
0.9663086, -0.2675781, -0.1064453, 9.0243902, -25.3048782, -10.6097565, -0.0436408
0.9677734, -0.2695312, -0.1015625, 10.2439022, -25.060976, -11.1585369, -0.0406195
0.9682617, -0.2685547, -0.1030273, 10.6097565, -24.9390259, -11.341464, -0.0439765
0.9736328, -0.2695312, -0.1015625, 11.8292685, -24.8170738, -11.8902445, -0.0406195
0.9736328, -0.2749023, -0.1044922, 12.1341467, -24.8170738, -12.0121956, -0.0433051
0.9780273, -0.2749023, -0.1015625, 13.6585369, -24.5121956, -12.6219511, -0.0459907
0.9814453, -0.2744141, -0.1035156, 13.841464, -24.3292694, -12.9878054, -0.0399481
0.9819336, -0.2719727, -0.0981445, 14.9390249, -24.2682934, -13.4756098, -0.0406195
0.9785156, -0.2729492, -0.0957031, 15.3658543, -24.0853672, -13.780488, -0.0365911
0.9790039, -0.269043, -0.0957031, 16.1585369, -23.4756107, -14.1463413, -0.0339055
0.984375, -0.2666016, -0.0942383, 17.0121956, -23.2926826, -14.3902445, -0.0352483
0.9887695, -0.2661133, -0.0966797, 17.2560978, -23.1707325, -14.6951227, -0.0433051
0.9892578, -0.2631836, -0.1035156, 18.0487804, -22.8658543, -15.1829271, -0.0446479
0.9897461, -0.2626953, -0.1049805, 18.4146347, -22.8658543, -15.4878054, -0.0439765
0.9868164, -0.2661133, -0.112793, 18.6585369, -22.8048782, -15.9146347, -0.0433051
0.9892578, -0.2661133, -0.1123047, 18.6585369, -22.3780499, -15.9756098, -0.0463264
0.9916992, -0.2612305, -0.1206055, 17.6829281, -22.3780499, -16.6463413, -0.0459907
0.9946289, -0.265625, -0.1279297, 17.3780499, -22.439024, -16.6463413, -0.042298
0.9995117, -0.2612305, -0.1289062, 16.5853653, -22.1951218, -16.7073174, -0.0409552
1.0014648, -0.2661133, -0.1259766, 15.8536587, -21.9512196, -17.0121956, -0.0446479
1.0043945, -0.2597656, -0.1342773, 14.5731707, -21.5243912, -16.8902435, -0.0500191
1.0083008, -0.2539062, -0.1386719, 13.1097565, -21.3414631, -17.0731716, -0.0433051
1.0131836, -0.2543945, -0.1450195, 12.1341467, -20.7317085, -16.9512196, -0.0466621
1.0170898, -0.2475586, -0.1499023, 10.4878054, -20.4268303, -17.0731716, -0.0513619
1.0170898, -0.2470703, -0.1533203, 9.3902445, -20.1829281, -16.9512196, -0.0500191
1.0214844, -0.2475586, -0.1616211, 7.3780489, -19.0853672, -16.6463413, -0.0527047
1.0239258, -0.2460938, -0.1621094, 6.0365853, -19.2073174, -16.8902435, -0.0500191
1.0273438, -0.2431641, -0.1655273, 3.5365853, -18.7195129, -16.5243912, -0.0506905
1.0297852, -0.2456055, -0.1635742, 2.4390244, -18.4146347, -16.5853653, -0.056733
1.0332031, -0.246582, -0.1650391, -0.1829268, -17.8048782, -16.0975609, -0.0547189
1.0336914, -0.2485352, -0.1625977, -1.3414634, -17.439024, -15.8536587, -0.0486763
1.0405273, -0.2529297, -0.1660156, -3.5975611, -17.3780499, -15.9146347, -0.0540475
1.0395508, -0.2602539, -0.1665039, -6.1585369, -17.0731716, -15.6097565, -0.0500191
1.0439453, -0.265625, -0.1635742, -7.6219516, -16.3414631, -15.6097565, -0.0392767
1.0483398, -0.2680664, -0.1650391, -9.6951218, -16.2195129, -15.6097565, -0.0392767
1.0493164, -0.2729492, -0.1660156, -10.8536587, -16.0365849, -15.6097565, -0.0459907
1.0512695, -0.284668, -0.1591797, -12.7439032, -15.5487804, -15.7317076, -0.0406195
1.0537109, -0.284668, -0.1591797, -13.4146347, -15.2439032, -15.5487804, -0.0399481
1.0571289, -0.296875, -0.1523438, -14.6951227, -14.6951227, -15.3048782, -0.0473335
1.0595703, -0.2963867, -0.1474609, -15, -14.7560978, -15.2439032, -0.0493477
1.0615234, -0.3041992, -0.140625, -15.7317076, -14.4512196, -15.060976, -0.0426337
1.0595703, -0.3076172, -0.1381836, -15.7926836, -13.841464, -15.1829271, -0.0399481
1.059082, -0.3154297, -0.1357422, -16.4024391, -14.1463413, -15.2439032, -0.0406195
1.0644531, -0.3222656, -0.1342773, -16.4024391, -13.7195129, -15.3048782, -0.0379339
1.0615234, -0.3251953, -0.1308594, -16.2195129, -13.4756098, -15.3658543, -0.0459907
1.0615234, -0.3256836, -0.128418, -16.1585369, -13.1707315, -15.3658543, -0.0419623
1.0664062, -0.3271484, -0.1289062, -15.7317076, -13.0487804, -14.9390249, -0.0379339
1.0668945, -0.3339844, -0.1264648, -15.1829271, -13.2317076, -15.1219511, -0.0386053
1.0708008, -0.3344727, -0.1289062, -14.5731707, -12.8658543, -15.1219511, -0.0396124
1.0727539, -0.3320312, -0.1298828, -14.0853662, -12.9268293, -15, -0.0466621
1.0732422, -0.3359375, -0.1352539, -13.841464, -12.6829271, -14.8170738, -0.0449836
1.0786133, -0.3261719, -0.1396484, -13.2317076, -12.3780489, -14.6951227, -0.0433051
1.0820312, -0.3251953, -0.1416016, -13.1097565, -12.3170738, -14.4512196, -0.0396124
1.0830078, -0.3242188, -0.1499023, -13.1097565, -11.7073174, -13.841464, -0.0318914
1.0883789, -0.3242188, -0.15625, -12.6219511, -11.5243902, -13.5365858, -0.0308843
1.0888672, -0.3237305, -0.1577148, -12.8048782, -11.280488, -13.7195129, -0.0392767
1.0849609, -0.3227539, -0.1630859, -12.4390249, -10.5487804, -12.9878054, -0.0433051
1.0859375, -0.3227539, -0.1660156, -12.560976, -10.4878054, -12.560976, -0.0433051
1.0874023, -0.3232422, -0.1704102, -12.1951218, -10, -12.4390249, -0.0439765
1.0849609, -0.3251953, -0.1713867, -12.4390249, -9.8170738, -12.1341467, -0.0466621
1.0830078, -0.3266602, -0.1748047, -12.3780489, -9.6951218, -11.5853662, -0.0439765
1.0795898, -0.3251953, -0.1748047, -12.2560978, -9.6341467, -11.219512, -0.0406195
1.0791016, -0.3295898, -0.1806641, -12.1951218, -9.3902445, -10.4878054, -0.0392767
1.0839844, -0.3300781, -0.1767578, -12.0731707, -9.0853662, -10.4268293, -0.0379339
1.081543, -0.3330078, -0.1762695, -11.4634151, -9.1463413, -9.8780489, -0.0386053
1.0820312, -0.3388672, -0.1762695, -11.1585369, -8.841464, -9.3292685, -0.0372625
1.0766602, -0.34375, -0.1723633, -10.8536587, -8.9024391, -9.1463413, -0.0365911
1.0737305, -0.3447266, -0.1713867, -10.2439022, -9.0853662, -8.6585369, -0.0473335
1.0756836, -0.3466797, -0.1689453, -9.6341467, -9.0853662, -8.3536587, -0.0500191
1.0805664, -0.3500977, -0.1665039, -8.2317076, -9.0853662, -7.6829271, -0.0500191
1.0791016, -0.3466797, -0.1660156, -7.5, -9.2073174, -7.5, -0.0547189
1.0791016, -0.3540039, -0.1601562, -6.0975609, -8.9634151, -7.0121951, -0.0543832
1.0791016, -0.3500977, -0.1616211, -5.3658538, -9.0243902, -6.8292685, -0.0527047
1.0839844, -0.3574219, -0.1606445, -3.9024391, -9.0853662, -6.2195125, -0.0553902
1.0854492, -0.3544922, -0.1572266, -3.2926829, -8.780488, -5.9756098, -0.0449836
1.0771484, -0.3569336, -0.1572266, -1.1585366, -8.3536587, -5.670732, -0.0439765
1.0751953, -0.355957, -0.1567383, 0.6707317, -8.2926826, -5.5487804, -0.0466621
1.0727539, -0.3569336, -0.1611328, 2.0731707, -8.719512, -5.5487804, -0.0473335
1.0708008, -0.3554688, -0.1694336, 3.5975611, -8.4756098, -4.7560978, -0.0459907
1.0664062, -0.3505859, -0.1708984, 4.7560978, -8.6585369, -4.7560978, -0.0419623
1.0639648, -0.3520508, -0.171875, 5.7317076, -9.1463413, -4.2682929, -0.0419623
1.065918, -0.3476562, -0.1762695, 6.4634147, -9.1463413, -3.9634147, -0.0439765
1.0605469, -0.3481445, -0.1723633, 7.6829271, -9.3292685, -3.2926829, -0.0466621
1.0537109, -0.3466797, -0.1694336, 8.1707315, -9.5731707, -2.9878049, -0.042298
1.0546875, -0.3442383, -0.1621094, 9.0243902, -9.7560978, -2.1341465, -0.0473335
1.0585938, -0.3408203, -0.159668, 9.5121956, -9.8170738, -1.8292683, -0.0493477
1.0610352, -0.3408203, -0.1538086, 10.5487804, -10.1829271, -0.7926829, -0.0480049
1.0683594, -0.3398438, -0.1518555, 11.7682934, -10.7926836, -0.3048781, -0.0409552
1.0727539, -0.3383789, -0.1518555, 12.5, -10.5487804, -0.2439024, -0.0406195
1.0776367, -0.3442383, -0.1494141, 14.2073174, -10.2439022, 0.3048781, -0.0386053
1.0761719, -0.3413086, -0.1494141, 14.8780489, -10.060976, 0.3658537, -0.0379339
1.0771484, -0.3378906, -0.1479492, 16.2195129, -9.7560978, 0.7926829, -0.0352483
1.0795898, -0.3334961, -0.1489258, 16.8292694, -9.8170738, 0.9146342, -0.0352483
1.0698242, -0.3330078, -0.1503906, 18.2317085, -9.2073174, 1.402439, -0.0365911
1.0717773, -0.3276367, -0.1494141, 18.5975609, -9.5121956, 1.9512196, -0.0433051
1.0571289, -0.3227539, -0.1577148, 19.6341476, -8.841464, 2.195122, -0.0406195
1.0527344, -0.3193359, -0.1640625, 20, -8.4756098, 2.5609756, -0.0352483
1.0449219, -0.3129883, -0.1674805, 20.4878044, -7.8658538, 3.1707318, -0.0379339
1.0361328, -0.3037109, -0.1787109, 20.3048782, -7.5609756, 3.7804878, -0.0406195
1.0317383, -0.3012695, -0.1816406, 20.2439022, -7.4390244, 4.1463413, -0.0406195
1.0239258, -0.2988281, -0.1870117, 18.9634151, -7.4390244, 4.8780489, -0.0406195
1.0249023, -0.2910156, -0.1860352, 18.2926826, -6.7682929, 5.2439027, -0.0439765
1.0239258, -0.2861328, -0.1879883, 16.9512196, -7.0731707, 6.1585369, -0.0406195
1.0214844, -0.2836914, -0.1899414, 16.2195129, -6.9512196, 6.5853658, -0.0409552
1.0239258, -0.2802734, -0.1904297, 14.8170738, -7.0121951, 7.0731707, -0.0466621
1.0214844, -0.28125, -0.1894531, 14.2682934, -7.1341467, 7.4390244, -0.0480049
1.0209961, -0.2836914, -0.1918945, 12.9878054, -7.3170733, 8.1707315, -0.0433051
1.0268555, -0.2851562, -0.1933594, 12.5, -7.0121951, 8.2926826, -0.0463264
1.0283203, -0.2871094, -0.190918, 11.5243902, -7.0731707, 8.780488, -0.0520333
1.0273438, -0.2910156, -0.190918, 11.0365858, -6.7682929, 8.4146347, -0.0513619
1.0307617, -0.2939453, -0.190918, 10.7317076, -6.7073174, 8.6585369, -0.0503548
1.0317383, -0.2958984, -0.1865234, 10.6707315, -6.7073174, 8.9634151, -0.0500191
1.0317383, -0.3007812, -0.1855469, 10.4268293, -6.3414636, 8.9024391, -0.0473335
1.0371094, -0.3051758, -0.1870117, 10.9756098, -6.0365853, 9.0243902, -0.0433051
1.0400391, -0.3056641, -0.1879883, 10.9756098, -6.0975609, 8.9634151, -0.0493477
1.0385742, -0.3071289, -0.1875, 11.1585369, -6.1585369, 9.3902445, -0.0412909
1.0395508, -0.3051758, -0.1850586, 11.0975609, -6.0365853, 9.3292685, -0.042298
1.0419922, -0.3115234, -0.1855469, 11.0975609, -5.9756098, 9.0853662, -0.0433051
1.0415039, -0.3100586, -0.1831055, 11.219512, -5.609756, 9.2073174, -0.0433051
1.043457, -0.3168945, -0.1875, 11.280488, -5.670732, 9.0243902, -0.0449836
1.0385742, -0.3188477, -0.1875, 11.5243902, -5.8536587, 9.0243902, -0.0426337
1.0405273, -0.3154297, -0.1884766, 11.7073174, -6.1585369, 8.841464, -0.0446479
1.0327148, -0.3125, -0.1948242, 11.1585369, -6.0975609, 8.841464, -0.042298
1.0332031, -0.3100586, -0.2001953, 11.0365858, -6.4024391, 8.841464, -0.0480049
1.0336914, -0.3046875, -0.206543, 9.3292685, -6.9512196, 9.2073174, -0.0473335
1.0292969, -0.3017578, -0.2075195, 8.2926826, -7.2560978, 9.1463413, -0.0493477
1.0268555, -0.2983398, -0.2124023, 5.9146342, -7.3170733, 9.6341467, -0.0412909
1.0263672, -0.2954102, -0.2177734, 4.8170733, -7.6829271, 9.8780489, -0.0359197
1.0307617, -0.2915039, -0.2197266, 2.195122, -8.1097565, 10.2439022, -0.0406195
1.0341797, -0.2866211, -0.2260742, 0.7317073, -8.5975609, 10, -0.0406195
1.0375977, -0.2807617, -0.2304688, -1.7073171, -9.1463413, 10.6097565, -0.0386053
1.0395508, -0.2861328, -0.2333984, -4.6951222, -10, 11.5243902, -0.0345769
1.043457, -0.2807617, -0.2368164, -5.9146342, -10.1829271, 11.8292685, -0.0426337
1.046875, -0.2866211, -0.2382812, -9.1463413, -10.2439022, 12.6219511, -0.0446479
1.0473633, -0.2880859, -0.2407227, -10.6097565, -10.060976, 13.1097565, -0.0476692
1.0478516, -0.2978516, -0.2373047, -12.8658543, -9.7560978, 14.2682934, -0.0453193
1.043457, -0.2993164, -0.230957, -14.2073174, -9.9390249, 14.8170738, -0.0486763
1.0375977, -0.3100586, -0.2211914, -15.9756098, -9.6341467, 15.6707325, -0.0486763
1.034668, -0.3173828, -0.2158203, -16.280489, -9.5121956, 16.0975609, -0.0446479
1.0268555, -0.3378906, -0.2055664, -16.7073174, -9.5731707, 16.8902435, -0.0392767
1.0117188, -0.3549805, -0.1967773, -16.4024391, -9.8170738, 17.2560978, -0.0339055
1.0024414, -0.3618164, -0.1948242, -15.8536587, -10, 18.2317085, -0.0332341
0.9892578, -0.378418, -0.1889648, -14.3902445, -10.3048782, 19.0243912, -0.035584
0.9819336, -0.3837891, -0.1889648, -13.7195129, -10.4268293, 19.3902435, -0.0325628
0.9746094, -0.3896484, -0.1826172, -11.8292685, -10.4268293, 20.3658543, -0.0339055
0.9692383, -0.3911133, -0.1806641, -10.9146347, -10.5487804, 20.7926826, -0.0339055
0.9628906, -0.3955078, -0.1728516, -8.2926826, -10.4878054, 20.8536587, -0.0365911
0.9599609, -0.3989258, -0.1723633, -6.5853658, -10.6097565, 21.4634151, -0.0392767
0.953125, -0.3950195, -0.1694336, -2.9878049, -11.1585369, 22.1341476, -0.0399481
0.9516602, -0.3974609, -0.1704102, -1.3414634, -11.4634151, 22.6219521, -0.0396124
0.9472656, -0.394043, -0.1713867, 2.3780489, -12.1951218, 23.0487804, -0.0399481
0.9575195, -0.390625, -0.1801758, 5.9756098, -13.0487804, 23.5365868, -0.0392767
0.9614258, -0.3935547, -0.1801758, 8.0487804, -13.2926836, 23.780489, -0.0365911
0.972168, -0.3925781, -0.1860352, 10.6097565, -13.7195129, 24.3292694, -0.0379339
0.9799805, -0.3964844, -0.1879883, 12.1341467, -13.4756098, 24.3902435, -0.0379339
0.9897461, -0.3955078, -0.1875, 14.6341467, -13.4146347, 24.6951218, -0.0446479
0.9990234, -0.3920898, -0.1899414, 15.6097565, -13.780488, 24.5731716, -0.0453193
1.0058594, -0.3994141, -0.1904297, 17.7439022, -13.841464, 24.2682934, -0.0325628
1.0131836, -0.4013672, -0.1894531, 18.9024391, -13.9024391, 23.8414631, -0.0369268
1.0200195, -0.4023438, -0.184082, 21.6463413, -14.0853662, 23.6585369, -0.0315557
1.0239258, -0.4072266, -0.1777344, 22.7439022, -13.841464, 23.4146347, -0.0271916
1.0175781, -0.4135742, -0.175293, 25.4878063, -13.6585369, 22.6829281, -0.0328985
1.0166016, -0.4160156, -0.1660156, 28.0487804, -13.4146347, 22.1341476, -0.0359197
1.0161133, -0.4130859, -0.1621094, 29.2682934, -13.5365858, 22.0121956, -0.042298
1.0092773, -0.40625, -0.15625, 31.7682934, -13.3536587, 21.6463413, -0.0392767
1.003418, -0.4072266, -0.1547852, 33.1707306, -13.4146347, 21.280489, -0.0379339
0.9951172, -0.4033203, -0.1621094, 35.7317085, -13.4146347, 20.7317085, -0.0419623
0.9892578, -0.4038086, -0.1635742, 36.4634171, -13.5975609, 20.6097565, -0.0419623
0.9863281, -0.3891602, -0.1645508, 38.1707344, -13.5975609, 20.4878044, -0.0433051
0.9819336, -0.3808594, -0.1679688, 38.5365868, -13.9634151, 20.8536587, -0.0433051
0.9741211, -0.3686523, -0.1733398, 38.841465, -14.2682934, 21.2195129, -0.0409552
0.9711914, -0.3662109, -0.175293, 38.9024391, -14.3292685, 21.3414631, -0.0439765
0.9707031, -0.359375, -0.1748047, 38.1707344, -14.1463413, 22.0121956, -0.0365911
0.9633789, -0.3510742, -0.1762695, 37.6219521, -13.6585369, 22.7439022, -0.0406195
0.9580078, -0.3486328, -0.1782227, 37.6829262, -13.4756098, 22.9268303, -0.042298
0.949707, -0.3510742, -0.1762695, 37.8048782, -13.2317076, 23.780489, -0.0392767
0.9477539, -0.3481445, -0.1748047, 37.4390259, -12.8658543, 24.0853672, -0.0386053
0.940918, -0.355957, -0.184082, 37.6829262, -12.8048782, 24.5121956, -0.0396124
0.9379883, -0.359375, -0.184082, 37.6219521, -12.6219511, 24.6341476, -0.0352483
0.9277344, -0.3691406, -0.1865234, 37.8658562, -11.9512196, 25.6097565, -0.0392767
0.9267578, -0.3710938, -0.1850586, 37.9268303, -11.0975609, 25.9756107, -0.0412909
0.9223633, -0.3823242, -0.1845703, 38.5975609, -10.7317076, 26.7682934, -0.0392767
0.9238281, -0.3867188, -0.1855469, 39.2682953, -10.060976, 26.8292694, -0.0285344
0.921875, -0.3964844, -0.1816406, 41.341465, -8.9634151, 26.9512196, -0.0339055
0.9248047, -0.4023438, -0.1850586, 43.6585388, -7.9878049, 27.5, -0.035584
0.9267578, -0.4023438, -0.1855469, 44.7560997, -7.5609756, 27.4390259, -0.0342412
0.9355469, -0.4057617, -0.1953125, 46.8292694, -6.8292685, 27.6219521, -0.0426337
0.9370117, -0.4072266, -0.2011719, 47.5, -6.4634147, 28.0487804, -0.0412909
0.9394531, -0.4121094, -0.2084961, 48.2926826, -5.609756, 28.0487804, -0.0406195
0.9370117, -0.4155273, -0.2143555, 48.4146347, -4.8780489, 28.2317085, -0.0436408
0.9414062, -0.4204102, -0.2163086, 48.1097565, -3.9024391, 28.4146347, -0.0506905
0.9448242, -0.4208984, -0.2114258, 47.8658562, -3.2317073, 28.780489, -0.0446479
0.9448242, -0.4282227, -0.2099609, 47.6829262, -1.8902439, 28.9024391, -0.0496834
0.9467773, -0.4331055, -0.2041016, 47.4390259, -1.0365853, 29.0243912, -0.0500191
0.9462891, -0.4428711, -0.206543, 47.3780518, 0.2439024, 29.2073174, -0.0500191
0.949707, -0.4516602, -0.2070312, 47.3780518, 0.8536586, 29.0243912, -0.0446479
0.9472656, -0.4501953, -0.2026367, 47.9268303, 1.402439, 29.0853672, -0.0473335
0.9506836, -0.4560547, -0.2006836, 48.2926826, 1.8902439, 28.4146347, -0.0500191
0.9516602, -0.456543, -0.2050781, 48.4146347, 1.8902439, 28.780489, -0.0486763
0.9467773, -0.4628906, -0.2016602, 48.0487823, 2.3780489, 28.5365868, -0.0540475
0.949707, -0.4624023, -0.1938477, 47.9878044, 2.9268293, 28.5365868, -0.0506905
0.9448242, -0.4702148, -0.1914062, 47.5609779, 4.390244, 28.7195129, -0.0392767
0.9399414, -0.4731445, -0.1826172, 47.7439041, 5, 29.0853672, -0.0466621
0.9365234, -0.4790039, -0.1713867, 48.7195129, 7.1341467, 30.2439022, -0.0486763
0.9248047, -0.484375, -0.168457, 49.5121956, 8.1097565, 30.6097565, -0.0513619
0.9077148, -0.4902344, -0.175293, 50.8536606, 9.2682924, 31.5243912, -0.0513619
0.8823242, -0.4887695, -0.1791992, 51.5243912, 10.5487804, 32.3170738, -0.0459907
0.8701172, -0.4912109, -0.184082, 51.6463432, 10.9146347, 32.1951218, -0.0433051
0.8476562, -0.4926758, -0.1850586, 51.4634171, 11.6463413, 33.3536606, -0.0406195
0.828125, -0.4975586, -0.1879883, 51.7073174, 12.0731707, 34.1463432, -0.0469978
0.7993164, -0.4995117, -0.1855469, 50.7317085, 12.3780489, 34.3902435, -0.0513619
0.7890625, -0.5, -0.1870117, 51.0975609, 12.560976, 35.0609779, -0.0516976
0.7636719, -0.5019531, -0.1831055, 51.341465, 11.8292685, 35.4878044, -0.0533761
0.7529297, -0.5004883, -0.1826172, 51.8902435, 11.6463413, 35.9146347, -0.0439765
0.7387695, -0.5087891, -0.1821289, 52.6219521, 10.3048782, 36.1585388, -0.0449836
0.7265625, -0.5102539, -0.1831055, 52.8048782, 9.4512196, 36.8902435, -0.0446479
0.7236328, -0.5175781, -0.1860352, 53.2317085, 8.6585369, 37.8658562, -0.0459907
0.722168, -0.5253906, -0.1796875, 53.841465, 8.2317076, 38.9024391, -0.0439765
0.7246094, -0.53125, -0.1762695, 53.9634171, 7.6829271, 39.2682953, -0.0386053
0.7324219, -0.5385742, -0.1694336, 55.4268303, 6.5853658, 40.0609779, -0.0466621
0.7363281, -0.5429688, -0.168457, 56.4634171, 6.1585369, 40.3048782, -0.0513619
0.7514648, -0.543457, -0.1669922, 58.0487823, 4.390244, 40.1219521, -0.0486763
0.7568359, -0.5424805, -0.1669922, 58.9024391, 3.6585367, 40.0609779, -0.0473335
0.7700195, -0.5507812, -0.1611328, 59.6341476, 2.6829269, 39.7560997, -0.0419623
0.7695312, -0.5507812, -0.1577148, 59.6341476, 2.3170731, 39.5121956, -0.0433051
0.7768555, -0.5493164, -0.144043, 59.9390259, 2.3170731, 39.2682953, -0.0409552
0.7822266, -0.5507812, -0.1337891, 60.1219521, 2.2560976, 39.3902435, -0.0449836
0.784668, -0.5478516, -0.1157227, 60.9146347, 2.0121951, 39.2073174, -0.0453193
0.7866211, -0.5449219, -0.1020508, 61.9512215, 1.402439, 38.9634171, -0.0453193
0.7895508, -0.5429688, -0.0986328, 62.7439041, 0.9756098, 38.6585388, -0.0419623
0.7910156, -0.5395508, -0.0874023, 63.7195129, -0.5487805, 38.2926826, -0.0433051
0.7915039, -0.5375977, -0.0849609, 64.1463394, -0.9756098, 38.1097565, -0.0463264
0.7900391, -0.5361328, -0.0810547, 64.0243912, -1.9512196, 37.8658562, -0.0513619
0.7929688, -0.5336914, -0.0761719, 63.5975609, -2.4390244, 38.1097565, -0.0473335
0.800293, -0.5234375, -0.065918, 63.5365868, -2.195122, 38.1097565, -0.0486763
0.800293, -0.5268555, -0.0629883, 63.5365868, -2.0121951, 38.2317085, -0.0513619
0.8061523, -0.5283203, -0.050293, 63.7195129, -1.2804878, 38.4756088, -0.056733
0.8037109, -0.5249023, -0.0478516, 63.7804909, -0.9146342, 38.5975609, -0.0543832
0.8066406, -0.5258789, -0.034668, 63.9024391, -0.9146342, 38.6585388, -0.0473335
0.809082, -0.5292969, -0.0244141, 63.7804909, -0.9146342, 38.841465, -0.0503548
0.8095703, -0.5288086, -0.0229492, 63.5365868, -1.7073171, 38.2317085, -0.0453193
0.8095703, -0.5327148, -0.019043, 63.9634171, -2.9268293, 37.7439041, -0.0446479
0.8100586, -0.5336914, -0.0175781, 63.841465, -3.5365853, 37.3170738, -0.0476692
0.8134766, -0.5395508, -0.0053711, 64.0243912, -4.5121951, 36.6463432, -0.0493477
0.8115234, -0.5395508, -0.0004883, 64.1463394, -4.2682929, 36.4024391, -0.049012
0.8007812, -0.5419922, 0.0024414, 64.7560959, -4.2682929, 36.7682953, -0.0540475
0.7983398, -0.5439453, 0.0073242, 65, -4.1463413, 36.7682953, -0.0480049
0.7963867, -0.5444336, 0.0131836, 66.0975647, -4.0853658, 37.4390259, -0.0396124
0.7973633, -0.5458984, 0.0175781, 66.8292694, -3.7804878, 37.8048782, -0.0352483
0.8007812, -0.5439453, 0.0170898, 68.6585388, -3.7195122, 38.5365868, -0.0332341
0.8056641, -0.5439453, 0.0131836, 71.1585388, -2.8658538, 38.841465, -0.0365911
0.8051758, -0.5429688, 0.0131836, 72.1951218, -2.804878, 39.2073174, -0.0365911
0.809082, -0.5454102, 0.0004883, 73.9634171, -1.9512196, 39.3902435, -0.0352483
0.8110352, -0.5463867, -0.0039062, 75.4878082, -1.6463414, 39.7560997, -0.0433051
0.8154297, -0.5410156, -0.0112305, 77.4390259, -0.9756098, 39.7560997, -0.0386053
0.8212891, -0.5405273, -0.0170898, 78.4756088, -0.4268293, 39.6341476, -0.0433051
0.8261719, -0.5375977, -0.0234375, 80.3048782, 0.6707317, 39.8170738, -0.0379339
0.8295898, -0.5327148, -0.0307617, 81.2195129, 0.9756098, 39.8780479, -0.0379339
0.8320312, -0.5283203, -0.0498047, 81.9512177, 2.3170731, 39.9390259, -0.0419623
0.8266602, -0.5195312, -0.0673828, 81.8902435, 2.5, 40.2439041, -0.0392767
0.8276367, -0.5136719, -0.0673828, 81.7073212, 2.804878, 40.4878044, -0.0352483
0.8276367, -0.5097656, -0.0708008, 80.3658524, 3.1707318, 40.9146347, -0.0379339
0.8276367, -0.5048828, -0.0717773, 79.3902435, 3.1097562, 40.7317085, -0.0325628
0.8291016, -0.4980469, -0.0668945, 78.2926865, 3.2926829, 41.0975609, -0.03122
0.8266602, -0.4985352, -0.0639648, 77.4390259, 3.7195122, 41.0365868, -0.0305486
0.8188477, -0.5039062, -0.0566406, 75.7926865, 4.2073174, 41.0365868, -0.0352483
0.8154297, -0.5058594, -0.0493164, 74.7560959, 4.0243902, 41.0365868, -0.0433051
0.8085938, -0.512207, -0.0336914, 73.5975647, 3.0487804, 41.4024391, -0.0335698
0.8041992, -0.5117188, -0.0200195, 73.1097565, 2.7439024, 41.6463432, -0.0325628
0.8041992, -0.5185547, 0.0087891, 72.3780518, 2.4390244, 42.3780479, -0.0325628
0.8110352, -0.519043, 0.0385742, 72.3780518, 2.7439024, 42.6829262, -0.0392767
0.8178711, -0.5180664, 0.0488281, 73.8414688, 3.1707318, 43.2317085, -0.0473335
0.8164062, -0.5097656, 0.0629883, 76.0975647, 2.9878049, 43.4756126, -0.0513619
0.8208008, -0.5092773, 0.0683594, 77.3170776, 2.4390244, 43.9024391, -0.049012
0.8305664, -0.5004883, 0.0673828, 79.146347, 2.0121951, 43.6585388, -0.0486763
0.8378906, -0.4946289, 0.0625, 79.5121994, 2.0731707, 43.841465, -0.0473335
0.8408203, -0.4770508, 0.0595703, 80.18293, 2.804878, 43.7195129, -0.0439765
0.8520508, -0.4702148, 0.0551758, 80.4878082, 2.6829269, 43.6585388, -0.0473335
0.8583984, -0.4570312, 0.0444336, 80.1219559, 2.5, 43.5365868, -0.0392767
0.8642578, -0.4492188, 0.0415039, 80.18293, 2.4390244, 43.5365868, -0.0419623
0.8681641, -0.4375, 0.0375977, 79.6341476, 1.8902439, 42.9878044, -0.0406195
0.8720703, -0.4296875, 0.0288086, 79.3292694, 1.9512196, 42.6829262, -0.0325628
0.8769531, -0.4306641, 0.0219727, 78.7804871, 2.6219513, 41.9512215, -0.0419623
0.8696289, -0.4248047, 0.0107422, 78.4146347, 3.1707318, 40.8536606, -0.0399481
0.8671875, -0.4248047, 0.0029297, 78.0487823, 3.4146342, 40.5487823, -0.0419623
0.859375, -0.4208984, -0.0146484, 76.9512177, 3.6585367, 39.3902435, -0.0409552
0.8486328, -0.4194336, -0.0229492, 76.2804871, 3.5365853, 39.2073174, -0.0419623
0.828125, -0.4213867, -0.0253906, 74.5731735, 2.804878, 38.7195129, -0.042298
0.8183594, -0.4272461, -0.0273438, 73.7804871, 2.5609756, 38.6585388, -0.0500191
0.7983398, -0.4331055, -0.0234375, 73.1097565, 1.6463414, 38.7195129, -0.0547189
0.7944336, -0.4345703, -0.0263672, 73.3536606, 1.2195122, 38.841465, -0.0486763
0.7895508, -0.4384766, -0.0209961, 72.8658524, 0.6707317, 39.0853653, -0.042298
0.7861328, -0.4555664, -0.0107422, 73.1707306, 0.6097561, 39.2073174, -0.0365911
0.7817383, -0.4580078, -0.0043945, 74.7560959, 0, 38.7195129, -0.0369268
0.7856445, -0.4667969, 0.003418, 76.9512177, -0.5487805, 38.7195129, -0.0419623
0.7856445, -0.4707031, 0.0063477, 78.8414688, -0.9146342, 38.5975609, -0.0409552
0.7929688, -0.4741211, 0.0058594, 82.1341476, -1.2195122, 37.9878044, -0.0406195
0.7900391, -0.4770508, 0.0068359, 83.4756088, -1.3414634, 37.6219521, -0.0449836
0.7905273, -0.4799805, 0.0024414, 85.4878082, -1.1585366, 37.3780479, -0.0473335
0.7949219, -0.4819336, 0.0058594, 86.0365906, -1.097561, 37.1341476, -0.0419623
0.7973633, -0.4794922, 0.0073242, 87.0731735, -0.5487805, 36.2804871, -0.0339055
0.7983398, -0.4741211, 0.0083008, 87.9878082, -0.5487805, 36.2804871, -0.0359197
0.796875, -0.4672852, 0.0136719, 89.3902435, -0.4268293, 35.3048782, -0.0325628
0.7963867, -0.4575195, 0.0200195, 90.2439041, -0.1219512, 34.7560997, -0.027863
0.7905273, -0.4521484, 0.0151367, 92.1951218, 0.6707317, 33.3536606, -0.0251774
0.7900391, -0.4438477, 0.0136719, 93.9024429, 0.7317073, 31.8902454, -0.0302129
0.7817383, -0.4389648, 0.0097656, 94.2682953, 0.5487805, 30.9756107, -0.0369268
0.7792969, -0.4316406, 0.0014648, 94.6341476, 0.1829268, 29.5121956, -0.0433051
0.7695312, -0.4228516, -0.0078125, 94.6341476, 0, 29.0853672, -0.0426337
0.7568359, -0.4169922, -0.0175781, 92.9878082, -0.3048781, 28.2317085, -0.0426337
0.7602539, -0.4125977, -0.0209961, 91.646347, -0.3658537, 28.0487804, -0.0419623
0.7578125, -0.4082031, -0.0292969, 88.6585388, -0.2439024, 28.0487804, -0.0466621
0.7568359, -0.4091797, -0.0253906, 86.8902435, -0.0609756, 27.9878063, -0.0466621
0.7563477, -0.4052734, -0.0219727, 84.0853653, -0.1829268, 28.3536587, -0.0486763
0.7504883, -0.4140625, -0.0146484, 81.2195129, -0.7926829, 28.0487804, -0.0560616
0.7480469, -0.4174805, -0.0097656, 79.7560959, -1.3414634, 28.4146347, -0.0500191
0.7436523, -0.4277344, 0.0039062, 77.6219559, -1.7073171, 28.7195129, -0.0463264
0.7460938, -0.4296875, 0.0126953, 77.0731735, -1.8902439, 28.9634151, -0.0446479
0.7441406, -0.4433594, 0.0234375, 76.9512177, -2.2560976, 29.0853672, -0.0433051
0.7490234, -0.4487305, 0.0297852, 77.1341476, -2.6829269, 29.2073174, -0.0466621
0.7514648, -0.4584961, 0.0361328, 78.4146347, -3.4146342, 28.7195129, -0.0449836
0.75, -0.4648438, 0.0366211, 79.3292694, -3.9634147, 28.2317085, -0.0433051
0.7509766, -0.46875, 0.0258789, 80.7317123, -4.3292685, 27.6219521, -0.0426337
0.7539062, -0.4667969, 0.0195312, 81.2195129, -4.8170733, 27.4390259, -0.0459907
0.7495117, -0.4677734, 0.0102539, 81.7682953, -5.5487804, 27.3170738, -0.0449836
0.7519531, -0.4633789, 0.0112305, 82.1341476, -6.3414636, 27.3170738, -0.0500191
0.7539062, -0.4643555, 0.0161133, 82.1341476, -6.4024391, 27.4390259, -0.0543832
0.7578125, -0.4570312, 0.0209961, 81.9512177, -7.1341467, 27.560976, -0.0503548
0.762207, -0.4570312, 0.0268555, 82.0731735, -6.9512196, 27.8048782, -0.0459907
0.7734375, -0.4526367, 0.0385742, 81.8902435, -6.8292685, 28.4756107, -0.0480049
0.7734375, -0.4555664, 0.0405273, 81.8292694, -7.3170733, 28.4756107, -0.0486763
0.784668, -0.4453125, 0.0595703, 81.2195129, -8.2926826, 28.841465, -0.0459907
0.7880859, -0.4389648, 0.0688477, 81.0975647, -8.4756098, 28.841465, -0.0466621
0.8012695, -0.4331055, 0.0888672, 80.7926865, -8.9634151, 29.1463413, -0.0520333
0.8100586, -0.4355469, 0.09375, 80.8536606, -8.719512, 29.3902454, -0.0466621
0.8256836, -0.4350586, 0.1166992, 82.3780518, -8.4146347, 29.4512196, -0.0419623
0.8461914, -0.4296875, 0.1137695, 84.6341476, -7.2560978, 29.0853672, -0.0453193
0.8491211, -0.4311523, 0.1064453, 85.3658524, -6.9512196, 29.2682934, -0.0459907
0.8613281, -0.4326172, 0.0820312, 86.8292694, -6.4634147, 28.5365868, -0.0516976
0.8681641, -0.4296875, 0.0712891, 86.7073212, -6.4024391, 28.2317085, -0.0476692
0.8793945, -0.425293, 0.0566406, 85, -5.609756, 27.6219521, -0.0459907
0.8813477, -0.4189453, 0.0488281, 84.0243912, -4.8170733, 27.4390259, -0.0433051
0.8833008, -0.4125977, 0.0458984, 81.3414688, -3.5975611, 26.7073174, -0.0439765
0.8833008, -0.4125977, 0.043457, 80.2439041, -2.8658538, 26.4024391, -0.0412909
0.875, -0.4042969, 0.0371094, 78.1707306, -2.4390244, 25.3658543, -0.0419623
0.8676758, -0.4023438, 0.03125, 76.8902435, -2.4390244, 24.8170738, -0.0392767
0.8608398, -0.4023438, 0.0214844, 73.4756088, -2.9878049, 24.0853672, -0.0352483
0.8500977, -0.3969727, 0.0136719, 68.8414688, -3.5365853, 23.9634151, -0.0352483
0.8432617, -0.4003906, 0.0151367, 66.4024429, -3.3536587, 24.0853672, -0.0379339
0.8408203, -0.4047852, 0.0258789, 60.6707344, -2.5, 24.6951218, -0.0419623
0.8354492, -0.4082031, 0.0336914, 58.1707344, -2.2560976, 25.3048782, -0.0342412
0.8344727, -0.418457, 0.0527344, 54.3902435, -1.6463414, 25.7317085, -0.0352483
0.8364258, -0.4194336, 0.065918, 52.8658562, -2.0121951, 25.6707325, -0.0433051
0.8334961, -0.4316406, 0.0898438, 51.0365868, -3.4756098, 25.6707325, -0.0433051
0.8339844, -0.4379883, 0.1000977, 50.8536606, -4.3292685, 25.5487804, -0.0365911
0.8378906, -0.4477539, 0.1181641, 51.4024391, -5.7926831, 25.3048782, -0.0392767
0.8369141, -0.4526367, 0.1264648, 52.0121956, -6.4634147, 25.3658543, -0.0379339
0.840332, -0.4570312, 0.1474609, 54.2073174, -7.5, 25, -0.0386053
0.8447266, -0.4663086, 0.1577148, 56.7682953, -7.7439027, 25.1829281, -0.042298
0.8505859, -0.4697266, 0.1635742, 58.1707344, -7.8048782, 25.2439022, -0.0406195
0.8579102, -0.4707031, 0.1630859, 61.2804909, -7.7439027, 25, -0.0386053
0.8579102, -0.4697266, 0.1582031, 62.9878082, -8.0487804, 24.9390259, -0.0446479
0.8583984, -0.4667969, 0.1484375, 65.5487823, -8.2926826, 24.1463413, -0.0436408
0.8608398, -0.4643555, 0.1469727, 66.4634171, -8.9024391, 23.5365868, -0.0446479
0.8583984, -0.4575195, 0.1469727, 68.3536606, -8.5975609, 22.8048782, -0.0473335
0.8603516, -0.453125, 0.1469727, 69.3292694, -8.4146347, 22.1951218, -0.0506905
0.8520508, -0.4516602, 0.1508789, 71.5243912, -8.1097565, 21.280489, -0.0439765
0.8515625, -0.4516602, 0.1499023, 73.1097565, -8.1097565, 20.9756107, -0.0473335
0.8461914, -0.4477539, 0.1425781, 76.3414688, -8.4756098, 20.5487804, -0.0433051
0.840332, -0.4501953, 0.1274414, 78.5365906, -9.1463413, 20.060976, -0.0419623
0.8374023, -0.4477539, 0.112793, 79.0853653, -9.3292685, 20.3048782, -0.0386053
0.831543, -0.4462891, 0.1049805, 78.7804871, -9.9390249, 20.3658543, -0.0392767
0.8339844, -0.4448242, 0.1044922, 78.5365906, -9.8170738, 20.6097565, -0.035584
0.8383789, -0.4448242, 0.1079102, 77.7439041, -10.5487804, 20.5487804, -0.0409552
0.8364258, -0.4458008, 0.1113281, 77.5609741, -10.6097565, 20.4878044, -0.0500191
0.8466797, -0.4418945, 0.1152344, 77.6219559, -11.280488, 20.4268303, -0.0543832
0.8500977, -0.4404297, 0.1171875, 77.7439041, -11.4634151, 20.3048782, -0.0513619
0.8525391, -0.4365234, 0.1123047, 78.9024429, -12.1341467, 20.1219521, -0.0513619
0.855957, -0.4404297, 0.1030273, 80, -12.9268293, 20.1829281, -0.0513619
0.8618164, -0.4384766, 0.0952148, 81.0365906, -14.3292685, 20, -0.0412909
0.8769531, -0.4375, 0.0839844, 80.18293, -15.060976, 20.060976, -0.0392767
0.8798828, -0.4384766, 0.0849609, 79.2682953, -15, 20.060976, -0.0433051
0.8867188, -0.4418945, 0.0878906, 76.9512177, -15, 19.8780499, -0.0406195
0.8916016, -0.4428711, 0.0942383, 75.8536606, -15.2439032, 20, -0.0433051
0.8955078, -0.4536133, 0.1181641, 74.6951218, -16.0975609, 19.3902435, -0.0433051
0.8989258, -0.4545898, 0.1230469, 74.0853653, -16.5243912, 18.9634151, -0.0433051
0.9013672, -0.4658203, 0.1455078, 73.6585388, -17.7439022, 18.3536587, -0.0406195
0.9003906, -0.4711914, 0.1557617, 73.3536606, -18.2926826, 18.2317085, -0.0419623
0.9008789, -0.4799805, 0.1743164, 74.0853653, -19.2682934, 18.2317085, -0.0446479
0.9008789, -0.4892578, 0.1826172, 74.8780518, -19.4512196, 18.2926826, -0.0412909
0.8964844, -0.5058594, 0.1904297, 76.2195129, -20.3658543, 18.7195129, -0.0433051
0.8959961, -0.5151367, 0.1948242, 78.2926865, -21.6463413, 19.3902435, -0.0446479
0.8969727, -0.5249023, 0.2021484, 79.3902435, -22.1951218, 19.2682934, -0.0409552
0.8969727, -0.5361328, 0.2104492, 81.3414688, -23.9024391, 19.6951218, -0.0406195
0.8974609, -0.5380859, 0.2148438, 82.2560959, -24.5121956, 19.5731716, -0.0406195
0.9033203, -0.5463867, 0.2275391, 83.7195129, -25.6097565, 20, -0.0459907
0.9052734, -0.5488281, 0.2333984, 84.6951218, -26.2195129, 20.1829281, -0.0436408
0.9047852, -0.5517578, 0.2431641, 86.7682953, -27.0731716, 20.3658543, -0.0453193
0.9057617, -0.5541992, 0.2412109, 87.4390259, -27.6219521, 20.7317085, -0.0446479
0.9091797, -0.5517578, 0.2416992, 88.7804871, -28.3536587, 20.9146347, -0.0409552
0.9130859, -0.5488281, 0.2460938, 89.0243912, -28.1707325, 21.0365868, -0.0520333
0.9125977, -0.5410156, 0.2470703, 89.5731735, -28.2317085, 21.5853672, -0.0527047
0.9077148, -0.5283203, 0.2578125, 89.8170776, -28.4756107, 22.0731716, -0.0520333
0.90625, -0.5249023, 0.2646484, 89.9390259, -28.1097565, 22.2560978, -0.0486763
0.9033203, -0.5185547, 0.2768555, 90.7926865, -28.2926826, 22.560976, -0.0386053
0.9008789, -0.5083008, 0.2817383, 91.2195129, -28.1097565, 22.6219521, -0.0392767
0.890625, -0.5, 0.2861328, 92.1951218, -27.560976, 23.1097565, -0.0433051
0.8916016, -0.4960938, 0.2885742, 92.9878082, -27.3780499, 23.4756107, -0.0419623
0.8833008, -0.4946289, 0.2832031, 94.5731735, -27.1951218, 24.1463413, -0.0433051
0.8842773, -0.4936523, 0.2773438, 95.2439041, -27.0121956, 24.7560978, -0.0436408
0.8818359, -0.4931641, 0.2709961, 96.7073212, -27.4390259, 26.0365868, -0.0486763
0.8842773, -0.4995117, 0.2666016, 97.3170776, -27.3170738, 26.4634151, -0.0486763
0.8896484, -0.4985352, 0.2661133, 97.3780518, -27.2560978, 27.4390259, -0.0500191
0.8955078, -0.5004883, 0.2822266, 97.1341476, -26.4024391, 28.5365868, -0.0419623
0.9052734, -0.5009766, 0.296875, 97.3780518, -25.9146347, 29.0853672, -0.0466621
0.9082031, -0.4990234, 0.3320312, 98.0487823, -25.1219521, 29.5121956, -0.0459907
0.9174805, -0.4975586, 0.3491211, 98.7195129, -24.6341476, 29.8170738, -0.0446479
0.9228516, -0.4912109, 0.3764648, 101.9512253, -24.0243912, 29.3902454, -0.0500191
0.9262695, -0.4916992, 0.3881836, 103.9634171, -23.6585369, 29.1463413, -0.0500191
0.9248047, -0.4946289, 0.359375, 109.0243912, -24.2682934, 28.1097565, -0.0527047
0.9311523, -0.4975586, 0.3295898, 110.9756088, -25.4268303, 27.7439022, -0.0473335
0.9492188, -0.4760742, 0.3168945, 111.1585388, -25.7317085, 26.4634151, -0.0459907
0.9624023, -0.4526367, 0.3920898, 109.5731735, -22.560976, 26.0975609, -0.0473335
0.9584961, -0.4560547, 0.4355469, 107.8658524, -13.7195129, 27.4390259, -0.0473335
0.9355469, -0.4902344, 0.5004883, 113.8414688, -11.341464, 30.3658543, -0.0473335
0.9277344, -0.5058594, 0.5073242, 120.36586, -14.6341467, 31.280489, -0.0453193
0.9365234, -0.5039062, 0.4477539, 129.9390259, -25.8536587, 30.3048782, -0.0527047
0.9487305, -0.4760742, 0.4023438, 127.3170776, -30.060976, 28.780489, -0.0540475
0.9765625, -0.3857422, 0.3413086, 110, -31.7682934, 24.1463413, -0.0476692
0.9892578, -0.3237305, 0.3364258, 100.7317123, -30.3658543, 21.1585369, -0.0520333
0.9897461, -0.1953125, 0.3525391, 89.0853653, -25.5487804, 13.9024391, -0.0453193
0.972168, -0.1533203, 0.3588867, 86.0975647, -22.3170738, 11.0365858, -0.0433051
0.9033203, -0.1264648, 0.3422852, 78.4146347, -16.7073174, 10, -0.0392767
0.8461914, -0.1831055, 0.3100586, 73.1707306, -14.6951227, 12.5, -0.0396124
0.8398438, -0.2265625, 0.296875, 59.6341476, -12.9268293, 21.8292694, -0.0406195
0.8535156, -0.3261719, 0.3032227, 47.9268303, -13.4146347, 31.4024391, -0.0399481
0.8764648, -0.3676758, 0.3183594, 43.1097565, -13.2317076, 34.3902435, -0.0379339
0.9223633, -0.4199219, 0.3769531, 37.1341476, -12.560976, 34.8780479, -0.0412909
0.9384766, -0.4453125, 0.4116211, 35.9756088, -12.8048782, 32.8048782, -0.0386053
0.9536133, -0.4677734, 0.4726562, 36.9512215, -15.4878054, 25.9756107, -0.0386053
0.953125, -0.4682617, 0.4916992, 39.5731735, -17.8048782, 22.1341476, -0.0419623
0.9394531, -0.4624023, 0.4985352, 47.4390259, -23.1097565, 15.8536587, -0.0449836
0.9321289, -0.4545898, 0.4912109, 51.8292694, -24.6951218, 13.4146347, -0.0453193
0.9140625, -0.4414062, 0.4511719, 59.3902435, -25.9756107, 11.6463413, -0.0406195
0.9057617, -0.4296875, 0.394043, 61.5243912, -26.2195129, 12.0731707, -0.0399481
0.9038086, -0.4316406, 0.3671875, 62.9268303, -26.4634151, 13.780488, -0.0486763
0.9111328, -0.4370117, 0.3198242, 60.6707344, -28.6585369, 15.4268293, -0.0419623
0.9194336, -0.4428711, 0.3046875, 59.0243912, -30.060976, 15.3048782, -0.0406195
0.9458008, -0.4526367, 0.2924805, 55.4878044, -32.9268303, 14.5121956, -0.0439765
0.9594727, -0.4580078, 0.2885742, 54.2682953, -34.0243912, 14.0243902, -0.0406195
0.9780273, -0.4555664, 0.2641602, 50.9756126, -34.2073174, 11.4634151, -0.0419623
0.9833984, -0.4501953, 0.2460938, 48.6585388, -33.9024391, 10.5487804, -0.0433051
1.0004883, -0.4296875, 0.2304688, 42.5609779, -34.5731697, 9.5121956, -0.0446479
1.0229492, -0.409668, 0.2368164, 40.2439041, -35.1829262, 8.9634151, -0.0463264
1.0498047, -0.3583984, 0.2714844, 38.5975609, -34.8170738, 7.8048782, -0.0433051
1.0869141, -0.2910156, 0.3061523, 38.841465, -32.9268303, 7.3780489, -0.0379339
1.0991211, -0.2641602, 0.309082, 39.6341476, -26.2195129, 6.5243902, -0.0436408
1.112793, -0.2148438, 0.3139648, 39.5121956, -18.8414631, 6.0975609, -0.0446479
1.1098633, -0.1943359, 0.3071289, 38.4756088, -15.3658543, 6.3414636, -0.0409552
1.1083984, -0.1674805, 0.2978516, 35.3658562, -10.060976, 6.5243902, -0.0486763
1.0966797, -0.1616211, 0.2919922, 33.2317085, -7.8658538, 6.7682929, -0.0493477
1.0864258, -0.1630859, 0.2929688, 27.9268303, -2.804878, 7.8048782, -0.0446479
1.0727539, -0.1679688, 0.3012695, 25.4268303, -0.1829268, 8.2926826, -0.0446479
1.0429688, -0.1889648, 0.3266602, 20.4878044, 5.3658538, 8.4146347, -0.0372625
1.0253906, -0.2021484, 0.3432617, 18.1097565, 7.8048782, 8.2926826, -0.0392767
0.9829102, -0.237793, 0.3808594, 14.5121956, 10.8536587, 7.6829271, -0.0412909
0.9321289, -0.2875977, 0.4077148, 10.5487804, 11.0365858, 7.3780489, -0.0365911
0.9106445, -0.3149414, 0.4155273, 8.5365858, 10.3658543, 7.6829271, -0.0382696
0.8823242, -0.3530273, 0.4282227, 5.1829271, 8.4146347, 8.4146347, -0.0379339
0.8706055, -0.3662109, 0.4360352, 3.2926829, 7.6829271, 8.841464, -0.0386053
0.859375, -0.3867188, 0.449707, 1.5243902, 6.0365853, 9.6341467, -0.0396124
0.8579102, -0.3886719, 0.4628906, 1.1585366, 5.0609756, 9.9390249, -0.0406195
0.8662109, -0.3798828, 0.4770508, 3.1097562, 3.0487804, 8.6585369, -0.0339055
0.8720703, -0.3774414, 0.4726562, 4.5731707, 2.5, 7.8658538, -0.0339055
0.8720703, -0.3579102, 0.4365234, 8.1707315, 1.8902439, 5.7317076, -0.0386053
0.8676758, -0.3530273, 0.4135742, 9.6951218, 2.0731707, 4.7560978, -0.0399481
0.8574219, -0.3466797, 0.3461914, 10.8536587, 2.2560976, 3.6585367, -0.0449836
0.8383789, -0.3466797, 0.2875977, 10.7926836, 1.1585366, 3.9024391, -0.0473335
0.8266602, -0.3457031, 0.2583008, 10.4878054, -0.4268293, 4.5121951, -0.0386053
0.8105469, -0.3637695, 0.2231445, 9.2073174, -4.8170733, 6.3414636, -0.0386053
0.8134766, -0.3740234, 0.2089844, 8.3536587, -7.5, 7.4390244, -0.0433051
0.8212891, -0.4042969, 0.1875, 7.4390244, -12.2560978, 8.9024391, -0.0459907
0.8203125, -0.4228516, 0.1762695, 7.7439027, -14.3902445, 9.2682924, -0.0392767
0.8349609, -0.4575195, 0.1547852, 8.841464, -16.8902435, 10.4878054, -0.0419623
0.8457031, -0.46875, 0.1489258, 10.2439022, -17.7439022, 10.4268293, -0.0379339
0.8642578, -0.4882812, 0.1298828, 14.0243902, -19.1463413, 10.4268293, -0.0365911
0.8769531, -0.4887695, 0.1210938, 16.2195129, -19.3902435, 10.060976, -0.0352483
0.8925781, -0.4829102, 0.1040039, 21.2195129, -20.1829281, 9.3292685, -0.0406195
0.8989258, -0.4741211, 0.0795898, 25.9146347, -21.0975609, 8.0487804, -0.0406195
0.9033203, -0.4604492, 0.0673828, 28.1707325, -21.0365868, 7.6829271, -0.0359197
0.8964844, -0.4418945, 0.0522461, 31.5243912, -21.5853672, 7.8048782, -0.0379339
0.8959961, -0.4379883, 0.0449219, 33.2317085, -21.8292694, 7.5609756, -0.0386053
0.8935547, -0.4233398, 0.0395508, 34.8170738, -22.6219521, 7.6219516, -0.0342412
0.887207, -0.4160156, 0.0380859, 35.4878044, -22.9878063, 7.6829271, -0.0305486
0.8769531, -0.4003906, 0.0488281, 37.1951218, -23.780489, 7.6219516, -0.0369268
0.8769531, -0.394043, 0.0473633, 37.8048782, -24.5731716, 7.3780489, -0.0412909
0.8691406, -0.3935547, 0.0473633, 38.3536606, -26.5853672, 5.9146342, -0.0372625
0.8647461, -0.3891602, 0.0444336, 38.1707344, -27.9268303, 5, -0.0325628
0.8652344, -0.3789062, 0.050293, 37.0121956, -30.2439022, 3.5975611, -0.0412909
0.8706055, -0.3569336, 0.078125, 35.7317085, -32.0121956, 1.6463414, -0.0406195
0.8764648, -0.3398438, 0.1035156, 35.4268303, -32.6219521, 0.8536586, -0.0332341
0.8867188, -0.3041992, 0.1538086, 35.6097565, -33.1097565, -0.7317073, -0.0305486
0.894043, -0.2900391, 0.1733398, 35.7317085, -33.4146347, -1.6463414, -0.0352483
0.9082031, -0.2485352, 0.2016602, 35.3048782, -33.2926826, -3.9024391, -0.0345769
0.9106445, -0.2304688, 0.2133789, 35, -33.2926826, -4.7560978, -0.0298772
0.9326172, -0.1875, 0.2280273, 33.5975609, -32.9268303, -6.5853658, -0.0285344
0.9394531, -0.1669922, 0.237793, 32.3170738, -32.6219521, -7.6219516, -0.0332341
0.9648438, -0.1210938, 0.2631836, 29.4512196, -32.7439041, -9.6951218, -0.0332341
0.9707031, -0.1035156, 0.2763672, 27.7439022, -32.5609779, -10.5487804, -0.027863
0.9887695, -0.0795898, 0.2866211, 23.9634151, -32.1951218, -12.3170738, -0.0305486
0.9916992, -0.081543, 0.2832031, 19.8170738, -30, -12.7439032, -0.0325628
0.987793, -0.0810547, 0.277832, 17.560976, -28.4756107, -12.9268293, -0.0386053
0.9799805, -0.09375, 0.2749023, 12.3780489, -26.5853672, -12.6219511, -0.0372625
0.9760742, -0.1000977, 0.2744141, 9.0853662, -26.0365868, -12.2560978, -0.0365911
0.9741211, -0.1186523, 0.2758789, 1.1585366, -25.6707325, -11.4634151, -0.0339055
0.9711914, -0.1347656, 0.2783203, -3.7195122, -25.6097565, -10.6707315, -0.0359197
0.9667969, -0.1699219, 0.2861328, -15.1829271, -26.1585369, -9.8780489, -0.0513619
0.9697266, -0.1938477, 0.2915039, -21.1585369, -26.2195129, -9.5121956, -0.0406195
0.972168, -0.2509766, 0.3032227, -32.3170738, -26.8902454, -8.780488, -0.0318914
0.9711914, -0.2817383, 0.3085938, -37.7439041, -27.3780499, -8.780488, -0.0328985
0.9848633, -0.3339844, 0.3417969, -47.8048782, -27.2560978, -8.5365858, -0.0315557
1.0009766, -0.3828125, 0.3935547, -54.6951218, -26.6463413, -8.3536587, -0.0325628
1.0087891, -0.3999023, 0.4248047, -56.4634171, -26.7073174, -8.4756098, -0.0315557
1.0361328, -0.4277344, 0.4692383, -58.4146347, -26.5853672, -7.6829271, -0.0298772
1.0463867, -0.4418945, 0.484375, -58.9024391, -26.5243912, -7.3780489, -0.0352483
1.0693359, -0.4555664, 0.4882812, -58.3536606, -25.4878063, -7.5, -0.0399481
1.0761719, -0.4648438, 0.4804688, -57.8048782, -25.1219521, -7.5, -0.0382696
1.0668945, -0.4731445, 0.4521484, -57.9268303, -25.7926826, -8.3536587, -0.0379339
1.0605469, -0.4716797, 0.4370117, -58.4756126, -26.5853672, -8.9024391, -0.0459907
1.0463867, -0.4638672, 0.4140625, -62.0731735, -29.9390259, -9.6341467, -0.0446479
1.0361328, -0.4570312, 0.4116211, -64.3902435, -31.5853672, -9.9390249, -0.0392767
1.0239258, -0.4477539, 0.4101562, -69.2073212, -35.7317085, -9.8780489, -0.0419623
1.0170898, -0.4516602, 0.4057617, -72.8048782, -40.2439041, -9.7560978, -0.0392767
1.0112305, -0.449707, 0.4052734, -74.9390259, -42.0121956, -9.5121956, -0.0365911
1.0161133, -0.4458008, 0.4111328, -79.8170776, -45.3658562, -9.6951218, -0.0386053
1.0249023, -0.4506836, 0.4106445, -82.5, -47.3170738, -9.3902445, -0.0433051
1.0429688, -0.4682617, 0.418457, -87.68293, -51.6463432, -8.9634151, -0.042298
1.0581055, -0.480957, 0.4223633, -90.3658524, -53.0487823, -8.3536587, -0.0399481
1.0830078, -0.5166016, 0.4345703, -94.6951218, -55.7926826, -6.4634147, -0.0446479
1.0966797, -0.5390625, 0.4477539, -96.4634171, -56.5243912, -5, -0.0480049
1.1318359, -0.5761719, 0.487793, -97.9268341, -58.0487823, -1.7682927, -0.0449836
1.1552734, -0.5908203, 0.5087891, -97.5609741, -58.841465, -1.0365853, -0.0486763
1.1875, -0.6235352, 0.5625, -90.6097565, -58.7195129, -2.0121951, -0.0480049
1.2006836, -0.6254883, 0.6020508, -74.0853653, -54.2073174, -3.2317073, -0.0459907
1.1977539, -0.6191406, 0.605957, -64.0853653, -50.4878044, -4.0243902, -0.0446479
1.1743164, -0.5712891, 0.5786133, -41.8902435, -40.9756088, -6.4024391, -0.0419623
1.1503906, -0.5390625, 0.5454102, -31.280489, -35.7926826, -7.8658538, -0.0372625
1.1025391, -0.4643555, 0.4702148, -12.1341467, -26.280489, -10.7317076, -0.0453193
1.0722656, -0.4160156, 0.4248047, -3.9634147, -21.6463413, -11.8292685, -0.0513619
1.0078125, -0.3286133, 0.3325195, 9.0853662, -14.8170738, -14.0853662, -0.0520333
0.9726562, -0.2875977, 0.2929688, 13.4756098, -12.9268293, -14.8170738, -0.0493477
0.902832, -0.2138672, 0.2158203, 18.1707325, -12.560976, -15.6097565, -0.0493477
0.8754883, -0.1894531, 0.1782227, 18.7195129, -13.4146347, -15.3658543, -0.0453193
0.831543, -0.1640625, 0.1118164, 17.560976, -16.4024391, -14.5731707, -0.0500191
0.8154297, -0.175293, 0.0537109, 15.3048782, -21.8902435, -13.3536587, -0.0500191
0.8125, -0.1943359, 0.027832, 14.0243902, -25.1829281, -13.1097565, -0.0500191
0.8227539, -0.2299805, -0.0141602, 12.3170738, -32.0121956, -13.4756098, -0.0446479
0.8432617, -0.2519531, -0.0268555, 12.3780489, -35.2439041, -14.1463413, -0.0493477
0.8793945, -0.2973633, -0.0463867, 12.4390249, -40.4878044, -16.0975609, -0.0513619
0.8979492, -0.324707, -0.0566406, 12.8658543, -42.4390259, -16.9512196, -0.0453193
0.9384766, -0.3798828, -0.0742188, 13.6585369, -45.8536606, -17.6829281, -0.0476692
0.9560547, -0.4106445, -0.0756836, 13.1707315, -46.8902435, -17.2560978, -0.0513619
1.0102539, -0.4770508, -0.0654297, 14.1463413, -47.1951218, -14.7560978, -0.0500191
1.0371094, -0.5009766, -0.0512695, 15.7926836, -45.9756126, -13.2317076, -0.0530404
1.0834961, -0.5332031, -0.0273438, 21.5243912, -42.1341476, -9.7560978, -0.0527047
1.1362305, -0.5405273, -0.0126953, 28.780489, -37.3170738, -7.0731707, -0.0527047
1.1606445, -0.5307617, -0.0053711, 32.5, -34.2682953, -6.0365853, -0.0459907
1.1889648, -0.4667969, -0.0083008, 38.5975609, -26.7682934, -5, -0.0439765
1.1943359, -0.421875, -0.0009766, 40.9146347, -22.8658543, -4.8170733, -0.0463264
1.2006836, -0.3286133, 0.0117188, 44.0853653, -15.1829271, -3.9634147, -0.0480049
1.1972656, -0.2749023, 0.0146484, 44.6341476, -12.1341467, -3.6585367, -0.0433051
1.184082, -0.1835938, 0.0083008, 42.5609779, -7.3170733, -3.1097562, -0.0399481
1.1738281, -0.1459961, 0.0107422, 40.5487823, -5.3048782, -3.1707318, -0.0449836
1.1391602, -0.0947266, 0.0229492, 35, -3.1097562, -2.9878049, -0.0436408
1.1074219, -0.0830078, 0.0336914, 31.4634151, -2.8658538, -3.5365853, -0.0459907
1.0893555, -0.0942383, 0.0375977, 24.6951218, -4.2682929, -4.5121951, -0.0419623
1.0512695, -0.1435547, 0.0541992, 17.8048782, -5.609756, -5.4268293, -0.0473335
1.0336914, -0.1689453, 0.0722656, 14.0243902, -7.0121951, -5.670732, -0.0493477
1.0043945, -0.2280273, 0.125, 7.4390244, -9.6951218, -5.3658538, -0.0547189
0.9931641, -0.2617188, 0.1586914, 5.4268293, -10.8536587, -4.6951222, -0.0553902
0.987793, -0.3120117, 0.2226562, 3.4146342, -12.3780489, -3.4756098, -0.0540475
