Application:, Trigno Discover (1.6.5)
Date/Time:, 29/01/2025 16:25:42
Collection Length (seconds):, 40.6755
wrist (81457), , , , , , bicep (81139)
sensor mode: 609, , , , , , sensor mode: 40
ACC X (G), ACC Y (G), ACC Z (G), GYRO X (deg/s), GYRO Y (deg/s), GYRO Z (deg/s), EMG 1 (mV)
370.3704 Hz, 370.3704 Hz, 370.3704 Hz, 370.3704 Hz, 370.3704 Hz, 370.3704 Hz, 2148.1481 Hz
1.0004883, -0.0761719, -0.1108398, -17.1341476, -12.7439032, 4.8170733, -0.0409552
1.0068359, -0.0776367, -0.1044922, -19.1463413, -12.560976, 5, -0.0433051
1.0073242, -0.0786133, -0.1005859, -19.7560978, -12.3170738, 5.1829271, -0.0433051
1.0078125, -0.0854492, -0.0913086, -20, -12.1951218, 4.8780489, -0.0459907
1.0185547, -0.0878906, -0.0849609, -20.3658543, -11.9512196, 4.8780489, -0.0459907
1.0141602, -0.090332, -0.0678711, -20.9146347, -11.280488, 4.7560978, -0.0500191
1.0126953, -0.0883789, -0.0571289, -20.9756107, -11.1585369, 4.6341462, -0.0516976
1.0078125, -0.0854492, -0.0444336, -19.8780499, -10.6707315, 4.4512196, -0.0449836
1.0019531, -0.0849609, -0.034668, -17.5, -10.3048782, 3.7804878, -0.0486763
0.9970703, -0.0869141, -0.0307617, -16.4024391, -10.3048782, 3.6585367, -0.0486763
0.9985352, -0.0834961, -0.0224609, -13.5365858, -10.7317076, 2.9878049, -0.0553902
0.9960938, -0.0795898, -0.0214844, -11.9512196, -10.7926836, 2.9268293, -0.0513619
0.9941406, -0.0751953, -0.0185547, -8.780488, -11.5243902, 2.6219513, -0.0500191
0.996582, -0.0737305, -0.0268555, -7.1341467, -12.1341467, 2.3170731, -0.0533761
0.9970703, -0.0717773, -0.0336914, -4.0243902, -12.9268293, 2.3780489, -0.0520333
0.9990234, -0.0712891, -0.0439453, -2.3170731, -13.1707315, 2.3780489, -0.0466621
1.012207, -0.0717773, -0.0664062, -0.3658537, -13.841464, 2.5, -0.0513619
1.0102539, -0.0742188, -0.0786133, 0.2439024, -13.9024391, 2.6829269, -0.0513619
1.0136719, -0.065918, -0.0981445, -0.2439024, -13.7195129, 3.2317073, -0.0527047
1.0151367, -0.0600586, -0.1113281, -1.2804878, -12.9268293, 3.6585367, -0.0540475
1.0195312, -0.0571289, -0.1132812, -2.0121951, -12.4390249, 3.9024391, -0.0553902
1.0151367, -0.0463867, -0.1186523, -3.4756098, -11.280488, 4.2073174, -0.0530404
1.0126953, -0.0424805, -0.1162109, -4.7560978, -11.0365858, 4.5731707, -0.0486763
1.0117188, -0.0322266, -0.1176758, -7.8048782, -10.4268293, 5.2439027, -0.0426337
1.0083008, -0.0292969, -0.1157227, -9.0853662, -10.060976, 5.609756, -0.0473335
1.0019531, -0.0332031, -0.1074219, -11.8902445, -9.5121956, 5.670732, -0.0459907
0.9975586, -0.03125, -0.0996094, -13.2317076, -9.3292685, 5.9756098, -0.0473335
0.9931641, -0.0322266, -0.0917969, -15.5487804, -9.1463413, 5.9756098, -0.0476692
0.9873047, -0.0351562, -0.0864258, -16.5243912, -9.4512196, 6.0975609, -0.0463264
0.9755859, -0.0419922, -0.0766602, -17.8658543, -10.1829271, 6.4024391, -0.0459907
0.9731445, -0.0566406, -0.0698242, -18.1707325, -11.1585369, 6.4634147, -0.0506905
0.972168, -0.065918, -0.0688477, -17.9268303, -11.4634151, 6.5853658, -0.0473335
0.9760742, -0.0766602, -0.0717773, -16.7682934, -12.560976, 6.9512196, -0.0453193
0.9790039, -0.0834961, -0.0727539, -16.280489, -13.2317076, 6.8292685, -0.0466621
0.9848633, -0.0932617, -0.0761719, -15.1829271, -14.0243902, 7.2560978, -0.0473335
0.9858398, -0.0966797, -0.0756836, -15, -13.9634151, 7.5609756, -0.0473335
1.0039062, -0.1025391, -0.0795898, -13.9024391, -14.1463413, 7.8048782, -0.0493477
1.0068359, -0.1020508, -0.0771484, -13.2926836, -13.841464, 8.0487804, -0.0506905
1.0200195, -0.0927734, -0.0717773, -12.3780489, -13.3536587, 7.9268293, -0.0513619
1.0258789, -0.09375, -0.0708008, -11.4024391, -12.9268293, 7.9268293, -0.0500191
1.0273438, -0.081543, -0.0678711, -9.3292685, -11.7073174, 7.2560978, -0.0463264
1.0302734, -0.065918, -0.0620117, -6.5243902, -10.6097565, 6.5853658, -0.0486763
1.03125, -0.0576172, -0.0615234, -5.3658538, -10.1219511, 6.3414636, -0.0476692
1.0200195, -0.0507812, -0.0664062, -2.7439024, -9.1463413, 5.2439027, -0.0473335
1.0209961, -0.0488281, -0.0683594, -1.8902439, -9.0243902, 4.9390244, -0.0486763
1.0117188, -0.0395508, -0.0771484, -1.0365853, -8.1707315, 4.3292685, -0.0500191
1.0068359, -0.0400391, -0.0849609, -0.8536586, -8.2317076, 4.2073174, -0.0513619
0.9941406, -0.0395508, -0.0883789, -1.2195122, -7.5, 3.7195122, -0.0500191
0.9892578, -0.0419922, -0.0966797, -1.6463414, -7.5, 3.7195122, -0.0459907
0.9750977, -0.0380859, -0.1049805, -3.3536587, -6.7073174, 3.7195122, -0.0486763
0.965332, -0.0419922, -0.1054688, -4.4512196, -6.4634147, 3.9634147, -0.0459907
0.9506836, -0.0478516, -0.109375, -7.1341467, -7.0731707, 4.2073174, -0.0446479
0.9477539, -0.0561523, -0.1118164, -9.5121956, -8.5975609, 4.8780489, -0.0459907
0.940918, -0.0600586, -0.112793, -11.0365858, -9.4512196, 4.8170733, -0.0446479
0.9438477, -0.0688477, -0.1137695, -13.5365858, -11.4634151, 5.7926831, -0.0453193
0.9501953, -0.0717773, -0.1157227, -13.9634151, -12.3170738, 6.2195125, -0.0473335
0.9575195, -0.0795898, -0.112793, -15.6097565, -13.2926836, 7.0121951, -0.0459907
0.96875, -0.0795898, -0.1142578, -16.0365849, -13.4756098, 7.4390244, -0.0486763
0.9853516, -0.0708008, -0.1049805, -17.1341476, -13.2926836, 8.2926826, -0.0486763
0.9916992, -0.0732422, -0.1035156, -17.439024, -12.6829271, 8.5975609, -0.0453193
1.0043945, -0.0668945, -0.0883789, -17.6219521, -11.8292685, 8.9024391, -0.0473335
1.0073242, -0.0678711, -0.0795898, -17.3170738, -11.4634151, 8.6585369, -0.0459907
1.0175781, -0.0634766, -0.0717773, -15.2439032, -10.4268293, 8.1707315, -0.0439765
1.0219727, -0.0605469, -0.0654297, -12.6829271, -10.4268293, 7.2560978, -0.0419623
1.0185547, -0.0610352, -0.0639648, -11.5853662, -10.2439022, 6.7682929, -0.0409552
1.015625, -0.0566406, -0.0620117, -9.6341467, -9.5121956, 5.4268293, -0.0419623
1.0102539, -0.0571289, -0.0649414, -8.4756098, -9.1463413, 4.8170733, -0.0409552
0.9946289, -0.0595703, -0.0698242, -6.5853658, -8.3536587, 4.0853658, -0.0412909
0.9902344, -0.0610352, -0.0761719, -6.0975609, -8.2317076, 3.7804878, -0.0392767
0.9819336, -0.0644531, -0.081543, -4.6951222, -7.9268293, 3.4146342, -0.0372625
0.9770508, -0.0678711, -0.0830078, -3.7804878, -8.1707315, 3.4146342, -0.0339055
0.9692383, -0.0717773, -0.0966797, -2.7439024, -9.0243902, 4.0243902, -0.0352483
0.9638672, -0.0673828, -0.1030273, -2.9878049, -9.3902445, 4.390244, -0.035584
0.9643555, -0.0708008, -0.1123047, -3.5975611, -10.7317076, 4.8780489, -0.0359197
0.9702148, -0.0664062, -0.1142578, -5.2439027, -11.6463413, 5.609756, -0.0352483
0.9765625, -0.0712891, -0.1186523, -6.2195125, -11.9512196, 5.9756098, -0.03122
0.9873047, -0.0683594, -0.1176758, -7.6829271, -12.3780489, 6.3414636, -0.0325628
0.9907227, -0.0639648, -0.1152344, -8.2926826, -12.7439032, 6.4634147, -0.0298772
0.9970703, -0.0639648, -0.112793, -9.9390249, -12.6829271, 6.5853658, -0.03122
1.0019531, -0.0605469, -0.1079102, -10.4878054, -12.4390249, 6.7073174, -0.0318914
1.0083008, -0.0581055, -0.0961914, -11.4024391, -12.4390249, 6.2195125, -0.0362554
1.0078125, -0.0600586, -0.0922852, -11.8292685, -12.3170738, 6.4634147, -0.0332341
1.0063477, -0.0634766, -0.0830078, -12.6829271, -12.3170738, 5.8536587, -0.0342412
1.0087891, -0.0683594, -0.0805664, -13.1097565, -12.1341467, 5.609756, -0.0379339
1.003418, -0.0766602, -0.0668945, -13.780488, -12.1341467, 4.7560978, -0.0419623
0.9916992, -0.0849609, -0.0581055, -12.9268293, -12.1951218, 4.1463413, -0.0406195
0.9887695, -0.0839844, -0.0522461, -12.1951218, -11.8292685, 3.7804878, -0.0392767
0.9804688, -0.0844727, -0.0395508, -9.3292685, -12.2560978, 3.0487804, -0.035584
0.980957, -0.0844727, -0.0390625, -7.5, -12.6829271, 2.804878, -0.0406195
0.9775391, -0.0849609, -0.0371094, -4.1463413, -13.5975609, 2.4390244, -0.042298
0.9838867, -0.0810547, -0.0385742, -2.8658538, -14.1463413, 2.5, -0.0439765
0.9858398, -0.0693359, -0.043457, 0.8536586, -14.5731707, 2.3780489, -0.0426337
0.9936523, -0.065918, -0.0517578, 2.804878, -14.9390249, 2.3780489, -0.0399481
0.9990234, -0.0537109, -0.0654297, 6.5853658, -15, 2.195122, -0.0392767
1.0126953, -0.0478516, -0.0913086, 8.719512, -15.060976, 1.7682927, -0.0406195
1.0219727, -0.0419922, -0.1064453, 11.5243902, -14.5121956, 1.2804878, -0.0379339
1.0307617, -0.0410156, -0.1391602, 12.4390249, -13.7195129, 0.6707317, -0.0392767
1.0307617, -0.0356445, -0.1542969, 12.0731707, -12.9878054, 0.3658537, -0.0412909
1.0244141, -0.0375977, -0.1772461, 9.6951218, -11.4024391, -0.5487805, -0.0399481
1.0180664, -0.0302734, -0.1870117, 7.6829271, -10.4268293, -0.6097561, -0.0386053
1.0004883, -0.0268555, -0.1948242, 4.0853658, -8.1707315, -0.4268293, -0.0352483
0.9897461, -0.0219727, -0.1987305, 2.0731707, -7.5, -0.1219512, -0.0392767
0.9726562, -0.0161133, -0.1943359, -2.195122, -6.4634147, 0.7317073, -0.0342412
0.9614258, -0.0117188, -0.1953125, -4.8170733, -6.8292685, 1.2195122, -0.0379339
0.9541016, -0.0175781, -0.190918, -9.8170738, -7.5609756, 2.804878, -0.0352483
0.9448242, -0.0244141, -0.1772461, -12.4390249, -8.1097565, 3.7195122, -0.0325628
0.9423828, -0.0288086, -0.1713867, -17.0731716, -9.2682924, 5.609756, -0.0352483
0.9506836, -0.0395508, -0.1660156, -21.0975609, -10.9756098, 7.5609756, -0.0339055
0.9536133, -0.0405273, -0.1582031, -22.8658543, -11.6463413, 7.9878049, -0.0332341
0.9731445, -0.0507812, -0.1430664, -25.9756107, -12.6219511, 9.4512196, -0.0372625
0.9790039, -0.0556641, -0.1362305, -26.8292694, -12.8658543, 9.8170738, -0.0352483
0.9941406, -0.0561523, -0.112793, -28.4146347, -13.2926836, 10.4268293, -0.0352483
1.0043945, -0.0571289, -0.1015625, -28.9634151, -12.9878054, 10.5487804, -0.0365911
1.0244141, -0.0546875, -0.0849609, -28.0487804, -12.3780489, 10.4878054, -0.0342412
1.0297852, -0.0546875, -0.0751953, -27.0121956, -12.0121956, 10.2439022, -0.0386053
1.0366211, -0.0595703, -0.0629883, -24.0243912, -11.280488, 9.0853662, -0.0446479
1.0429688, -0.0625, -0.0537109, -19.5731716, -10.3658543, 7.9268293, -0.0406195
1.0444336, -0.0620117, -0.050293, -16.7682934, -9.9390249, 7.0731707, -0.0419623
1.0410156, -0.0615234, -0.0532227, -11.1585369, -9.6341467, 5.3048782, -0.0439765
1.0395508, -0.0600586, -0.0595703, -9.0243902, -9.1463413, 4.3292685, -0.0446479
1.0258789, -0.0629883, -0.0712891, -5.1829271, -8.5975609, 3.0487804, -0.0446479
1.0219727, -0.0649414, -0.0825195, -3.8414636, -8.3536587, 2.3780489, -0.0433051
1.0107422, -0.0605469, -0.0961914, -1.8292683, -8.1097565, 1.8292683, -0.0473335
1.0078125, -0.0610352, -0.1069336, -1.1585366, -8.4146347, 1.8292683, -0.0486763
0.9990234, -0.0556641, -0.1235352, -0.6707317, -8.5365858, 2.195122, -0.0506905
0.9941406, -0.0541992, -0.128418, -1.0365853, -8.5975609, 2.6219513, -0.0500191
0.9946289, -0.046875, -0.1391602, -2.6829269, -8.9634151, 3.6585367, -0.0547189
0.9960938, -0.0385742, -0.1508789, -5.1219511, -8.9634151, 4.4512196, -0.0594186
0.996582, -0.03125, -0.15625, -6.6463418, -9.0243902, 4.6951222, -0.0570687
0.9995117, -0.0268555, -0.152832, -10.3048782, -9.2682924, 5.4878049, -0.0587472
0.9995117, -0.0229492, -0.1533203, -12.3170738, -9.0853662, 5.4878049, -0.056733
0.9985352, -0.0185547, -0.1464844, -16.0365849, -9.2682924, 6.0365853, -0.0594186
0.9946289, -0.0185547, -0.1396484, -17.8048782, -9.2682924, 6.280488, -0.0607614
0.9941406, -0.0234375, -0.1293945, -20.6707325, -9.3902445, 6.8292685, -0.0594186
0.9946289, -0.0234375, -0.1210938, -21.5853672, -9.6341467, 7.1951222, -0.0574044
0.9882812, -0.034668, -0.1142578, -22.6219521, -9.9390249, 7.3780489, -0.0540475
0.9887695, -0.0371094, -0.1162109, -23.3536587, -10.060976, 7.5609756, -0.056733
0.9897461, -0.0507812, -0.1113281, -24.1463413, -10.3048782, 7.3170733, -0.0560616
0.9853516, -0.065918, -0.109375, -24.3902435, -10.5487804, 7.1951222, -0.0486763
0.9892578, -0.0698242, -0.1044922, -24.2682934, -10.7317076, 7.2560978, -0.0520333
0.987793, -0.0854492, -0.1044922, -23.3536587, -11.0975609, 7.3170733, -0.056733
0.9863281, -0.0874023, -0.1054688, -22.6219521, -11.280488, 7.2560978, -0.0527047
0.9946289, -0.0883789, -0.0986328, -20.9146347, -11.280488, 7.0731707, -0.0540475
0.9980469, -0.0888672, -0.0991211, -20.1829281, -11.1585369, 6.9512196, -0.0503548
1.0053711, -0.0795898, -0.09375, -18.3536587, -10.7926836, 6.7682929, -0.0459907
1.0063477, -0.0761719, -0.0927734, -17.6829281, -10.4268293, 6.4634147, -0.0436408
1.0126953, -0.0615234, -0.0898438, -16.0975609, -10.060976, 5.8536587, -0.0433051
1.0112305, -0.0600586, -0.0874023, -15.6097565, -9.5731707, 5.609756, -0.0459907
1.019043, -0.0556641, -0.0893555, -13.780488, -9.4512196, 4.2682929, -0.0446479
1.015625, -0.0512695, -0.0917969, -12.5, -8.9634151, 3.6585367, -0.0453193
1.0131836, -0.0478516, -0.0913086, -12.0121956, -8.2317076, 3.4756098, -0.0433051
1.0087891, -0.050293, -0.1010742, -11.0975609, -8.4146347, 2.4390244, -0.0412909
1.003418, -0.050293, -0.1030273, -10.8536587, -8.1097565, 2.195122, -0.0466621
0.987793, -0.0517578, -0.1176758, -11.0365858, -8.2317076, 1.7073171, -0.0379339
0.9848633, -0.0527344, -0.1186523, -11.7682934, -8.3536587, 2.0121951, -0.0396124
0.9746094, -0.0600586, -0.1269531, -13.1707315, -8.2317076, 1.402439, -0.0406195
0.9702148, -0.059082, -0.1274414, -14.2073174, -8.3536587, 1.8292683, -0.0372625
0.9697266, -0.0576172, -0.1274414, -15.4268293, -8.9024391, 2.3780489, -0.0426337
0.9658203, -0.0522461, -0.1210938, -16.0975609, -9.2682924, 2.6829269, -0.0419623
0.9667969, -0.050293, -0.1210938, -16.7682934, -10.060976, 3.4756098, -0.0466621
0.9775391, -0.0517578, -0.1220703, -17.439024, -11.0365858, 4.2073174, -0.0486763
0.9780273, -0.050293, -0.1230469, -17.8048782, -11.219512, 4.5121951, -0.0449836
0.9946289, -0.0527344, -0.1274414, -18.4756107, -11.280488, 4.8780489, -0.0453193
0.9970703, -0.0458984, -0.1245117, -18.5975609, -10.8536587, 4.9390244, -0.0419623
1.0087891, -0.0429688, -0.1210938, -19.5121956, -10.1219511, 4.7560978, -0.0426337
1.0131836, -0.0400391, -0.1191406, -19.3292694, -9.5731707, 4.7560978, -0.0446479
1.0126953, -0.0351562, -0.1166992, -19.6341476, -8.5975609, 4.1463413, -0.0466621
1.0087891, -0.0356445, -0.1157227, -20.1219521, -8.1707315, 4.2073174, -0.0469978
1.0058594, -0.0390625, -0.1181641, -20.4878044, -7.9268293, 3.5975611, -0.0486763
0.9995117, -0.0429688, -0.1123047, -20.6707325, -7.8048782, 3.4756098, -0.0486763
0.9941406, -0.0537109, -0.1147461, -20.5487804, -7.9878049, 3.4756098, -0.0486763
0.9794922, -0.0595703, -0.1166992, -20.6097565, -8.2317076, 3.4146342, -0.0506905
0.9804688, -0.0581055, -0.1181641, -21.0975609, -8.1097565, 3.6585367, -0.0520333
0.9799805, -0.0664062, -0.1176758, -21.8292694, -8.719512, 3.7195122, -0.0520333
0.9780273, -0.0639648, -0.1142578, -22.439024, -8.9634151, 3.8414636, -0.0547189
0.9819336, -0.0732422, -0.1108398, -23.9024391, -9.3292685, 3.8414636, -0.0500191
0.9819336, -0.0708008, -0.1044922, -24.2682934, -9.5731707, 3.9024391, -0.0473335
0.9868164, -0.0664062, -0.0942383, -25, -9.5121956, 3.9634147, -0.0459907
0.9838867, -0.0639648, -0.0859375, -24.8780499, -9.5731707, 3.7804878, -0.0500191
0.9858398, -0.0693359, -0.0786133, -23.5365868, -9.6341467, 3.8414636, -0.049012
0.987793, -0.0703125, -0.0751953, -22.7439022, -10, 3.5975611, -0.0500191
0.9985352, -0.0766602, -0.0756836, -20.1219521, -10.7317076, 2.9878049, -0.0486763
1.0019531, -0.0742188, -0.0756836, -17.6219521, -10.9146347, 2.3170731, -0.0493477
1.0019531, -0.074707, -0.0795898, -16.5853653, -10.9756098, 2.2560976, -0.0513619
1.0043945, -0.0742188, -0.0864258, -15, -10.9146347, 1.8902439, -0.0463264
1.0107422, -0.0708008, -0.0913086, -13.9634151, -10.6097565, 1.2195122, -0.0392767
1.0117188, -0.0683594, -0.0961914, -12.7439032, -10.3048782, 1.402439, -0.0426337
1.0151367, -0.0600586, -0.1010742, -12.2560978, -10.1829271, 1.2804878, -0.0406195
1.0136719, -0.0444336, -0.1025391, -10.9756098, -9.0243902, 1.2804878, -0.0419623
1.0136719, -0.0419922, -0.1054688, -10.3658543, -8.3536587, 0.9146342, -0.0433051
1.0102539, -0.0307617, -0.1118164, -9.5731707, -7.3780489, 0.8536586, -0.0446479
1.0043945, -0.0297852, -0.1137695, -9.2682924, -6.7682929, 0.6707317, -0.0426337
0.9960938, -0.0253906, -0.1333008, -9.8170738, -6.5853658, 0.3048781, -0.0433051
0.9887695, -0.0268555, -0.1450195, -11.280488, -7.1951222, 0.2439024, -0.0453193
0.9863281, -0.0292969, -0.1503906, -12.6219511, -7.4390244, 0.3658537, -0.0466621
0.9736328, -0.0380859, -0.1582031, -16.7682934, -7.8048782, 0.8536586, -0.049012
0.9697266, -0.0419922, -0.159668, -18.9634151, -7.7439027, 1.0365853, -0.0486763
0.9614258, -0.0517578, -0.15625, -23.1707325, -7.5609756, 2.0731707, -0.0459907
0.9633789, -0.0532227, -0.1469727, -24.7560978, -7.3780489, 2.5609756, -0.0379339
0.956543, -0.0585938, -0.1396484, -27.6829281, -8.0487804, 3.5365853, -0.0406195
0.9580078, -0.0595703, -0.1362305, -28.841465, -8.0487804, 3.9634147, -0.0439765
0.9594727, -0.0712891, -0.1171875, -30.3658543, -9.0853662, 4.8170733, -0.0449836
0.9663086, -0.0727539, -0.1088867, -30.1829281, -9.4512196, 4.7560978, -0.0439765
0.9760742, -0.0756836, -0.0981445, -28.9634151, -9.8780489, 5.0609756, -0.0406195
0.987793, -0.0722656, -0.0898438, -28.1707325, -10.3048782, 4.7560978, -0.0433051
0.9907227, -0.065918, -0.0825195, -27.3780499, -10.3658543, 4.3292685, -0.0466621
1.0004883, -0.065918, -0.0756836, -26.3414631, -9.7560978, 3.7804878, -0.0459907
1.0029297, -0.0625, -0.0698242, -25.4268303, -9.5121956, 3.2926829, -0.0419623
1.0083008, -0.0595703, -0.0620117, -22.9268303, -9.5121956, 2.804878, -0.0406195
1.0092773, -0.059082, -0.0634766, -21.5853672, -9.3902445, 2.2560976, -0.0406195
1.0161133, -0.0585938, -0.065918, -18.4756107, -9.6341467, 1.7682927, -0.0433051
1.0175781, -0.0571289, -0.0683594, -17.1341476, -9.6341467, 1.7682927, -0.0419623
1.0175781, -0.0566406, -0.0732422, -14.1463413, -8.841464, 0.5487805, -0.0439765
1.0219727, -0.0556641, -0.0825195, -12.8658543, -8.5365858, 0.3658537, -0.0409552
1.0195312, -0.0537109, -0.1005859, -10.7317076, -7.8658538, -0.1829268, -0.0352483
1.0219727, -0.0493164, -0.1137695, -9.7560978, -6.7682929, -0.6707317, -0.0406195
1.0224609, -0.0483398, -0.1162109, -9.4512196, -6.1585369, -0.8536586, -0.0426337
1.0087891, -0.0380859, -0.1254883, -9.6341467, -5.4878049, -0.9756098, -0.0433051
0.9995117, -0.0375977, -0.1318359, -9.5731707, -5, -0.6707317, -0.0446479
0.996582, -0.0244141, -0.1357422, -10.3048782, -4.5121951, -0.4878049, -0.0406195
0.9912109, -0.0239258, -0.1420898, -11.4634151, -4.5121951, -0.4268293, -0.0406195
0.9760742, -0.0214844, -0.1523438, -14.9390249, -4.5731707, 0.1219512, -0.0406195
0.9707031, -0.0209961, -0.1508789, -17.0731716, -5.0609756, 0.7926829, -0.0419623
0.9672852, -0.0283203, -0.1542969, -22.3170738, -5.7317076, 1.5853659, -0.0473335
0.9619141, -0.0361328, -0.1469727, -25.060976, -6.4634147, 2.0121951, -0.0459907
0.9604492, -0.0385742, -0.1430664, -29.7560978, -7.8048782, 3.1097562, -0.0453193
0.9628906, -0.0444336, -0.1298828, -32.9878044, -9.0243902, 3.9024391, -0.0500191
0.9677734, -0.0507812, -0.1235352, -34.5121956, -9.6341467, 4.2073174, -0.0459907
0.9785156, -0.0478516, -0.1083984, -35.9146347, -10.3658543, 5.2439027, -0.0449836
0.9882812, -0.0517578, -0.0981445, -36.4024391, -10.4268293, 5.4268293, -0.0473335
1.0043945, -0.0517578, -0.0849609, -35.3658562, -10.5487804, 6.0365853, -0.0436408
1.012207, -0.0512695, -0.078125, -34.2682953, -10.3048782, 5.9146342, -0.0365911
1.0302734, -0.0498047, -0.0688477, -30.8536587, -10, 5.4268293, -0.0386053
1.0405273, -0.0507812, -0.0727539, -29.0243912, -9.6951218, 5.1829271, -0.0406195
1.0424805, -0.0473633, -0.0732422, -25.3048782, -9.0243902, 4.2682929, -0.0433051
1.046875, -0.0512695, -0.0820312, -23.9634151, -8.841464, 3.7195122, -0.0392767
1.0517578, -0.0488281, -0.0869141, -21.2195129, -7.7439027, 2.6219513, -0.0372625
1.050293, -0.0449219, -0.0952148, -19.5731716, -6.7682929, 1.7073171, -0.0386053
1.0463867, -0.0429688, -0.0981445, -19.5121956, -6.280488, 1.402439, -0.0412909
1.0385742, -0.0366211, -0.0961914, -19.2073174, -5.0609756, 0.5487805, -0.0419623
1.0332031, -0.0361328, -0.0981445, -18.6585369, -4.6951222, 0.1829268, -0.0365911
1.0229492, -0.0351562, -0.1054688, -17.9268303, -4.3292685, -0.2439024, -0.0382696
1.0126953, -0.0371094, -0.112793, -17.8658543, -4.2682929, -0.1219512, -0.0419623
1.0009766, -0.034668, -0.1235352, -18.4146347, -4.2073174, 0.3658537, -0.0439765
0.9975586, -0.0385742, -0.125, -18.9634151, -4.1463413, 0.6707317, -0.0439765
0.9936523, -0.0351562, -0.1254883, -20.4268303, -3.9024391, 1.2804878, -0.0446479
0.9853516, -0.0361328, -0.1220703, -21.4024391, -3.9024391, 1.2804878, -0.0392767
0.9785156, -0.0332031, -0.1235352, -23.3536587, -4.2682929, 1.5243902, -0.0379339
0.9736328, -0.0253906, -0.121582, -25.3048782, -5.1219511, 1.7073171, -0.0359197
0.9736328, -0.0229492, -0.1181641, -26.6463413, -5.7926831, 2.3780489, -0.0406195
0.9741211, -0.0229492, -0.112793, -29.0853672, -7.4390244, 2.9878049, -0.0419623
0.9799805, -0.0244141, -0.1118164, -30, -8.0487804, 3.1707318, -0.0406195
0.9907227, -0.034668, -0.1137695, -30.9146347, -9.0243902, 3.7195122, -0.0379339
0.9921875, -0.0380859, -0.1123047, -30.6097565, -9.0243902, 3.7195122, -0.0446479
1.0117188, -0.0415039, -0.1137695, -31.4634151, -8.9024391, 4.0853658, -0.0453193
1.012207, -0.0439453, -0.1103516, -31.0365868, -8.4146347, 4.3292685, -0.0473335
1.0185547, -0.0439453, -0.1147461, -31.1585369, -7.2560978, 3.7804878, -0.0520333
1.0170898, -0.046875, -0.1118164, -29.9390259, -5.3048782, 3.4146342, -0.049012
1.0146484, -0.046875, -0.1098633, -29.6951218, -4.2073174, 3.1707318, -0.0486763
1.0039062, -0.0400391, -0.0996094, -29.5121956, -2.7439024, 2.804878, -0.0500191
0.9951172, -0.0390625, -0.1000977, -29.6341476, -1.9512196, 2.2560976, -0.0433051
0.9785156, -0.0317383, -0.0883789, -29.0243912, -1.1585366, 1.5243902, -0.0446479
0.972168, -0.0336914, -0.0874023, -28.5975609, -0.7926829, 1.2804878, -0.0446479
0.9570312, -0.0380859, -0.0908203, -27.9878063, -1.402439, 0.7926829, -0.0463264
0.9516602, -0.043457, -0.0913086, -27.6219521, -1.8902439, 0.7317073, -0.0406195
0.9379883, -0.0507812, -0.0981445, -27.7439022, -3.1097562, 0.7317073, -0.0412909
0.9379883, -0.0546875, -0.1035156, -28.1097565, -3.9024391, 1.0365853, -0.0459907
0.9360352, -0.0581055, -0.1108398, -29.7560978, -4.5121951, 1.3414634, -0.0453193
0.9433594, -0.0629883, -0.1098633, -31.5853672, -4.7560978, 1.5243902, -0.0426337
0.9428711, -0.0639648, -0.1049805, -32.4390259, -4.390244, 1.4634147, -0.042298
0.9433594, -0.059082, -0.0952148, -32.8658562, -4.2073174, 1.402439, -0.0433051
0.9506836, -0.0546875, -0.0913086, -32.5609779, -4.0853658, 1.4634147, -0.0419623
0.9541016, -0.0429688, -0.0810547, -31.4024391, -3.8414636, 1.6463414, -0.0406195
0.9604492, -0.0336914, -0.0820312, -30.1829281, -3.7195122, 1.7073171, -0.0426337
0.9697266, -0.0273438, -0.0849609, -27.9878063, -3.9634147, 1.2804878, -0.0352483
0.9731445, -0.0283203, -0.0898438, -27.0731716, -4.0243902, 1.3414634, -0.0359197
0.9804688, -0.0283203, -0.1083984, -25.4878063, -3.6585367, 0.9756098, -0.0433051
0.9848633, -0.0332031, -0.1186523, -24.8780499, -3.3536587, 0.6097561, -0.0433051
0.9868164, -0.0385742, -0.1308594, -24.3902435, -2.2560976, 0.1829268, -0.0409552
0.9804688, -0.0405273, -0.1416016, -25.7926826, -0.1219512, -0.4878049, -0.0339055
0.9726562, -0.0351562, -0.1464844, -26.5853672, 0.9756098, -0.7926829, -0.0325628
0.9599609, -0.0332031, -0.144043, -28.0487804, 3.4756098, -0.7926829, -0.0372625
0.9521484, -0.0317383, -0.1435547, -28.4756107, 4.0853658, -0.9146342, -0.0412909
0.934082, -0.0229492, -0.1386719, -28.3536587, 5, -0.2439024, -0.0433051
0.9267578, -0.0131836, -0.137207, -28.9024391, 5.3658538, 0.1219512, -0.0446479
0.9208984, -0.0092773, -0.1357422, -30.7317085, 5.4268293, 1.097561, -0.0433051
0.9179688, -0.0087891, -0.1352539, -31.6463413, 5.3048782, 1.4634147, -0.0406195
0.9145508, -0.0131836, -0.1416016, -34.5731697, 5.1829271, 2.3780489, -0.0433051
0.9208984, -0.015625, -0.1455078, -36.0975609, 4.6951222, 3.1097562, -0.0446479
0.9243164, -0.0249023, -0.1469727, -40.2439041, 4.1463413, 4.0243902, -0.0433051
0.9267578, -0.0380859, -0.1352539, -45.6097565, 4.2073174, 5.0609756, -0.0473335
0.9287109, -0.0371094, -0.1323242, -48.5365868, 4.7560978, 5.5487804, -0.0486763
0.9389648, -0.0424805, -0.1113281, -53.841465, 5.1829271, 5.9756098, -0.0486763
0.9404297, -0.0454102, -0.0986328, -55.6097565, 5.609756, 6.3414636, -0.0459907
0.9418945, -0.0458984, -0.0639648, -56.7073174, 6.3414636, 6.5853658, -0.0500191
0.9418945, -0.0415039, -0.0522461, -55.7317085, 6.890244, 6.7073174, -0.0419623
0.9423828, -0.0419922, -0.0322266, -53.5975609, 7.3170733, 6.280488, -0.0406195
0.9443359, -0.0454102, -0.0283203, -52.6829262, 7.1951222, 6.280488, -0.0382696
0.9448242, -0.0581055, -0.0185547, -51.1585388, 7.1341467, 5.5487804, -0.0433051
0.9433594, -0.0703125, -0.019043, -50.6097565, 6.5853658, 4.7560978, -0.0493477
0.9418945, -0.0913086, -0.0195312, -49.8170738, 5.5487804, 4.0243902, -0.0513619
0.9462891, -0.1108398, -0.0175781, -48.4146347, 4.5731707, 3.0487804, -0.0473335
0.949707, -0.1176758, -0.0170898, -47.0121956, 5.0609756, 2.6829269, -0.0486763
0.9472656, -0.1279297, -0.0166016, -44.6341476, 6.5243902, 1.4634147, -0.0513619
0.9477539, -0.1323242, -0.0151367, -42.9878044, 7.6829271, 1.0365853, -0.0486763
0.9453125, -0.1269531, -0.0078125, -37.5609779, 10.6707315, 0.6097561, -0.0473335
0.9453125, -0.1245117, -0.0024414, -33.6585388, 12.6219511, 0.4878049, -0.0480049
0.9404297, -0.1142578, -0.0112305, -24.8170738, 15.7926836, 0.1219512, -0.0486763
0.9345703, -0.1025391, -0.0224609, -20.9756107, 16.6463413, 0.1219512, -0.0486763
0.9306641, -0.0839844, -0.050293, -17.3170738, 17.2560978, 0.5487805, -0.0493477
0.9321289, -0.0795898, -0.0717773, -17.9268303, 16.9512196, 1.402439, -0.0500191
0.9301758, -0.0683594, -0.0976562, -23.9024391, 15.9146347, 2.2560976, -0.0486763
0.9389648, -0.0678711, -0.1010742, -32.7439041, 15.1829271, 2.804878, -0.0480049
0.9399414, -0.0664062, -0.0991211, -37.3780479, 14.8780489, 2.8658538, -0.0466621
0.9462891, -0.0639648, -0.0878906, -45.2439041, 14.5121956, 2.4390244, -0.0459907
0.9472656, -0.0629883, -0.0766602, -48.2926826, 14.4512196, 2.1341465, -0.0486763
0.9492188, -0.0649414, -0.0517578, -54.8170738, 14.1463413, 2.4390244, -0.0459907
0.9506836, -0.0712891, -0.0380859, -57.9268303, 14.3292685, 2.7439024, -0.0459907
0.9492188, -0.0869141, -0.0014648, -64.4512177, 14.7560978, 3.5975611, -0.0439765
0.9492188, -0.0932617, 0.0234375, -67.6219559, 15.1829271, 3.7195122, -0.0459907
0.9448242, -0.105957, 0.0732422, -71.7073212, 16.1585369, 4.390244, -0.0412909
0.940918, -0.1123047, 0.1025391, -72.6219559, 16.5853653, 3.9024391, -0.0365911
0.9316406, -0.1157227, 0.1611328, -71.9512177, 17.3780499, 3.4756098, -0.0392767
0.9233398, -0.1264648, 0.2138672, -68.0487823, 17.2560978, 2.5609756, -0.0372625
0.9189453, -0.1352539, 0.2402344, -64.1463394, 16.280489, 2.0121951, -0.0382696
0.9091797, -0.1533203, 0.2724609, -52.4390259, 13.780488, 0.6097561, -0.0406195
0.9067383, -0.1630859, 0.2817383, -44.0243912, 11.4634151, 0, -0.0419623
0.909668, -0.1772461, 0.265625, -24.6341476, 7.3170733, -1.2195122, -0.0419623
0.9111328, -0.1831055, 0.2407227, -14.7560978, 5.609756, -1.8292683, -0.0473335
0.9248047, -0.1884766, 0.168457, 0.2439024, 3.3536587, -2.195122, -0.0433051
0.9296875, -0.1831055, 0.1328125, 4.8170733, 3.4146342, -2.2560976, -0.0459907
0.9433594, -0.1738281, 0.0615234, 7.4390244, 4.8780489, -2.4390244, -0.0433051
0.9448242, -0.1699219, 0.0380859, 6.0975609, 6.0975609, -2.6829269, -0.0446479
0.9487305, -0.1577148, -0.0009766, 1.2195122, 8.9024391, -3.1707318, -0.0459907
0.9418945, -0.144043, -0.0214844, -5.0609756, 10.5487804, -3.4146342, -0.0449836
0.9423828, -0.1386719, -0.0244141, -7.9268293, 11.1585369, -3.7804878, -0.0500191
0.9331055, -0.1323242, -0.027832, -15.060976, 11.7682934, -4.3292685, -0.0463264
0.9375, -0.1259766, -0.0234375, -18.5975609, 12.1951218, -4.8780489, -0.0433051
0.925293, -0.1225586, -0.0126953, -26.9512196, 14.0853662, -5.1219511, -0.0473335
0.918457, -0.1259766, -0.0053711, -30.7926846, 14.8780489, -5.609756, -0.0500191
0.9072266, -0.1342773, 0.019043, -37.3780479, 15.5487804, -5.9146342, -0.0500191
0.9023438, -0.1459961, 0.0268555, -39.5731735, 15.4268293, -6.2195125, -0.0500191
0.8974609, -0.1591797, 0.0449219, -41.341465, 14.8780489, -6.2195125, -0.0480049
0.8984375, -0.1630859, 0.0556641, -42.0121956, 14.5731707, -5.9146342, -0.0486763
0.909668, -0.1748047, 0.0737305, -43.7804871, 14.1463413, -5.2439027, -0.0500191
0.9208984, -0.1914062, 0.0839844, -43.1707344, 14.2682934, -5.2439027, -0.0500191
0.9277344, -0.199707, 0.0888672, -42.3170738, 13.841464, -5.3658538, -0.0486763
0.9443359, -0.2148438, 0.0874023, -38.1097565, 13.2317076, -5.2439027, -0.0493477
0.9526367, -0.21875, 0.0883789, -35.9756088, 12.9268293, -5.0609756, -0.0500191
0.9658203, -0.2163086, 0.0844727, -33.2317085, 13.9024391, -4.4512196, -0.0520333
0.9731445, -0.2094727, 0.0859375, -31.6463413, 15.1829271, -4.0853658, -0.0527047
0.9916992, -0.1967773, 0.0893555, -29.1463413, 17.6219521, -3.5365853, -0.0513619
0.996582, -0.1889648, 0.0947266, -28.1707325, 18.5365849, -3.4146342, -0.0513619
1.0058594, -0.1728516, 0.0957031, -26.2195129, 20, -3.1097562, -0.0527047
1.0063477, -0.1669922, 0.0917969, -25.8536587, 20.4268303, -3.0487804, -0.0547189
1.0092773, -0.1640625, 0.0976562, -25.3048782, 20.1829281, -2.6829269, -0.0553902
1.003418, -0.1640625, 0.09375, -25.7926826, 20.1219521, -2.5609756, -0.056733
1.0004883, -0.1625977, 0.0893555, -26.4024391, 20.3048782, -2.195122, -0.0530404
0.9951172, -0.1728516, 0.090332, -27.6829281, 20.3048782, -1.097561, -0.0520333
0.9916992, -0.1777344, 0.0888672, -27.6829281, 20.2439022, -0.4268293, -0.0513619
0.9833984, -0.1875, 0.0893555, -27.4390259, 20.1219521, 1.097561, -0.049012
0.9794922, -0.1918945, 0.0864258, -27.5, 19.8170738, 1.8902439, -0.0439765
0.9941406, -0.203125, 0.0727539, -29.2073174, 18.2926826, 3.3536587, -0.049012
0.9985352, -0.2070312, 0.0722656, -30.8536587, 17.1341476, 3.7195122, -0.0459907
1.0112305, -0.2314453, 0.0634766, -33.841465, 14.5121956, 5.3048782, -0.0459907
1.0361328, -0.2543945, 0.0532227, -34.6341476, 13.4146347, 5.670732, -0.0486763
1.0458984, -0.2617188, 0.0512695, -34.2073174, 11.5243902, 6.7682929, -0.0453193
1.0678711, -0.2768555, 0.0415039, -33.7195129, 11.5243902, 7.9878049, -0.0433051
1.0820312, -0.2827148, 0.0395508, -33.9024391, 12.1341467, 8.9024391, -0.0446479
1.1020508, -0.2871094, 0.0297852, -34.5121956, 13.4756098, 10.7317076, -0.0433051
1.1176758, -0.284668, 0.0371094, -35.3048782, 14.5121956, 11.5853662, -0.0382696
1.1328125, -0.2651367, 0.059082, -34.8170738, 17.6829281, 13.0487804, -0.0379339
1.1386719, -0.25, 0.074707, -33.3536606, 19.2073174, 13.841464, -0.0392767
1.140625, -0.2182617, 0.097168, -28.9634151, 21.6463413, 14.5731707, -0.0399481
1.1425781, -0.2016602, 0.1030273, -26.8902454, 22.2560978, 15.4268293, -0.0433051
1.140625, -0.1889648, 0.0913086, -23.9634151, 22.439024, 17.1341476, -0.0473335
1.1396484, -0.1904297, 0.0810547, -23.2926826, 21.8902435, 18.1707325, -0.0486763
1.1420898, -0.1918945, 0.0693359, -21.8902435, 21.0365868, 20.060976, -0.0506905
1.1489258, -0.2055664, 0.0361328, -20.9756107, 20.9756107, 21.8292694, -0.0500191
1.1503906, -0.2167969, 0.0170898, -20.9756107, 21.280489, 22.6829281, -0.0433051
1.1430664, -0.2368164, -0.0258789, -23.7195129, 21.8292694, 25.3048782, -0.0453193
1.1391602, -0.2436523, -0.043457, -26.4024391, 22.1341476, 26.5853672, -0.0446479
1.137207, -0.25, -0.0639648, -33.1097565, 23.1707325, 29.8780499, -0.0466621
1.1308594, -0.2524414, -0.0688477, -36.7682953, 23.9634151, 31.7073174, -0.0446479
1.1191406, -0.230957, -0.0527344, -43.3536606, 25.4268303, 36.2195129, -0.0476692
1.1196289, -0.2172852, -0.0429688, -46.8902435, 26.5243912, 38.7195129, -0.0466621
1.1083984, -0.184082, -0.0185547, -54.7560997, 27.560976, 43.2926826, -0.0466621
1.0976562, -0.1523438, 0.0205078, -63.3536606, 26.5243912, 48.0487823, -0.0439765
1.1000977, -0.1503906, 0.0366211, -67.5609741, 24.9390259, 50.0609779, -0.0439765
1.0957031, -0.1674805, 0.0556641, -75.18293, 20, 53.1707344, -0.0453193
1.0991211, -0.1826172, 0.0629883, -78.3536606, 17.0121956, 54.5121956, -0.0443122
1.1176758, -0.2441406, 0.0478516, -83.9024429, 11.6463413, 56.2195129, -0.0480049
1.1191406, -0.2783203, 0.0390625, -86.9512253, 9.4512196, 56.8292694, -0.0486763
1.1308594, -0.3554688, 0.0239258, -93.4756088, 6.7682929, 57.1951218, -0.0412909
1.1313477, -0.3930664, 0.0219727, -96.4024429, 6.0365853, 57.7439041, -0.0453193
1.1235352, -0.4433594, 0.0454102, -100.9756088, 6.0365853, 57.68293, -0.0473335
1.1181641, -0.4589844, 0.0712891, -102.6219559, 6.280488, 57.9268303, -0.0486763
1.0917969, -0.4624023, 0.1376953, -103.5975647, 6.7073174, 58.6585388, -0.0459907
1.0654297, -0.4423828, 0.2231445, -98.0487823, 5.7926831, 59.9390259, -0.0459907
1.0537109, -0.4345703, 0.2587891, -91.9512253, 5, 60.6097565, -0.0446479
1.0498047, -0.4140625, 0.2890625, -72.8048782, 2.4390244, 63.0487823, -0.0426337
1.0566406, -0.40625, 0.277832, -62.5, 1.2804878, 64.8170776, -0.0406195
1.0786133, -0.4106445, 0.2075195, -46.2804871, 0.3658537, 67.8658524, -0.0439765
1.0888672, -0.4165039, 0.1611328, -40.8536606, 0.5487805, 68.7804871, -0.0419623
1.1206055, -0.4335938, 0.0732422, -35.8536606, 0.0609756, 70.2439041, -0.0419623
1.1289062, -0.4365234, 0.0385742, -35.0609779, -0.0609756, 70.4878082, -0.0406195
1.1386719, -0.4262695, -0.0107422, -38.2317085, -0.8536586, 69.6951218, -0.0392767
1.1333008, -0.4135742, -0.0239258, -41.2195129, -0.6707317, 69.2073212, -0.0379339
1.1103516, -0.3823242, -0.0292969, -48.2926826, 0.6097561, 68.9634171, -0.0379339
1.081543, -0.3481445, -0.0112305, -55.6707344, 1.4634147, 70.3048782, -0.0379339
1.0649414, -0.3256836, 0.0024414, -57.9268303, 1.097561, 71.2195129, -0.0392767
1.0449219, -0.3085938, 0.0195312, -58.7195129, -0.4878049, 74.8170776, -0.0399481
1.0390625, -0.2958984, 0.0219727, -57.1951218, -1.2804878, 76.5853653, -0.0419623
1.0375977, -0.293457, -0.0097656, -52.8658562, -2.8658538, 80.8536606, -0.0419623
1.0371094, -0.3017578, -0.0366211, -51.5243912, -3.4146342, 82.8658524, -0.0406195
1.0395508, -0.3256836, -0.1040039, -54.6341476, -3.9024391, 86.5853653, -0.0379339
1.0473633, -0.340332, -0.1328125, -58.841465, -3.9634147, 88.0487823, -0.0402838
1.0449219, -0.3764648, -0.1723633, -71.0975647, -4.7560978, 90.6097565, -0.0372625
1.0429688, -0.394043, -0.1796875, -78.2926865, -5.0609756, 91.8292694, -0.0365911
1.0341797, -0.4125977, -0.1625977, -90.4268341, -5, 94.5731735, -0.0392767
1.0273438, -0.4179688, -0.1206055, -97.4390259, -4.1463413, 98.1707306, -0.0352483
1.0209961, -0.4091797, -0.0917969, -99.8780518, -3.2926829, 99.7561035, -0.0386053
1.019043, -0.3979492, -0.0449219, -104.3902435, -2.3780489, 103.7804871, -0.0372625
1.0180664, -0.3911133, -0.0205078, -106.4024429, -2.3170731, 105.6097565, -0.0352483
1.0317383, -0.3955078, 0.0288086, -108.7804871, -4.5121951, 107.8048782, -0.0379339
1.0292969, -0.4013672, 0.0493164, -107.68293, -6.0975609, 108.8414688, -0.0419623
1.0366211, -0.4204102, 0.0654297, -102.1341476, -9.7560978, 109.4512253, -0.0412909
1.0419922, -0.4316406, 0.0639648, -98.1707306, -11.5243902, 109.8780518, -0.0459907
1.0498047, -0.4487305, 0.0473633, -92.68293, -14.0853662, 110.7926865, -0.0473335
1.0546875, -0.465332, 0.0424805, -91.0975647, -14.5731707, 111.4634171, -0.0480049
1.0595703, -0.487793, 0.0234375, -88.6585388, -14.5121956, 113.2317123, -0.0493477
1.0595703, -0.4956055, 0.0180664, -84.8780518, -14.0853662, 114.5121994, -0.0500191
1.0581055, -0.4916992, 0.0107422, -82.68293, -13.5975609, 115.2439041, -0.0466621
1.0556641, -0.4814453, 0.0092773, -78.6585388, -13.2926836, 116.8292694, -0.0500191
1.0512695, -0.4829102, 0.0063477, -76.0975647, -13.2926836, 117.6219559, -0.0513619
1.0478516, -0.4790039, -0.015625, -68.8414688, -14.3902445, 119.0853653, -0.0446479
1.0527344, -0.4790039, -0.0375977, -65.0609741, -15.3658543, 119.4512253, -0.0520333
1.0629883, -0.4750977, -0.0859375, -60.6097565, -16.5853653, 121.5243912, -0.0459907
1.0698242, -0.472168, -0.1166992, -60.6707344, -16.4634151, 122.2561035, -0.0446479
1.0727539, -0.4736328, -0.1640625, -63.0487823, -15, 123.5365906, -0.0412909
1.0742188, -0.4760742, -0.1801758, -65.1219559, -13.780488, 123.8414688, -0.0433051
1.0771484, -0.4775391, -0.2114258, -69.8780518, -13.0487804, 125.18293, -0.0426337
1.0654297, -0.4672852, -0.2363281, -78.1097565, -12.1951218, 126.7073212, -0.0372625
1.0605469, -0.4614258, -0.2338867, -84.2073212, -11.4634151, 127.6219559, -0.0412909
1.0556641, -0.4575195, -0.2109375, -98.0487823, -9.8780489, 129.2073212, -0.0406195
1.0473633, -0.4526367, -0.1845703, -103.8414688, -9.1463413, 129.8780518, -0.0419623
1.0288086, -0.4609375, -0.1386719, -109.2073212, -10.1829271, 130.9756165, -0.0463264
1.0205078, -0.4638672, -0.1230469, -109.5731735, -11.341464, 131.7073212, -0.0453193
1.0136719, -0.4780273, -0.1137695, -109.0853653, -15.1829271, 133.5365906, -0.0449836
1.0141602, -0.4824219, -0.1108398, -109.2682953, -17.3170738, 134.6341553, -0.0446479
1.0253906, -0.5019531, -0.1044922, -111.0975647, -20.1219521, 136.9512177, -0.0459907
1.03125, -0.5126953, -0.1040039, -112.2561035, -20.8536587, 138.1707306, -0.0446479
1.0483398, -0.5302734, -0.1035156, -113.4146347, -21.9512196, 139.5121918, -0.0426337
1.0532227, -0.550293, -0.0961914, -112.1951218, -22.9878063, 140.7317047, -0.0392767
1.0551758, -0.5605469, -0.0976562, -110.7926865, -23.3536587, 141.1585388, -0.0386053
1.059082, -0.5717773, -0.1010742, -107.3780518, -24.6951218, 141.8902435, -0.0399481
1.065918, -0.581543, -0.1030273, -105.4878082, -25.1829281, 142.2561035, -0.0399481
1.0678711, -0.5878906, -0.109375, -102.3780518, -26.0365868, 143.2926788, -0.0433051
1.0683594, -0.5805664, -0.1098633, -101.1585388, -26.0365868, 143.4756165, -0.0433051
1.0693359, -0.578125, -0.112793, -99.146347, -26.4024391, 143.8414612, -0.0433051
1.0610352, -0.5800781, -0.1176758, -98.4146347, -26.9512196, 144.0853729, -0.0446479
1.0610352, -0.5981445, -0.1318359, -96.646347, -29.5121956, 144.8170776, -0.0392767
1.0644531, -0.6083984, -0.1445312, -94.8780518, -30.7926846, 145.1219482, -0.0439765
1.0703125, -0.6201172, -0.1645508, -88.5365906, -33.4756088, 145.5487823, -0.0473335
1.074707, -0.6162109, -0.2050781, -82.8658524, -34.4512215, 145.9146423, -0.0459907
1.0800781, -0.6098633, -0.2236328, -82.7439041, -34.3292694, 146.7073212, -0.0486763
1.0849609, -0.5913086, -0.2412109, -88.7195129, -32.9268303, 148.5975647, -0.0476692
1.0854492, -0.5825195, -0.2324219, -93.0487823, -32.1341476, 149.146347, -0.0466621
1.0859375, -0.5742188, -0.2036133, -97.5, -31.341465, 150.4268341, -0.0459907
1.0878906, -0.5776367, -0.175293, -96.1585388, -30.9756107, 150.6707306, -0.0486763
1.0742188, -0.5849609, -0.1977539, -89.5731735, -32.1341476, 151.2195129, -0.0486763
1.0742188, -0.5874023, -0.2182617, -87.5, -34.2073174, 151.8292694, -0.0486763
1.0810547, -0.5947266, -0.262207, -87.1951218, -38.9024391, 152.9878082, -0.0527047
1.0795898, -0.5947266, -0.2753906, -88.2926865, -40.4878044, 153.6585388, -0.0506905
1.0771484, -0.6137695, -0.3056641, -93.5975647, -42.0731735, 155.7317047, -0.0459907
1.0810547, -0.6274414, -0.3198242, -99.9390259, -40.7926826, 158.7195129, -0.0412909
1.0810547, -0.6333008, -0.3222656, -103.2926865, -39.6341476, 160, -0.0480049
1.0761719, -0.6479492, -0.3095703, -109.2073212, -38.1097565, 162.6219482, -0.0493477
1.0698242, -0.6538086, -0.2983398, -111.0975647, -38.0487823, 163.4756165, -0.0500191
1.065918, -0.6513672, -0.28125, -112.9268341, -39.8170738, 165.1829376, -0.0476692
1.0688477, -0.652832, -0.2758789, -113.4146347, -41.2195129, 165.7317047, -0.0500191
1.078125, -0.6625977, -0.2680664, -111.5243912, -44.5731735, 166.3414612, -0.0533761
1.0859375, -0.6660156, -0.2719727, -109.3292694, -46.1585388, 167.0121918, -0.0513619
1.1015625, -0.6777344, -0.2988281, -104.2073212, -48.841465, 167.2561035, -0.0486763
1.1098633, -0.6855469, -0.3203125, -102.68293, -49.6951218, 167.86586, -0.0503548
1.1225586, -0.6884766, -0.3525391, -105.0609818, -50.1219521, 168.7804871, -0.0513619
1.1181641, -0.7006836, -0.3642578, -112.3780518, -47.9268303, 169.2073212, -0.0513619
1.1137695, -0.7070312, -0.3574219, -116.2804871, -46.4634171, 169.2682953, -0.0506905
1.0893555, -0.7172852, -0.3325195, -121.7073212, -45.9146347, 168.9634247, -0.0476692
1.0751953, -0.7182617, -0.315918, -123.3536606, -46.4634171, 168.9634247, -0.0480049
1.0444336, -0.7236328, -0.2841797, -123.2317123, -49.3292694, 168.7804871, -0.0446479
1.0341797, -0.7324219, -0.2744141, -121.5853653, -51.2195129, 168.8414612, -0.0446479
1.0185547, -0.753418, -0.2768555, -114.8170776, -55.9756126, 169.2073212, -0.0399481
1.0151367, -0.7631836, -0.2861328, -111.7073212, -57.9878044, 169.6951294, -0.0412909
1.0161133, -0.7714844, -0.309082, -109.9390259, -60.7317085, 170.4878082, -0.0406195
1.0175781, -0.7739258, -0.3110352, -111.0365906, -61.0975609, 170.9756165, -0.0382696
1.0083008, -0.7675781, -0.2880859, -116.3414688, -61.5243912, 171.646347, -0.0406195
0.9907227, -0.765625, -0.2490234, -116.4634171, -61.0365868, 171.5243988, -0.0386053
0.9819336, -0.7670898, -0.2333984, -113.4756088, -62.3170738, 171.4634247, -0.0379339
0.9707031, -0.7680664, -0.2387695, -103.5365906, -67.0731735, 171.646347, -0.0379339
0.9672852, -0.7734375, -0.2583008, -98.7804871, -70.4878082, 171.8902435, -0.0352483
0.9702148, -0.777832, -0.3061523, -94.0243912, -77.0121994, 171.646347, -0.03122
0.9770508, -0.7817383, -0.3286133, -93.7804871, -79.5121994, 171.4024506, -0.0332341
0.9794922, -0.7836914, -0.3442383, -97.5609741, -81.646347, 170.6097565, -0.0369268
0.9785156, -0.7856445, -0.347168, -99.5731735, -81.4024429, 170.1829376, -0.0406195
0.9614258, -0.7900391, -0.3413086, -101.2804871, -80.8536606, 169.8780518, -0.0412909
0.9428711, -0.8027344, -0.3447266, -101.0975647, -81.8292694, 170.2439117, -0.0412909
0.9360352, -0.8115234, -0.3496094, -99.6951218, -84.3902435, 170.1219482, -0.0412909
0.9267578, -0.8232422, -0.3530273, -98.4146347, -87.9878082, 169.6951294, -0.0419623
0.9204102, -0.8325195, -0.359375, -96.8902435, -89.5121994, 168.7804871, -0.0406195
0.9067383, -0.855957, -0.3852539, -91.4024429, -91.5243912, 167.4390259, -0.0459907
0.902832, -0.8671875, -0.4091797, -88.8414688, -92.4390259, 167.0121918, -0.0409552
0.8994141, -0.8813477, -0.4516602, -88.2317123, -93.5365906, 166.4024353, -0.0406195
0.8896484, -0.8803711, -0.4633789, -91.4024429, -93.7804871, 165.8536682, -0.0433051
0.8613281, -0.8671875, -0.4360352, -100.8536606, -92.68293, 164.6341553, -0.0446479
0.8417969, -0.862793, -0.4101562, -104.8780518, -92.1951218, 163.8414612, -0.0426337
0.8085938, -0.8671875, -0.3422852, -106.8292694, -92.0731735, 163.0487823, -0.0406195
0.7832031, -0.8911133, -0.3339844, -103.7195129, -92.6219559, 162.6219482, -0.0396124
0.7792969, -0.9077148, -0.3500977, -94.3292694, -97.6219559, 162.6829376, -0.0419623
0.7807617, -0.9272461, -0.4042969, -88.2926865, -105.6707306, 162.2561035, -0.0409552
0.7866211, -0.9316406, -0.4282227, -87.6219559, -108.8414688, 162.0121918, -0.0379339
0.7944336, -0.9350586, -0.4404297, -91.5243912, -111.2195129, 160.7317047, -0.0386053
0.7915039, -0.9379883, -0.4375, -93.3536606, -110.4878082, 160.2439117, -0.042298
0.7753906, -0.9404297, -0.4257812, -94.5731735, -107.4390259, 159.8780518, -0.0459907
0.762207, -0.9438477, -0.4213867, -93.9634171, -106.2804871, 160.0609741, -0.0486763
0.7412109, -0.9394531, -0.4125977, -92.0731735, -106.4634171, 160.2439117, -0.0473335
0.7319336, -0.940918, -0.4047852, -90.9756088, -108.0487823, 159.9390259, -0.0446479
0.7231445, -0.9394531, -0.3989258, -88.9634171, -111.5243912, 159.5731812, -0.0406195
0.7138672, -0.9453125, -0.3974609, -84.146347, -114.8170776, 158.7804871, -0.0406195
0.7114258, -0.9443359, -0.4023438, -81.0975647, -115.5487823, 158.2926941, -0.0433051
0.7006836, -0.9379883, -0.4150391, -75.18293, -116.3414688, 157.4390259, -0.0459907
0.6953125, -0.9355469, -0.4243164, -72.9878082, -116.4634171, 157.1951294, -0.0433051
0.6801758, -0.9262695, -0.4580078, -69.8780518, -117.0731735, 157.1951294, -0.0392767
0.6757812, -0.9257812, -0.4692383, -69.1463394, -117.5, 157.2561035, -0.0386053
0.668457, -0.9130859, -0.4887695, -68.7804871, -118.7804871, 157.8048859, -0.0409552
0.6635742, -0.9052734, -0.4970703, -69.2073212, -118.7804871, 158.2317047, -0.0396124
0.6533203, -0.9023438, -0.5205078, -69.2682953, -118.8414688, 159.3902435, -0.0392767
0.6459961, -0.9038086, -0.5327148, -69.7560959, -118.9024429, 160, -0.0419623
0.6362305, -0.9067383, -0.5566406, -71.8292694, -118.8414688, 161.2804871, -0.0392767
0.6313477, -0.9072266, -0.5649414, -75.3048782, -118.9024429, 162.6829376, -0.0379339
0.6313477, -0.9130859, -0.5639648, -76.5243912, -118.2926865, 163.3536682, -0.0392767
0.6225586, -0.9228516, -0.5698242, -77.4390259, -117.86586, 164.7561035, -0.0406195
0.6142578, -0.9248047, -0.5712891, -77.7439041, -117.5609818, 165.4268341, -0.0466621
0.6049805, -0.925293, -0.5561523, -80.9146347, -116.5243912, 166.4634247, -0.0466621
0.6015625, -0.9243164, -0.5449219, -82.8658524, -115.7926865, 166.7073212, -0.0419623
0.5786133, -0.9350586, -0.5136719, -84.5731735, -114.6341476, 167.0731812, -0.0412909
0.5742188, -0.9360352, -0.4970703, -84.4512253, -114.4512253, 166.7073212, -0.0436408
0.5532227, -0.934082, -0.4672852, -81.4024429, -114.3902435, 165.9146423, -0.0439765
0.5454102, -0.9301758, -0.4599609, -78.6585388, -114.3902435, 165.6707306, -0.0406195
0.5209961, -0.9296875, -0.4545898, -71.9512177, -116.3414688, 164.2073212, -0.0396124
0.5092773, -0.949707, -0.4873047, -63.5365868, -119.5731735, 164.146347, -0.0433051
0.5009766, -0.9575195, -0.5170898, -60.18293, -121.0975647, 164.2073212, -0.0412909
0.496582, -0.9555664, -0.5766602, -57.2560997, -123.8414688, 164.6341553, -0.0419623
0.4926758, -0.9487305, -0.59375, -58.6585388, -124.0853653, 164.7561035, -0.0459907
0.4775391, -0.9301758, -0.5874023, -64.7560959, -121.4024429, 164.0243988, -0.0459907
0.4692383, -0.9204102, -0.5708008, -66.8902435, -119.146347, 163.9634247, -0.0466621
0.4355469, -0.9135742, -0.5483398, -67.8048782, -115.6707306, 164.0243988, -0.0473335
0.4160156, -0.9125977, -0.5483398, -66.0975647, -115.0609818, 164.4512177, -0.0433051
0.3920898, -0.9091797, -0.5595703, -62.3170738, -117.1341476, 165.1219482, -0.0439765
0.3857422, -0.902832, -0.5639648, -61.2195129, -119.0853653, 165.1829376, -0.0459907
0.3813477, -0.894043, -0.5664062, -60.9756126, -122.8048782, 165.4878082, -0.0466621
0.3696289, -0.8994141, -0.581543, -61.7073174, -124.146347, 165, -0.0439765
0.3613281, -0.9067383, -0.5927734, -61.1585388, -123.9024429, 164.9390259, -0.0439765
0.3583984, -0.9208984, -0.6235352, -59.8170738, -123.3536606, 165.5487823, -0.0466621
0.3525391, -0.9257812, -0.6391602, -59.7560997, -122.6219559, 166.1585388, -0.0433051
0.3398438, -0.9272461, -0.6547852, -61.9512215, -121.0365906, 167.4390259, -0.0433051
0.3378906, -0.9223633, -0.652832, -63.5975609, -120.2439041, 167.7439117, -0.0446479
0.3266602, -0.9238281, -0.6381836, -67.1341476, -118.5365906, 168.1097565, -0.0466621
0.3300781, -0.9223633, -0.6044922, -68.2926865, -117.9268341, 168.4146423, -0.042298
0.3242188, -0.9243164, -0.5756836, -67.8658524, -115.3048782, 168.1707306, -0.0419623
0.3173828, -0.9282227, -0.5698242, -67.1341476, -115.4268341, 167.86586, -0.0473335
0.3007812, -0.9282227, -0.5688477, -65.8536606, -118.7804871, 166.1585388, -0.0453193
0.2866211, -0.9370117, -0.5668945, -62.4390259, -123.1707382, 164.6951294, -0.0466621
0.284668, -0.934082, -0.5688477, -60.2439041, -125, 163.8414612, -0.0446479
0.277832, -0.9267578, -0.5800781, -57.0731735, -126.8902435, 162.5609741, -0.0449836
0.2700195, -0.9213867, -0.5830078, -56.7682953, -127.1341476, 161.9512177, -0.0412909
0.2573242, -0.9135742, -0.5844727, -57.6219521, -127.1341476, 161.7682953, -0.0433051
0.25, -0.9165039, -0.5864258, -57.5, -126.9512253, 161.7682953, -0.0459907
0.2363281, -0.9130859, -0.5961914, -56.2195129, -127.5609818, 162.0731812, -0.0406195
0.2353516, -0.9194336, -0.6064453, -55.3048782, -127.9878082, 162.3780518, -0.042298
0.2348633, -0.9321289, -0.6279297, -53.7195129, -129.6341553, 163.1097565, -0.0419623
0.2353516, -0.9379883, -0.6435547, -52.9878044, -130.3048859, 162.9878082, -0.0406195
0.237793, -0.9467773, -0.6665039, -50.1219521, -129.2682953, 163.2926941, -0.0392767
0.2475586, -0.9389648, -0.6899414, -46.8902435, -127.5609818, 163.0487823, -0.0409552
0.2436523, -0.9257812, -0.6982422, -46.1585388, -126.5853653, 162.9878082, -0.0399481
0.2402344, -0.8925781, -0.6977539, -48.5365868, -125.1219559, 163.5365906, -0.0365911
0.2397461, -0.8764648, -0.6870117, -50.4878044, -124.3902435, 164.0243988, -0.0406195
0.2314453, -0.8491211, -0.6582031, -53.4146347, -122.7439041, 164.2073212, -0.0409552
0.2270508, -0.8349609, -0.6499023, -53.4146347, -122.0121994, 163.9634247, -0.0406195
0.2211914, -0.8203125, -0.6430664, -50.3658562, -120.6097565, 163.4756165, -0.0419623
0.2133789, -0.8125, -0.6547852, -48.841465, -120.5487823, 163.2317047, -0.0436408
0.2099609, -0.8227539, -0.7011719, -47.0731735, -121.7073212, 163.5365906, -0.0503548
0.2075195, -0.8212891, -0.7260742, -47.9878044, -122.5, 163.7804871, -0.049012
0.2163086, -0.8222656, -0.7514648, -54.8170738, -123.4146347, 164.4512177, -0.0516976
0.2163086, -0.8120117, -0.6987305, -67.6219559, -121.2804871, 164.4512177, -0.0513619
0.2158203, -0.8061523, -0.6464844, -74.2073212, -119.0853653, 164.2682953, -0.0500191
0.1948242, -0.8095703, -0.534668, -80.5487823, -113.9634171, 162.5, -0.0540475
0.1831055, -0.8168945, -0.4873047, -78.2317123, -111.8902435, 161.7682953, -0.0503548
0.144043, -0.8530273, -0.4765625, -62.7439041, -111.9512253, 159.6951294, -0.0486763
0.1308594, -0.8759766, -0.5161133, -52.6219521, -113.5975647, 159.0853729, -0.0513619
0.1264648, -0.9199219, -0.6313477, -38.7804871, -122.1341476, 159.0853729, -0.0473335
0.1303711, -0.9272461, -0.6870117, -36.4024391, -125.2439041, 159.2682953, -0.0459907
0.1459961, -0.9321289, -0.7421875, -38.1707344, -125.9146347, 159.9390259, -0.0473335
0.1542969, -0.9223633, -0.7392578, -41.6463432, -123.1707382, 160.1219482, -0.0476692
0.1513672, -0.8735352, -0.6708984, -47.8658562, -112.68293, 159.9390259, -0.0473335
0.121582, -0.8266602, -0.5947266, -47.7439041, -102.9268341, 159.2682953, -0.0473335
0.1030273, -0.8110352, -0.5795898, -44.5731735, -100.7926865, 159.0243988, -0.0486763
0.0805664, -0.7958984, -0.5932617, -37.5, -104.4512253, 160, -0.0446479
0.0869141, -0.7890625, -0.581543, -34.6341476, -108.5365906, 160.4878082, -0.0446479
0.1000977, -0.7768555, -0.6054688, -31.280489, -113.8414688, 159.7561035, -0.0446479
0.0986328, -0.7734375, -0.6245117, -31.6463413, -115.4268341, 158.7804871, -0.0433051
0.1000977, -0.777832, -0.671875, -33.4146347, -115.9146347, 157.6219482, -0.0459907
0.0942383, -0.7792969, -0.6953125, -33.841465, -115, 157.2561035, -0.0449836
0.0834961, -0.7709961, -0.7260742, -38.4146347, -112.0121994, 157.2561035, -0.0406195
0.0737305, -0.7583008, -0.7226562, -42.6829262, -110.6707306, 157.2561035, -0.0426337
0.0566406, -0.7182617, -0.6640625, -53.4756126, -107.6219559, 156.8292694, -0.0459907
0.0351562, -0.6982422, -0.5771484, -61.4634171, -105.6097565, 155.3048859, -0.0439765
0.0161133, -0.6962891, -0.5444336, -62.9878082, -105.7317123, 154.9390259, -0.0433051
-0.0117188, -0.7104492, -0.5092773, -60.0609779, -108.4756088, 153.5975647, -0.0419623
-0.0151367, -0.7314453, -0.5107422, -57.3170738, -111.0365906, 153.4146423, -0.0426337
-0.0244141, -0.7744141, -0.5620117, -50.2439041, -116.4634171, 152.9268341, -0.0466621
-0.0253906, -0.7983398, -0.5927734, -47.3780518, -118.5975647, 152.86586, -0.0486763
-0.0175781, -0.8266602, -0.6347656, -48.0487823, -120.7926865, 153.5365906, -0.0446479
-0.012207, -0.8251953, -0.6313477, -50.8536606, -120.3048782, 153.4756165, -0.0433051
-0.0073242, -0.8061523, -0.5634766, -58.9024391, -116.4024429, 152.4390259, -0.0493477
-0.0048828, -0.7958984, -0.5146484, -60.9756126, -113.1707306, 151.0365906, -0.0459907
-0.027832, -0.7919922, -0.4399414, -53.6585388, -106.7073212, 148.1097565, -0.0433051
-0.0708008, -0.8032227, -0.4711914, -33.1707306, -105.7926865, 145.6097565, -0.042298
-0.0834961, -0.8076172, -0.5244141, -23.2317085, -109.0243912, 145.7926788, -0.0439765
-0.0893555, -0.7973633, -0.6455078, -13.9634151, -118.2317123, 148.3536682, -0.0446479
-0.0761719, -0.7880859, -0.6855469, -15.6097565, -121.646347, 149.5731812, -0.0406195
-0.0390625, -0.7548828, -0.7119141, -25.9146347, -122.3780518, 151.2195129, -0.0446479
-0.027832, -0.7319336, -0.6918945, -32.4390259, -119.3902435, 151.3414612, -0.0419623
-0.0263672, -0.6621094, -0.6049805, -41.9512215, -109.5121994, 149.8780518, -0.0433051
-0.0380859, -0.6303711, -0.5639648, -43.0487823, -104.6341476, 148.5365906, -0.0433051
-0.0800781, -0.5917969, -0.5249023, -39.1463432, -100.3048782, 146.4024353, -0.0439765
-0.1020508, -0.5825195, -0.5498047, -36.341465, -101.8292694, 146.2804871, -0.0459907
-0.1030273, -0.5849609, -0.578125, -34.0243912, -110.36586, 146.8292694, -0.0480049
-0.0913086, -0.6010742, -0.6293945, -37.3780479, -117.6219559, 147.2561035, -0.0446479
-0.0825195, -0.6132812, -0.6469727, -40.6097565, -118.7195129, 147.3780518, -0.0459907
-0.0688477, -0.6328125, -0.65625, -48.5365868, -115.7926865, 147.1951294, -0.0392767
-0.0693359, -0.6391602, -0.6479492, -52.8048782, -112.9878082, 147.0731812, -0.0406195
-0.0791016, -0.65625, -0.6298828, -57.4390259, -106.4634171, 145.8536682, -0.0406195
-0.090332, -0.671875, -0.6245117, -58.1707344, -104.4512253, 145.36586, -0.0406195
-0.1088867, -0.6967773, -0.6337891, -56.1585388, -103.6585388, 145.5487823, -0.038941
-0.1088867, -0.7041016, -0.6455078, -55.1219521, -104.8780518, 145.6707306, -0.0419623
-0.0996094, -0.6972656, -0.640625, -56.4024391, -108.1707306, 146.2195129, -0.0433051
-0.0810547, -0.6645508, -0.5683594, -60.6097565, -109.0243912, 145.5487823, -0.0476692
-0.0795898, -0.6494141, -0.5073242, -70.6707306, -106.8902435, 142.7439117, -0.0503548
-0.0927734, -0.6298828, -0.394043, -73.1097565, -100.4268341, 136.8292694, -0.0506905
-0.1118164, -0.6333008, -0.3525391, -69.6341476, -97.4390259, 133.5975647, -0.0513619
-0.1601562, -0.6523438, -0.340332, -55.1219521, -96.4634171, 128.7804871, -0.0557259
-0.184082, -0.6704102, -0.3676758, -46.6463432, -98.4146347, 127.8048782, -0.0540475
-0.2124023, -0.7094727, -0.4692383, -32.0731697, -105.1219559, 127.8048782, -0.0513619
-0.2216797, -0.7250977, -0.5410156, -26.5243912, -107.9878082, 129.0853729, -0.0513619
-0.2177734, -0.7431641, -0.6713867, -22.8658543, -110.5487823, 132.5, -0.0473335
-0.2070312, -0.7407227, -0.7084961, -25.9756107, -109.9390259, 134.3902435, -0.0486763
-0.1694336, -0.6928711, -0.6757812, -38.4146347, -101.7682953, 135.7926788, -0.0473335
-0.1757812, -0.6308594, -0.5957031, -44.0243912, -95.2439041, 135.2439117, -0.0459907
-0.1879883, -0.6103516, -0.5629883, -46.341465, -83.0487823, 131.9512177, -0.0469978
-0.2285156, -0.5869141, -0.5615234, -39.0243912, -81.3414688, 129.8170776, -0.0500191
-0.2436523, -0.5649414, -0.5786133, -35.9146347, -84.5731735, 129.4512177, -0.0476692
-0.2431641, -0.5224609, -0.5947266, -37.4390259, -94.0853653, 129.9390259, -0.0459907
-0.2299805, -0.4995117, -0.5888672, -41.5853653, -96.8902435, 129.5731812, -0.0486763
-0.2128906, -0.4833984, -0.5668945, -49.0853653, -95.4268341, 128.3536682, -0.0500191
-0.2172852, -0.4951172, -0.5678711, -49.9390259, -91.4024429, 127.3170776, -0.0459907
-0.2294922, -0.5327148, -0.6235352, -47.8048782, -83.4756088, 126.8902435, -0.0463264
-0.2426758, -0.5527344, -0.6669922, -48.0487823, -81.4024429, 127.5, -0.0493477
-0.2475586, -0.565918, -0.7041016, -58.4146347, -81.8902435, 128.4146423, -0.0459907
-0.2275391, -0.559082, -0.6289062, -78.6585388, -83.5975647, 126.4024429, -0.0459907
-0.2182617, -0.5600586, -0.5664062, -87.4390259, -82.4390259, 123.2926865, -0.0500191
-0.2407227, -0.5898438, -0.4609375, -92.0731735, -78.4146347, 114.5121994, -0.0486763
-0.2641602, -0.6152344, -0.4360352, -88.7804871, -77.6219559, 110.8536606, -0.0473335
-0.3041992, -0.6572266, -0.4277344, -81.0365906, -81.7682953, 106.646347, -0.0466621
-0.3188477, -0.6669922, -0.4228516, -78.7804871, -85.5487823, 105.5487823, -0.0446479
-0.3339844, -0.6660156, -0.3837891, -78.2926865, -91.4024429, 103.0487823, -0.0466621
-0.3432617, -0.6586914, -0.355957, -77.5, -91.7073212, 101.2804871, -0.056733
-0.3676758, -0.6416016, -0.3027344, -74.0243912, -89.4512253, 98.4756088, -0.0520333
-0.3852539, -0.6347656, -0.2783203, -71.4024429, -88.4756088, 97.2561035, -0.0446479
-0.4160156, -0.6147461, -0.2412109, -64.2073212, -87.3780518, 95.4878082, -0.0469978
-0.4506836, -0.6318359, -0.2700195, -48.9634171, -87.2560959, 94.3292694, -0.0459907
-0.4726562, -0.6499023, -0.3266602, -38.1707344, -88.1097565, 94.8170776, -0.0433051
-0.4951172, -0.6855469, -0.487793, -21.7682934, -94.2682953, 100.3658524, -0.0473335
-0.4863281, -0.6791992, -0.5532227, -20.2439022, -98.7195129, 103.9024429, -0.0473335
-0.4360352, -0.6123047, -0.5771484, -31.280489, -102.6219559, 108.9634171, -0.0426337
-0.4082031, -0.5693359, -0.5444336, -39.2682953, -99.3902435, 108.7804871, -0.0412909
-0.3989258, -0.5024414, -0.465332, -45.3658562, -86.8292694, 105.0609818, -0.0419623
-0.4140625, -0.4775391, -0.4521484, -42.5, -80.5487823, 102.8048782, -0.0439765
-0.453125, -0.4506836, -0.4936523, -33.0487823, -78.1707306, 101.4024429, -0.0480049
-0.46875, -0.4370117, -0.5297852, -31.6463413, -81.7073212, 102.4390259, -0.0426337
-0.4555664, -0.4223633, -0.5810547, -38.0487823, -92.1951218, 104.6341476, -0.0412909
-0.4257812, -0.4365234, -0.6147461, -47.5609779, -95.7317123, 106.646347, -0.0426337
-0.4101562, -0.449707, -0.6337891, -50.7317085, -93.5975647, 107.3170776, -0.0396124
-0.3950195, -0.4741211, -0.6650391, -56.341465, -85.5487823, 106.9512253, -0.0392767
-0.3969727, -0.4794922, -0.671875, -59.5731735, -80.8536606, 106.5853653, -0.0352483
-0.3974609, -0.4692383, -0.6445312, -69.7560959, -74.0853653, 104.0243912, -0.0365911
-0.4106445, -0.4633789, -0.6147461, -76.5853653, -72.2560959, 101.7682953, -0.0379339
-0.4282227, -0.456543, -0.5258789, -86.9512253, -70.7926865, 95.5487823, -0.0379339
-0.4467773, -0.4624023, -0.4916992, -89.2073212, -70.9756088, 92.7439041, -0.0433051
-0.4873047, -0.4858398, -0.4355469, -88.5975647, -73.7804871, 87.9878082, -0.0446479
-0.5053711, -0.4941406, -0.4213867, -87.9268341, -76.1585388, 86.8292694, -0.0466621
-0.5292969, -0.5107422, -0.3823242, -88.5365906, -80, 85.0609741, -0.0453193
-0.5527344, -0.5249023, -0.3276367, -89.2073212, -80.3658524, 82.8658524, -0.0409552
-0.5668945, -0.5317383, -0.3076172, -88.5975647, -79.3292694, 81.7682953, -0.0365911
-0.605957, -0.5429688, -0.2670898, -84.5121994, -78.7804871, 79.6951218, -0.0369268
-0.6235352, -0.5493164, -0.2490234, -81.7073212, -79.4512177, 79.0243912, -0.0406195
-0.6635742, -0.5532227, -0.2290039, -71.6463394, -81.7682953, 77.6219559, -0.0372625
-0.6845703, -0.5527344, -0.2333984, -64.6341476, -83.8414688, 77.1951218, -0.0352483
-0.7177734, -0.5561523, -0.2714844, -52.8658562, -89.7560959, 79.3902435, -0.0392767
-0.7182617, -0.5493164, -0.2929688, -49.2682953, -93.3536606, 81.2195129, -0.0372625
-0.7006836, -0.5498047, -0.3110352, -46.7073174, -99.2682953, 84.8780518, -0.0392767
-0.6860352, -0.5566406, -0.3212891, -45.6707344, -99.6951218, 86.1585388, -0.0406195
-0.6699219, -0.5703125, -0.3540039, -38.4756088, -97.68293, 88.7195129, -0.0439765
-0.6591797, -0.5795898, -0.4423828, -24.0853672, -93.5975647, 91.5853653, -0.0419623
-0.6611328, -0.5644531, -0.4956055, -18.4146347, -93.2317123, 93.4756088, -0.0369268
-0.6347656, -0.5, -0.5703125, -18.0487804, -95, 96.3414688, -0.0406195
-0.6132812, -0.4614258, -0.5737305, -23.0487804, -95.7317123, 96.4634171, -0.0426337
-0.5771484, -0.4047852, -0.5654297, -33.5975609, -93.2317123, 93.5365906, -0.0406195
-0.5727539, -0.3959961, -0.565918, -36.5853653, -91.0365906, 91.2804871, -0.0406195
-0.5600586, -0.3818359, -0.6035156, -38.5975609, -88.9024429, 88.2317123, -0.0406195
-0.5522461, -0.3666992, -0.6147461, -41.4634171, -90.1219559, 87.1951218, -0.0406195
-0.5253906, -0.3320312, -0.6020508, -54.4512215, -94.146347, 83.9024429, -0.0406195
-0.5136719, -0.3188477, -0.5668945, -63.3536606, -95.1219559, 81.5853653, -0.0433051
-0.496582, -0.3334961, -0.4956055, -76.0365906, -91.0975647, 74.6341476, -0.0486763
-0.5205078, -0.3740234, -0.4672852, -75.9756088, -82.9268341, 68.4756088, -0.0466621
-0.5429688, -0.3950195, -0.4799805, -72.9878082, -79.7560959, 66.5243912, -0.0409552
-0.5927734, -0.4345703, -0.5185547, -69.8170776, -79.9390259, 64.4512177, -0.0419623
-0.6069336, -0.4438477, -0.5297852, -72.1951218, -82.5, 64.6341476, -0.0426337
-0.6137695, -0.4555664, -0.5068359, -82.7439041, -87.5609741, 64.1463394, -0.0412909
-0.6147461, -0.4638672, -0.4755859, -87.8048782, -88.2926865, 62.68293, -0.0392767
-0.625, -0.484375, -0.4008789, -93.1707306, -87.2560959, 58.5365868, -0.0459907
-0.6323242, -0.4960938, -0.3657227, -92.5, -86.646347, 56.7682953, -0.0486763
-0.65625, -0.5107422, -0.3149414, -88.3536606, -87.4390259, 53.9024391, -0.0513619
-0.6694336, -0.5112305, -0.2944336, -85.0609741, -88.9634171, 53.2926826, -0.0587472
-0.6889648, -0.5019531, -0.2558594, -77.2560959, -92.9268341, 52.9268303, -0.0527047
-0.7001953, -0.4921875, -0.2299805, -67.5, -95.9146347, 53.7804909, -0.056733
-0.7036133, -0.4868164, -0.2280273, -62.6219521, -96.7073212, 54.6951218, -0.0574044
-0.6992188, -0.4785156, -0.2451172, -52.9268303, -98.2317123, 57.1341476, -0.0513619
-0.6918945, -0.4741211, -0.2602539, -49.6951218, -98.5365906, 58.7195129, -0.0527047
-0.6743164, -0.4482422, -0.2753906, -45.5487823, -98.7195129, 60.2439041, -0.0513619
-0.6674805, -0.4291992, -0.2788086, -43.9024391, -97.68293, 59.7560997, -0.0520333
-0.6635742, -0.378418, -0.2763672, -39.8170738, -94.8780518, 57.5609779, -0.0486763
-0.6699219, -0.3535156, -0.2788086, -37.2560997, -93.7195129, 56.0975609, -0.0493477
-0.6904297, -0.3251953, -0.3076172, -32.0731697, -93.7804871, 54.1463432, -0.0486763
-0.6992188, -0.3105469, -0.3330078, -30.3048782, -94.6341476, 53.9634171, -0.0466621
-0.7055664, -0.2958984, -0.3974609, -29.0853672, -97.5, 56.0975609, -0.0513619
-0.6933594, -0.2958984, -0.4560547, -31.8902454, -99.3902435, 58.9024391, -0.0527047
-0.6777344, -0.293457, -0.4804688, -34.3902435, -98.7804871, 60, -0.0459907
-0.6508789, -0.2861328, -0.5117188, -41.0365868, -95.1219559, 60.9756126, -0.0466621
-0.6416016, -0.2744141, -0.5175781, -45.9756126, -92.9268341, 60.6097565, -0.049012
-0.6210938, -0.2441406, -0.4750977, -59.6951218, -90.18293, 57.3170738, -0.0486763
-0.6166992, -0.2324219, -0.4399414, -66.5853653, -89.3902435, 54.6951218, -0.0406195
-0.6254883, -0.2480469, -0.3837891, -74.0853653, -87.1341476, 47.9878044, -0.0419623
-0.6376953, -0.2714844, -0.3798828, -72.8658524, -86.2195129, 45.5487823, -0.0406195
-0.6708984, -0.3359375, -0.4287109, -66.8292694, -86.7682953, 44.5731735, -0.0433051
-0.6723633, -0.3549805, -0.4599609, -66.7073212, -89.146347, 45.9146347, -0.0419623
-0.6445312, -0.3564453, -0.4501953, -79.0853653, -95.0609741, 48.9634171, -0.042298
-0.5996094, -0.3139648, -0.3037109, -101.0975647, -94.5731735, 45.7926826, -0.042298
-0.5922852, -0.2929688, -0.2075195, -108.2926865, -89.6341476, 41.2804871, -0.0419623
-0.6357422, -0.2695312, -0.0395508, -108.7195129, -77.3170776, 28.9634151, -0.0426337
-0.6826172, -0.2714844, 0.0063477, -102.2561035, -73.9634171, 23.6585369, -0.0419623
-0.7802734, -0.3071289, 0.0151367, -82.6219559, -76.7682953, 18.3536587, -0.0412909
-0.8212891, -0.3442383, -0.0175781, -72.2560959, -82.0121994, 18.7195129, -0.0419623
-0.8564453, -0.4282227, -0.1479492, -53.4146347, -92.1951218, 25.6097565, -0.0406195
-0.8583984, -0.4619141, -0.2231445, -46.9512215, -95.2439041, 31.0365868, -0.0409552
-0.815918, -0.4726562, -0.3183594, -45.0609779, -95.0609741, 42.1951218, -0.0436408
-0.7851562, -0.4521484, -0.3188477, -49.6951218, -92.5, 45.6707344, -0.0443122
-0.7265625, -0.3823242, -0.2329102, -62.1341476, -83.4146347, 45.9756126, -0.0406195
-0.7133789, -0.3129883, -0.1010742, -67.68293, -75.18293, 38.7195129, -0.0412909
-0.7197266, -0.2861328, -0.0449219, -65.4878082, -73.5975647, 33.841465, -0.0473335
-0.7514648, -0.2509766, 0.0117188, -52.3170738, -74.9390259, 25.7317085, -0.0419623
-0.769043, -0.2470703, 0.0043945, -43.2317085, -77.5609741, 23.780489, -0.0433051
-0.7866211, -0.2480469, -0.0644531, -27.0731716, -81.9512177, 25.3658543, -0.0446479
-0.7900391, -0.2514648, -0.1230469, -22.3170738, -82.8658524, 27.9878063, -0.0439765
-0.7646484, -0.253418, -0.2128906, -20.9756107, -79.0243912, 35.4268303, -0.0473335
-0.7426758, -0.246582, -0.2504883, -23.9024391, -74.5731735, 38.841465, -0.0466621
-0.7163086, -0.2290039, -0.2783203, -32.9878044, -64.3292694, 41.7073174, -0.0459907
-0.6992188, -0.199707, -0.2597656, -37.9268303, -59.9390259, 41.5243912, -0.0466621
-0.6958008, -0.1831055, -0.2421875, -46.5243912, -55.3658562, 37.1341476, -0.0500191
-0.7006836, -0.1606445, -0.1972656, -53.841465, -56.8292694, 30.3048782, -0.0513619
-0.7011719, -0.152832, -0.1762695, -56.0975609, -58.4756126, 26.5243912, -0.0500191
-0.7143555, -0.1645508, -0.1459961, -59.8170738, -61.1585388, 20.060976, -0.0439765
-0.7138672, -0.1699219, -0.137207, -61.0975609, -61.5853691, 18.0487804, -0.0459907
-0.7202148, -0.2080078, -0.1269531, -64.7560959, -60.1219521, 16.280489, -0.0446479
-0.7158203, -0.2294922, -0.1254883, -66.5853653, -57.9268303, 16.4024391, -0.0453193
-0.7119141, -0.262207, -0.1030273, -70.5487823, -52.6829262, 15.7317076, -0.0446479
-0.7104492, -0.2768555, -0.0854492, -72.2560959, -49.6951218, 15.060976, -0.0433051
-0.7143555, -0.2998047, -0.0327148, -72.5609741, -44.2682953, 12.1951218, -0.0446479
-0.7231445, -0.3227539, 0.0083008, -70.6707306, -42.0731735, 9.5121956, -0.0433051
-0.7294922, -0.3339844, 0.0136719, -63.5365868, -39.5121956, 4.8170733, -0.0433051
-0.75, -0.3598633, 0.0263672, -53.9024391, -37.8658562, 1.1585366, -0.0419623
-0.7568359, -0.3632812, 0.0234375, -49.5121956, -36.8902435, 0.1829268, -0.0396124
-0.7612305, -0.3701172, 0.0249023, -42.9878044, -34.0243912, -2.1341465, -0.0419623
-0.7612305, -0.3706055, 0.027832, -40.8536606, -31.280489, -2.8658538, -0.042298
-0.7592773, -0.359375, 0.0444336, -35.1219521, -24.3902435, -5, -0.0399481
-0.7651367, -0.3432617, 0.0634766, -30.9756107, -20.060976, -6.6463418, -0.0365911
-0.7890625, -0.2998047, 0.0913086, -21.7682934, -11.341464, -9.7560978, -0.0392767
-0.8056641, -0.2788086, 0.1015625, -17.2560978, -8.0487804, -11.5243902, -0.0433051
-0.8364258, -0.2373047, 0.09375, -9.3292685, -3.4756098, -13.9024391, -0.0463264
-0.8583984, -0.2290039, 0.0571289, -4.390244, -2.0731707, -14.8780489, -0.0446479
-0.8642578, -0.2333984, 0.0351562, -3.4756098, -1.9512196, -14.7560978, -0.0493477
-0.8574219, -0.2514648, -0.0185547, -2.195122, 0.7317073, -13.780488, -0.0480049
-0.8525391, -0.2568359, -0.0419922, -1.6463414, 2.4390244, -13.1097565, -0.0480049
-0.8383789, -0.265625, -0.0839844, -1.0365853, 7.1341467, -11.0365858, -0.0449836
-0.828125, -0.2568359, -0.0913086, -1.4634147, 9.2682924, -10.7317076, -0.0436408
-0.8071289, -0.2226562, -0.081543, -4.6951222, 12.5, -11.280488, -0.0459907
-0.7939453, -0.2021484, -0.0693359, -6.5243902, 14.4512196, -12.3170738, -0.0419623
-0.7792969, -0.1699219, -0.027832, -9.4512196, 17.9878044, -16.280489, -0.0419623
-0.7700195, -0.1650391, -0.0146484, -10.060976, 20.060976, -18.2317085, -0.0453193
-0.7724609, -0.15625, -0.0048828, -9.5121956, 23.8414631, -22.3780499, -0.0453193
-0.7763672, -0.1645508, -0.0219727, -8.841464, 27.8658543, -25.7926826, -0.0446479
-0.7836914, -0.1733398, -0.0405273, -8.5975609, 30.1829281, -26.5853672, -0.0463264
-0.800293, -0.1972656, -0.0742188, -8.2317076, 34.5731697, -28.0487804, -0.0453193
-0.8037109, -0.2055664, -0.0869141, -8.6585369, 36.8292694, -28.5365868, -0.0439765
-0.8178711, -0.2094727, -0.1054688, -10.6707315, 41.4024391, -29.1463413, -0.0453193
-0.8232422, -0.2089844, -0.109375, -12.0121956, 43.6585388, -29.6951218, -0.0409552
-0.8417969, -0.2094727, -0.1113281, -12.3780489, 48.3536606, -30.8536587, -0.0419623
-0.8554688, -0.2104492, -0.1142578, -12.0121956, 50.2439041, -30.9146347, -0.0433051
-0.8666992, -0.2036133, -0.1210938, -13.4146347, 51.8902435, -31.280489, -0.0473335
-0.8662109, -0.199707, -0.1162109, -15.9146347, 51.2195129, -31.7682934, -0.0473335
-0.8510742, -0.2177734, -0.0942383, -22.8658543, 49.4512215, -33.5365868, -0.0446479
-0.828125, -0.2495117, -0.0649414, -26.5853672, 49.5121956, -36.5243912, -0.0446479
-0.8212891, -0.2641602, -0.0522461, -26.280489, 50.9146347, -38.2317085, -0.0473335
-0.8208008, -0.2929688, -0.0380859, -22.1341476, 54.1463432, -41.4634171, -0.0459907
-0.8212891, -0.3017578, -0.0375977, -20.2439022, 55.18293, -42.5609779, -0.0406195
-0.8168945, -0.3208008, -0.0297852, -17.439024, 56.0365868, -44.2682953, -0.0409552
-0.8120117, -0.3237305, -0.027832, -16.3414631, 56.4634171, -45.3048782, -0.0433051
-0.8041992, -0.3251953, -0.0068359, -13.6585369, 58.0487823, -47.5, -0.0416266
-0.8056641, -0.3183594, 0.0068359, -12.0731707, 59.1463432, -49.0243912, -0.042298
-0.8115234, -0.3085938, 0.0361328, -7.1341467, 61.9512215, -51.8902435, -0.0406195
-0.8164062, -0.3076172, 0.0371094, -3.8414636, 63.3536606, -53.4756126, -0.0365911
-0.8242188, -0.3076172, 0.0224609, 4.4512196, 64.1463394, -55.4268303, -0.0382696
-0.8232422, -0.3212891, -0.0224609, 12.2560978, 65, -55.7926826, -0.0433051
-0.8256836, -0.3261719, -0.0488281, 15.7317076, 66.3414612, -55.5487823, -0.0419623
-0.8212891, -0.3183594, -0.1025391, 22.5, 71.2195129, -55.2439041, -0.0439765
-0.8237305, -0.3037109, -0.1259766, 25.1219521, 73.5365906, -55.1219521, -0.0439765
-0.8232422, -0.2700195, -0.1538086, 25.4878063, 75.6707306, -56.0365868, -0.0446479
-0.8173828, -0.253418, -0.1577148, 23.5975609, 75.0609741, -57.0121956, -0.0419623
-0.7924805, -0.2294922, -0.1469727, 17.7439022, 71.9512177, -60.18293, -0.0379339
-0.7792969, -0.230957, -0.1411133, 15.1829271, 70.6707306, -62.4390259, -0.0406195
-0.7675781, -0.2460938, -0.1552734, 15.5487804, 72.0731735, -66.5853653, -0.0412909
-0.7695312, -0.2490234, -0.1772461, 18.5365849, 74.7560959, -67.2560959, -0.0386053
-0.7832031, -0.2573242, -0.2333984, 25.4878063, 80.7317123, -66.5243912, -0.0372625
-0.7802734, -0.2441406, -0.2875977, 26.5853672, 84.0853653, -62.8658562, -0.0369268
-0.7709961, -0.2314453, -0.3007812, 23.9634151, 84.5121994, -61.5853691, -0.0426337
-0.7441406, -0.2133789, -0.3076172, 14.4512196, 84.8780518, -61.6463432, -0.042298
-0.7246094, -0.2094727, -0.3017578, 9.1463413, 85.18293, -62.9268303, -0.0412909
-0.7041016, -0.2099609, -0.2758789, 1.0365853, 86.8292694, -67.3170776, -0.0412909
-0.7006836, -0.2109375, -0.2666016, -1.2195122, 88.2926865, -69.7560959, -0.0436408
-0.7133789, -0.230957, -0.28125, -0.9146342, 91.8292694, -73.2317123, -0.0433051
-0.7290039, -0.2392578, -0.2954102, 1.1585366, 93.8414688, -73.1097565, -0.0406195
-0.7480469, -0.2495117, -0.3457031, 3.5365853, 97.3780518, -70.2439041, -0.0359197
-0.7416992, -0.2470703, -0.3681641, 2.6829269, 97.68293, -68.1707306, -0.0412909
-0.7211914, -0.2373047, -0.3637695, -6.2195125, 97.0731735, -65.3658524, -0.0406195
-0.684082, -0.2407227, -0.3076172, -17.439024, 97.2561035, -66.1585388, -0.0446479
-0.6704102, -0.2480469, -0.2807617, -21.1585369, 98.6585388, -68.0487823, -0.0459907
-0.6650391, -0.2792969, -0.2382812, -22.1341476, 101.9512253, -72.8048782, -0.0419623
-0.6733398, -0.2910156, -0.2265625, -20.060976, 103.1097565, -75.0609741, -0.0409552
-0.6875, -0.3208008, -0.222168, -15.1219511, 102.3780518, -77.3780518, -0.0379339
-0.6894531, -0.3349609, -0.2250977, -12.5, 101.3414688, -77.1341476, -0.0365911
-0.6889648, -0.355957, -0.2280273, -7.7439027, 99.8170776, -76.0975647, -0.0369268
-0.6879883, -0.3657227, -0.2329102, -5.2439027, 99.8780518, -75.3048782, -0.0439765
-0.6801758, -0.3696289, -0.2216797, -2.3780489, 101.8902435, -73.7804871, -0.0439765
-0.671875, -0.3666992, -0.2045898, -1.6463414, 102.9268341, -73.5365906, -0.0426337
-0.6669922, -0.3583984, -0.1586914, -0.6097561, 104.3902435, -74.8780518, -0.0419623
-0.6630859, -0.3706055, -0.1152344, 2.6829269, 103.9024429, -77.3170776, -0.0459907
-0.6625977, -0.3881836, -0.1083984, 6.7073174, 103.1707306, -78.4756088, -0.0446479
-0.6674805, -0.4384766, -0.144043, 22.9268303, 102.3780518, -78.4756088, -0.0446479
-0.6743164, -0.4560547, -0.1889648, 34.1463432, 102.8658524, -76.9512177, -0.0433051
-0.6806641, -0.4760742, -0.3012695, 54.1463432, 104.6341476, -69.6341476, -0.0446479
-0.6777344, -0.4619141, -0.3554688, 60.18293, 105.3658524, -65.18293, -0.0419623
-0.6435547, -0.3964844, -0.4243164, 62.0121956, 108.4146347, -57.7439041, -0.0433051
-0.6274414, -0.3608398, -0.4487305, 59.9390259, 111.8902435, -55.8536606, -0.0453193
-0.6103516, -0.2993164, -0.4833984, 55.1219521, 120.4878082, -55.3658562, -0.0379339
-0.6064453, -0.2749023, -0.5053711, 53.1097565, 123.6585388, -55.4878044, -0.0352483
-0.5917969, -0.2329102, -0.5405273, 46.0365868, 123.7804871, -56.7682953, -0.0379339
-0.5576172, -0.2104492, -0.5478516, 32.9268303, 115.6097565, -59.9390259, -0.0433051
-0.5322266, -0.2060547, -0.5341797, 24.3292694, 110.9756088, -61.8292694, -0.0426337
-0.480957, -0.234375, -0.5053711, 10.1829271, 105.0609818, -67.3170776, -0.0426337
-0.4609375, -0.2617188, -0.4985352, 6.7073174, 105.3048782, -69.7560959, -0.0426337
-0.4399414, -0.3320312, -0.5258789, 7.9878049, 111.7073212, -73.1707306, -0.0392767
-0.4375, -0.359375, -0.5561523, 10.4268293, 115.5487823, -73.5365906, -0.0406195
-0.4282227, -0.3945312, -0.6000977, 9.7560978, 120.3048782, -72.3170776, -0.0365911
-0.4155273, -0.4042969, -0.6054688, 6.1585369, 121.3414688, -71.8902435, -0.0426337
-0.3837891, -0.4204102, -0.565918, -5.3658538, 123.3536606, -73.7804871, -0.0486763
-0.3740234, -0.4287109, -0.5322266, -10.2439022, 125.0609818, -76.5853653, -0.0433051
-0.3706055, -0.4580078, -0.465332, -12.6219511, 130.1829224, -83.5365906, -0.0342412
-0.3969727, -0.4838867, -0.4262695, -7.1951222, 132.3170776, -90.2439041, -0.0318914
-0.4169922, -0.4980469, -0.418457, -3.5975611, 131.646347, -92.7439041, -0.0365911
-0.4516602, -0.5063477, -0.3881836, 1.5853659, 127.0121994, -96.4024429, -0.0359197
-0.4604492, -0.503418, -0.3657227, 2.3170731, 123.9024429, -97.7439041, -0.0325628
-0.4775391, -0.4907227, -0.2861328, 1.6463414, 120.4268341, -99.3902435, -0.0365911
-0.4873047, -0.4848633, -0.2407227, 3.1707318, 120.7926865, -100.5487823, -0.0412909
-0.5244141, -0.5039062, -0.1889648, 14.8170738, 125.0609818, -101.5853653, -0.0406195
-0.5507812, -0.527832, -0.2055664, 26.1585369, 127.1341476, -100.4878082, -0.0412909
-0.5908203, -0.5869141, -0.3149414, 52.7439041, 126.1585388, -93.9634171, -0.0439765
-0.5981445, -0.6108398, -0.3901367, 65, 122.3780518, -88.7195129, -0.0433051
-0.5742188, -0.6342773, -0.5512695, 79.9390259, 111.7073212, -76.7682953, -0.0439765
-0.5092773, -0.6040039, -0.6772461, 83.4146347, 109.0243912, -66.0975647, -0.0433051
-0.4790039, -0.5839844, -0.7275391, 83.6585388, 112.6219559, -62.0731735, -0.0439765
-0.4199219, -0.5078125, -0.7890625, 80.2439041, 123.4146347, -57.1951218, -0.0493477
-0.3886719, -0.4541016, -0.7939453, 74.6951218, 128.2926788, -56.4634171, -0.0480049
-0.3198242, -0.3544922, -0.7490234, 55.7926826, 132.6829224, -59.9390259, -0.0500191
-0.2958984, -0.3203125, -0.715332, 45.7926826, 133.5975647, -64.1463394, -0.0493477
-0.2753906, -0.324707, -0.7016602, 37.3780479, 135, -73.3536606, -0.0506905
-0.2729492, -0.3549805, -0.7412109, 39.3902435, 134.6951294, -76.4634171, -0.0446479
-0.2617188, -0.4316406, -0.875, 44.7560997, 128.1097565, -76.4024429, -0.0459907
-0.2382812, -0.4550781, -0.9326172, 42.0121956, 122.86586, -74.5121994, -0.0493477
-0.1420898, -0.4633789, -0.9448242, 21.1585369, 116.4634171, -72.5609741, -0.0480049
-0.0395508, -0.4516602, -0.8022461, -9.5731707, 124.2682953, -78.4756088, -0.0486763
-0.0126953, -0.4477539, -0.6992188, -21.8292694, 133.8414612, -84.8170776, -0.0473335
-0.0327148, -0.4560547, -0.5131836, -31.5853672, 154.5731812, -100.8536606, -0.0473335
-0.0737305, -0.4584961, -0.449707, -30.1829281, 161.7073212, -108.9634171, -0.049012
-0.190918, -0.4838867, -0.3837891, -21.9512196, 163.6585388, -121.7682953, -0.0463264
-0.2460938, -0.4990234, -0.3808594, -17.439024, 158.9634247, -126.1585388, -0.0500191
-0.3544922, -0.5585938, -0.409668, -7.8658538, 144.3902435, -129.3902435, -0.0439765
-0.3950195, -0.5893555, -0.4448242, -2.5609756, 137.8048859, -128.1097565, -0.0466621
-0.4580078, -0.6469727, -0.5292969, 8.1707315, 129.5121918, -120.7926865, -0.0486763
-0.4804688, -0.6772461, -0.5708008, 11.8902445, 127.86586, -115.1219559, -0.0473335
-0.4750977, -0.675293, -0.5649414, 13.1097565, 127.6219559, -103.5975647, -0.0439765
-0.453125, -0.6625977, -0.503418, 12.3170738, 130.5487823, -94.9390259, -0.0446479
-0.4399414, -0.6586914, -0.4609375, 14.2682934, 131.8902435, -92.5609741, -0.0500191
-0.418457, -0.6616211, -0.4033203, 26.9512196, 132.7439117, -89.8170776, -0.0516976
-0.4091797, -0.6733398, -0.4018555, 37.1951218, 130.6097565, -89.2073212, -0.0500191
-0.390625, -0.6982422, -0.4702148, 60.9756126, 122.9268341, -86.7073212, -0.0433051
-0.3764648, -0.7026367, -0.5229492, 71.8902435, 117.7439041, -84.3902435, -0.0439765
-0.3261719, -0.6972656, -0.6342773, 84.7560959, 110.4878082, -78.0487823, -0.0439765
-0.2900391, -0.6757812, -0.6743164, 86.5243912, 110.1219559, -74.8780518, -0.0433051
-0.2182617, -0.6196289, -0.7109375, 83.8414688, 117.3780518, -71.2804871, -0.0476692
-0.1767578, -0.5683594, -0.734375, 81.2804871, 123.9634171, -71.0365906, -0.0506905
-0.1665039, -0.550293, -0.7470703, 75.9146347, 137.5609741, -73.2317123, -0.0446479
-0.1557617, -0.5185547, -0.7910156, 68.8414688, 142.6219482, -77.0731735, -0.0439765
-0.1484375, -0.5009766, -0.7983398, 63.4756126, 141.0975647, -78.9024429, -0.0453193
-0.1210938, -0.4492188, -0.7631836, 48.2317085, 134.4512177, -83.9634171, -0.0382696
-0.1074219, -0.4208984, -0.7192383, 40, 132.5, -87.6219559, -0.038941
-0.0893555, -0.3828125, -0.6201172, 26.5243912, 133.5365906, -97.0731735, -0.0473335
-0.1015625, -0.3789062, -0.5854492, 22.0121956, 136.4634247, -101.8902435, -0.0493477
-0.1533203, -0.4194336, -0.5766602, 19.5731716, 142.1951294, -109.3292694, -0.0513619
-0.1821289, -0.4580078, -0.612793, 20.7317085, 143.1097565, -110.6097565, -0.0476692
-0.2333984, -0.5581055, -0.7290039, 25, 139.3902435, -108.3536606, -0.0486763
-0.2402344, -0.6508789, -0.8496094, 24.0853672, 129.9390259, -100.6707306, -0.0486763
-0.2167969, -0.6855469, -0.8823242, 20.4268303, 126.0975647, -96.3414688, -0.0520333
-0.1533203, -0.7441406, -0.8857422, 9.4512196, 124.5731735, -90.1219559, -0.0560616
-0.1191406, -0.7734375, -0.8623047, 4.5731707, 127.9268341, -89.0243912, -0.0486763
-0.0664062, -0.8222656, -0.7910156, -1.2804878, 137.9878082, -89.8780518, -0.0506905
-0.0478516, -0.8378906, -0.7470703, -2.0731707, 142.3780518, -91.8292694, -0.0533761
-0.0205078, -0.8413086, -0.6352539, -0.1219512, 147.8048859, -97.4390259, -0.0540475
-0.0117188, -0.8359375, -0.574707, 3.2317073, 148.5975647, -101.5243912, -0.0500191
-0.0195312, -0.8227539, -0.4829102, 17.0121956, 148.7195129, -110.7926865, -0.0550546
-0.0336914, -0.8227539, -0.4736328, 27.9268303, 148.3536682, -114.8170776, -0.0540475
-0.0791016, -0.828125, -0.53125, 52.5609779, 145.6097565, -119.0243912, -0.0540475
-0.1137695, -0.7895508, -0.6196289, 66.8292694, 139.0853729, -117.9878082, -0.0530404
-0.1269531, -0.7514648, -0.6411133, 67.7439041, 136.5853729, -116.0365906, -0.0520333
-0.1342773, -0.6523438, -0.6328125, 63.3536606, 137.86586, -113.1097565, -0.0503548
-0.1435547, -0.6030273, -0.6220703, 62.4390259, 142.2561035, -112.1951218, -0.0480049
-0.2045898, -0.527832, -0.6733398, 67.1951218, 151.7073212, -109.5121994, -0.0433051
-0.2329102, -0.5024414, -0.7348633, 70.6097565, 153.2317047, -106.9512253, -0.0406195
-0.2617188, -0.4501953, -0.871582, 67.7439041, 146.4634247, -99.5731735, -0.0433051
-0.2504883, -0.4243164, -0.9106445, 58.2317085, 139.0243988, -95.8536606, -0.0433051
-0.1772461, -0.4160156, -0.9248047, 28.4146347, 125.36586, -90.6707306, -0.0473335
-0.1303711, -0.4428711, -0.9023438, 13.9024391, 121.7682953, -89.8780518, -0.0426337
-0.0483398, -0.5571289, -0.8847656, -4.4512196, 121.3414688, -89.0853653, -0.0372625
0.0268555, -0.7094727, -0.9155273, -9.5121956, 123.7195129, -87.4390259, -0.0433051
0.0727539, -0.7807617, -0.9345703, -11.341464, 123.9634171, -86.0365906, -0.0426337
0.159668, -0.9140625, -0.9580078, -15.6707325, 126.3414688, -85.9756088, -0.0379339
0.2026367, -0.9760742, -0.9638672, -16.7682934, 128.6585388, -86.8902435, -0.0386053
0.2666016, -1.0693359, -0.9458008, -15, 134.8780518, -91.0975647, -0.0396124
0.2954102, -1.0898438, -0.9174805, -13.9024391, 137.7439117, -93.9634171, -0.0459907
0.3320312, -1.0629883, -0.7836914, -14.4512196, 142.7439117, -102.3170776, -0.0453193
0.3374023, -1.0234375, -0.6782227, -16.4024391, 145.7926788, -108.1707306, -0.0396124
0.3071289, -0.9121094, -0.4277344, -15.2439032, 154.5121918, -124.146347, -0.0392767
0.2670898, -0.8632812, -0.3198242, -7.8658538, 159.3902435, -132.8048859, -0.0406195
0.1411133, -0.7822266, -0.2133789, 25.3658543, 166.1585388, -148.5975647, -0.0412909
-0.0131836, -0.7495117, -0.3359375, 70.8536606, 161.7073212, -155.7317047, -0.0412909
-0.0927734, -0.7475586, -0.4819336, 90.7926865, 153.9634247, -154.5731812, -0.0382696
-0.2060547, -0.7441406, -0.8847656, 111.3414688, 130.6097565, -141.4634247, -0.0352483
-0.230957, -0.7319336, -1.0966797, 108.9024429, 117.6219559, -131.0365906, -0.0332341
-0.1865234, -0.6845703, -1.3657227, 77.68293, 97.0121994, -106.4024429, -0.0345769
-0.1269531, -0.6464844, -1.3925781, 52.0121956, 92.8048782, -95.0609741, -0.0362554
0.0229492, -0.5546875, -1.2006836, -5.7926831, 101.2804871, -80.0609741, -0.0352483
0.0922852, -0.5327148, -1.0366211, -30.1829281, 111.8292694, -77.3170776, -0.0365911
0.1767578, -0.5478516, -0.7368164, -55.4878044, 133.9634247, -78.7804871, -0.0392767
0.1948242, -0.5854492, -0.6435547, -55.7926826, 139.7561035, -81.1585388, -0.0426337
0.230957, -0.7099609, -0.5996094, -41.7682953, 133.2926788, -85.4268341, -0.0486763
0.2988281, -0.8188477, -0.6513672, -26.7073174, 109.5121994, -89.5731735, -0.0486763
0.3442383, -0.8535156, -0.6743164, -22.6829281, 97.1951218, -92.5, -0.0433051
0.4306641, -0.887207, -0.6728516, -21.280489, 84.6341476, -100.4268341, -0.0486763
0.4584961, -0.8925781, -0.6513672, -20.3048782, 86.646347, -105.4878082, -0.0459907
0.4643555, -0.8974609, -0.5996094, -10.4268293, 104.5121994, -115.2439041, -0.0419623
0.4389648, -0.894043, -0.5932617, -1.2195122, 116.5853653, -119.2073212, -0.0412909
0.3598633, -0.9003906, -0.6542969, 21.4024391, 135.4268341, -124.0853653, -0.0392767
0.3193359, -0.9082031, -0.7246094, 32.5, 140.1829376, -124.6951218, -0.0379339
0.2543945, -0.9116211, -0.8969727, 45.7317085, 136.9512177, -123.2926865, -0.0412909
0.2329102, -0.9042969, -0.9750977, 46.4024391, 130.6097565, -121.7073212, -0.0459907
0.2231445, -0.862793, -1.0302734, 33.4756088, 116.7682953, -117.7439041, -0.0419623
0.2348633, -0.7978516, -0.9296875, 10.2439022, 111.2804871, -116.5853653, -0.0459907
0.2368164, -0.7729492, -0.8457031, 0.6707317, 113.9024429, -117.0121994, -0.0459907
0.2216797, -0.7666016, -0.7241211, -2.9268293, 124.2682953, -118.9634171, -0.0459907
0.2041016, -0.7919922, -0.7241211, 3.7804878, 127.8048782, -118.5975647, -0.0506905
0.184082, -0.855957, -0.8618164, 23.3536587, 122.6219559, -113.5365906, -0.0486763
0.1977539, -0.8774414, -0.9472656, 28.5975609, 113.8414688, -108.7195129, -0.0419623
0.2705078, -0.8466797, -1.0229492, 19.5121956, 91.2195129, -98.2926865, -0.0426337
0.3256836, -0.8071289, -0.9760742, 5.4268293, 83.8414688, -94.5121994, -0.0426337
0.4243164, -0.7011719, -0.7583008, -24.3292694, 85.4268341, -92.4390259, -0.0379339
0.4453125, -0.6635742, -0.625, -32.0121956, 95.2439041, -93.9634171, -0.0325628
0.4394531, -0.6367188, -0.4785156, -21.5853672, 119.3902435, -98.2317123, -0.0298772
0.4077148, -0.6689453, -0.5654297, 9.5121956, 129.0243988, -100.4268341, -0.03122
0.4033203, -0.6821289, -0.6811523, 22.9268303, 124.8170776, -100.2439041, -0.0352483
0.4296875, -0.6933594, -0.9399414, 30, 103.5365906, -100.0609818, -0.0369268
0.453125, -0.6884766, -1.0366211, 23.5975609, 91.7682953, -100.4268341, -0.0386053
0.5043945, -0.6679688, -1.1162109, -0.9146342, 78.1707306, -101.5853653, -0.0365911
0.5292969, -0.6513672, -1.0976562, -13.780488, 79.2682953, -102.2561035, -0.0379339
0.5395508, -0.6245117, -1.0087891, -31.4024391, 94.3292694, -103.0487823, -0.0433051
0.5302734, -0.6196289, -0.9663086, -35.6707344, 105, -102.9878082, -0.0449836
0.5, -0.6298828, -0.9101562, -40.4878044, 120.5487823, -101.0975647, -0.0412909
0.480957, -0.640625, -0.8847656, -44.1463432, 122.9878082, -99.5731735, -0.0433051
0.4702148, -0.6625977, -0.800293, -56.2195129, 118.3536606, -96.7073212, -0.0406195
0.4726562, -0.6660156, -0.6391602, -67.3780518, 110.18293, -97.5609741, -0.0392767
0.4682617, -0.6625977, -0.5463867, -68.6585388, 107.6219559, -100.18293, -0.0439765
0.4467773, -0.6674805, -0.3950195, -61.341465, 106.2195129, -108.2317123, -0.0406195
0.4277344, -0.6816406, -0.3481445, -52.9878044, 105.9756088, -112.86586, -0.0446479
0.3793945, -0.737793, -0.3476562, -29.1463413, 104.0243912, -121.8292694, -0.0453193
0.355957, -0.7797852, -0.4052734, -15, 100.7317123, -125.0609818, -0.0433051
0.3232422, -0.8891602, -0.6196289, 9.4512196, 89.2682953, -127.0121994, -0.0433051
0.3193359, -0.9448242, -0.7583008, 16.8292694, 80.7926865, -125.2439041, -0.0476692
0.3383789, -1.0117188, -1.0170898, 18.0487804, 63.7804909, -117.5609818, -0.0480049
0.3652344, -1.027832, -1.1137695, 12.6219511, 58.1097565, -112.9878082, -0.0486763
0.4282227, -1.0288086, -1.2265625, -2.195122, 57.0121956, -103.9634171, -0.0486763
0.4946289, -0.9746094, -1.2294922, -16.8902435, 69.0243912, -95.5487823, -0.0486763
0.5209961, -0.9204102, -1.175293, -24.8170738, 77.7439041, -91.8292694, -0.0473335
0.5556641, -0.7753906, -0.9755859, -42.7439041, 95.7317123, -87.0731735, -0.0486763
0.5571289, -0.7021484, -0.8408203, -51.7682953, 103.5975647, -86.0365906, -0.0473335
0.5478516, -0.5703125, -0.5561523, -61.6463432, 113.5365906, -87.1951218, -0.0486763
0.5366211, -0.5292969, -0.4311523, -60.6707344, 114.2073212, -89.0243912, -0.0500191
0.519043, -0.4780273, -0.2744141, -44.2682953, 106.8902435, -94.5731735, -0.0540475
0.5219727, -0.4726562, -0.2504883, -31.0365868, 99.2682953, -98.5365906, -0.0520333
0.5493164, -0.5, -0.3276367, -1.8292683, 80.9756088, -107.2561035, -0.0513619
0.5717773, -0.53125, -0.4140625, 9.6951218, 72.4390259, -111.9512253, -0.0527047
0.6049805, -0.6049805, -0.6293945, 19.1463413, 59.8780518, -119.146347, -0.056733
0.6181641, -0.6523438, -0.7910156, 10, 56.8292694, -123.7195129, -0.0527047
0.6098633, -0.6616211, -0.815918, 0.2439024, 59.7560997, -124.5731735, -0.0493477
0.5649414, -0.6616211, -0.7480469, -20.6097565, 72.5, -124.3902435, -0.0530404
0.5336914, -0.6611328, -0.6831055, -29.3902454, 80.4878082, -123.2926865, -0.0520333
0.4746094, -0.6748047, -0.5444336, -37.2560997, 92.9268341, -121.0365906, -0.0453193
0.4458008, -0.7006836, -0.5039062, -34.6951218, 95.2439041, -120.3048782, -0.0446479
0.4223633, -0.809082, -0.5395508, -15.060976, 90.9756088, -118.7195129, -0.0533761
0.4243164, -0.8696289, -0.628418, -0.7317073, 84.4512253, -118.3536606, -0.0493477
0.4658203, -0.9663086, -0.8833008, 20.9146347, 65.9756088, -116.4634171, -0.0459907
0.5380859, -0.9614258, -1.0532227, 22.3170738, 56.5243912, -115.0609818, -0.042298
0.5751953, -0.9213867, -1.0512695, 1.7073171, 48.2926826, -113.5975647, -0.038941
0.6152344, -0.8271484, -0.8920898, -26.9512196, 63.5975609, -114.3902435, -0.0406195
0.6103516, -0.7954102, -0.8022461, -34.6341476, 76.8292694, -114.6951218, -0.0433051
0.5869141, -0.7719727, -0.7016602, -29.4512196, 99.146347, -112.3780518, -0.0473335
0.578125, -0.7617188, -0.7050781, -20.2439022, 103.4756088, -109.8170776, -0.0463264
0.5952148, -0.7138672, -0.753418, -6.9512196, 96.8902435, -104.146347, -0.0449836
0.6142578, -0.6655273, -0.7685547, -7.3780489, 89.8170776, -102.3780518, -0.0473335
0.6708984, -0.5585938, -0.6953125, -21.8902435, 78.7195129, -103.5975647, -0.0459907
0.690918, -0.5180664, -0.6152344, -31.280489, 77.8658524, -105.5487823, -0.0459907
0.6855469, -0.465332, -0.4526367, -38.5365868, 85.3658524, -111.7682953, -0.0530404
0.6503906, -0.4868164, -0.4052734, -34.3292694, 90.3048782, -114.8780518, -0.0513619
0.6333008, -0.512207, -0.4399414, -15.8536587, 94.2073212, -120.2439041, -0.0473335
0.6186523, -0.5683594, -0.5742188, -1.2804878, 86.5853653, -122.5, -0.0480049
0.621582, -0.5913086, -0.644043, 0, 79.9390259, -123.5365906, -0.0459907
0.6318359, -0.625, -0.7211914, -8.6585369, 70.0609741, -124.5121994, -0.0473335
0.6333008, -0.6416016, -0.7226562, -15.3048782, 68.9634171, -124.8170776, -0.0486763
0.6293945, -0.6645508, -0.6762695, -25.8536587, 74.2073212, -123.8414688, -0.0486763
0.6274414, -0.6757812, -0.6484375, -27.8048782, 79.0243912, -122.8048782, -0.0453193
0.6103516, -0.6904297, -0.6147461, -26.8902454, 86.8902435, -119.0853653, -0.0453193
0.6108398, -0.6933594, -0.6035156, -25.9146347, 88.4756088, -117.0121994, -0.0473335
0.6259766, -0.6918945, -0.5585938, -27.1341476, 86.3414688, -114.146347, -0.0459907
0.6508789, -0.6762695, -0.4736328, -29.3902454, 84.5121994, -113.6585388, -0.0459907
0.6577148, -0.6728516, -0.421875, -32.1341476, 82.2560959, -115.4268341, -0.0486763
0.6611328, -0.6889648, -0.3520508, -22.8048782, 83.4146347, -120.6707382, -0.0446479
0.6601562, -0.7119141, -0.3632812, -11.0975609, 84.4512253, -123.9634171, -0.0463264
0.6586914, -0.7851562, -0.5341797, 22.0731716, 82.5, -128.9024353, -0.0480049
0.6689453, -0.8168945, -0.6962891, 37.3780479, 78.4146347, -130.1219482, -0.0406195
0.7094727, -0.8408203, -1.0541992, 48.9634171, 66.4024429, -129.7561035, -0.0386053
0.7368164, -0.8110352, -1.1816406, 40.4878044, 61.6463432, -128.2926788, -0.0406195
0.7875977, -0.6967773, -1.1982422, 0, 64.8780518, -124.4512253, -0.0439765
0.7851562, -0.6230469, -1.0800781, -24.8780499, 74.8780518, -122.0121994, -0.0382696
0.746582, -0.4956055, -0.7314453, -60, 105.3658524, -117.68293, -0.0449836
0.6816406, -0.4384766, -0.4785156, -58.841465, 128.7195129, -112.7439041, -0.0513619
0.6640625, -0.4443359, -0.4472656, -47.2560997, 130.9146423, -110.7317123, -0.0506905
0.6865234, -0.4765625, -0.5688477, -20.7317085, 114.8780518, -107.8658524, -0.0486763
0.7294922, -0.5, -0.6850586, -13.2317076, 100.0609818, -107.9878082, -0.0493477
0.8417969, -0.5292969, -0.8798828, -17.9268303, 73.3536606, -111.5853653, -0.0449836
0.8925781, -0.5292969, -0.9179688, -28.0487804, 67.4390259, -114.6951218, -0.0493477
0.9370117, -0.5087891, -0.8623047, -53.6585388, 75, -120.3048782, -0.0459907
0.9228516, -0.4970703, -0.7890625, -64.0853653, 86.4024429, -121.8292694, -0.0459907
0.855957, -0.4707031, -0.6176758, -75.5487823, 109.7561035, -119.8780518, -0.0506905
0.8193359, -0.4702148, -0.543457, -76.7073212, 117.3780518, -116.5853653, -0.0466621
0.7724609, -0.4707031, -0.434082, -73.9024429, 120, -109.6341476, -0.0473335
0.769043, -0.4829102, -0.3642578, -67.5609741, 109.7561035, -105.7926865, -0.0473335
0.7773438, -0.4941406, -0.3393555, -63.4756126, 103.3536606, -105.6097565, -0.0439765
0.7993164, -0.5185547, -0.3129883, -52.9878044, 93.2926865, -109.146347, -0.0486763
0.8085938, -0.5341797, -0.3105469, -46.341465, 89.9390259, -111.5243912, -0.0439765
0.8198242, -0.5742188, -0.3618164, -31.4024391, 87.1341476, -117.1951218, -0.0406195
0.8256836, -0.6069336, -0.4082031, -25.1829281, 86.0365906, -119.0853653, -0.0446479
0.8413086, -0.6777344, -0.5473633, -14.8780489, 84.0853653, -120.9756088, -0.0426337
0.8574219, -0.7182617, -0.6289062, -10.4268293, 82.5, -121.3414688, -0.0433051
0.8925781, -0.7822266, -0.8203125, -3.4146342, 79.3902435, -121.0975647, -0.0433051
0.9145508, -0.7929688, -0.9067383, -2.6219513, 78.0487823, -119.8780518, -0.0433051
0.9555664, -0.746582, -0.9912109, -12.0121956, 78.1707306, -116.5243912, -0.0419623
0.9726562, -0.6259766, -0.8774414, -34.8170738, 86.9512253, -111.646347, -0.0406195
0.9667969, -0.5532227, -0.7490234, -48.4146347, 95.18293, -108.5365906, -0.0419623
0.9262695, -0.4282227, -0.4379883, -65, 112.3170776, -103.2317123, -0.0412909
0.8984375, -0.3823242, -0.3037109, -63.9634171, 118.1707382, -101.5853653, -0.0433051
0.875, -0.347168, -0.1972656, -38.7195129, 117.86586, -101.8292694, -0.0459907
0.8852539, -0.3613281, -0.2524414, -19.2682934, 110.4878082, -103.9024429, -0.0493477
0.9584961, -0.4169922, -0.5478516, 11.9512196, 85.4878082, -110.9146347, -0.0527047
1.0014648, -0.4433594, -0.734375, 17.0121956, 72.5, -115.1219559, -0.0527047
1.0712891, -0.4633789, -1.0102539, 0.5487805, 57.2560997, -122.3170776, -0.0520333
1.0761719, -0.4589844, -1.0546875, -16.7073174, 58.7804909, -124.0243912, -0.0513619
1.0258789, -0.4277344, -0.9472656, -53.7195129, 78.2317123, -121.0365906, -0.0476692
0.9418945, -0.3999023, -0.7138672, -74.1463394, 102.7439041, -111.1585388, -0.0476692
0.9116211, -0.3896484, -0.6186523, -76.2804871, 110.7317123, -105.1219559, -0.0516976
0.894043, -0.4008789, -0.5058594, -70.4878082, 112.0121994, -95.4878082, -0.0533761
0.9169922, -0.4116211, -0.4887695, -66.2804871, 106.1585388, -92.6219559, -0.0540475
0.9814453, -0.4433594, -0.4819336, -60.3048782, 89.6951218, -91.7682953, -0.0486763
1.0161133, -0.4599609, -0.4799805, -58.9634171, 83.1097565, -93.5365906, -0.0473335
1.0517578, -0.4760742, -0.4536133, -57.1341476, 78.3536606, -99.8780518, -0.0446479
1.0522461, -0.46875, -0.4257812, -55.8536606, 80.3658524, -102.5, -0.0439765
1.0258789, -0.4589844, -0.3754883, -50.0609779, 87.7439041, -105.4268341, -0.0433051
1.0083008, -0.453125, -0.3583984, -46.7073174, 90.8536606, -105.6097565, -0.0365911
0.9726562, -0.4570312, -0.3486328, -39.6951218, 92.68293, -103.7804871, -0.0352483
0.9716797, -0.4780273, -0.3666992, -34.5731697, 88.5365906, -101.8292694, -0.0379339
0.9731445, -0.4887695, -0.3798828, -32.3170738, 85.7317123, -101.9512253, -0.0352483
0.984375, -0.5073242, -0.4052734, -26.9512196, 81.1585388, -104.146347, -0.0396124
0.9829102, -0.5161133, -0.4248047, -22.8658543, 79.2073212, -105.9146347, -0.0406195
0.9824219, -0.5224609, -0.4985352, -12.8048782, 77.2560959, -109.3292694, -0.0436408
0.9829102, -0.5214844, -0.5605469, -7.5, 76.4634171, -110.0609818, -0.0443122
0.9931641, -0.5195312, -0.7133789, -2.0121951, 74.2073212, -110, -0.0372625
1.0048828, -0.512207, -0.7880859, -4.6951222, 72.8048782, -108.4146347, -0.0466621
1.0253906, -0.4658203, -0.8422852, -21.7073174, 73.7804871, -103.8414688, -0.0412909
1.0273438, -0.4331055, -0.8081055, -33.7804871, 76.5853653, -101.3414688, -0.0352483
1.0092773, -0.3618164, -0.6357422, -54.4512215, 86.646347, -96.646347, -0.0352483
0.9755859, -0.3188477, -0.4438477, -59.8780518, 95.4878082, -93.2317123, -0.0399481
0.9643555, -0.309082, -0.3930664, -55.8536606, 96.5853653, -92.1951218, -0.0419623
0.9829102, -0.3388672, -0.4165039, -39.0853653, 89.8170776, -92.0121994, -0.0406195
1.0092773, -0.3657227, -0.4853516, -30.6097565, 82.9268341, -92.7439041, -0.0386053
1.0830078, -0.4194336, -0.6728516, -24.0243912, 68.9024429, -95.6707306, -0.0339055
1.1147461, -0.4331055, -0.75, -27.1951218, 64.6951218, -97.1341476, -0.0339055
1.1401367, -0.418457, -0.7758789, -43.4146347, 68.3536606, -98.3536606, -0.0352483
1.121582, -0.3950195, -0.7260742, -53.2926826, 75.4878082, -98.1707306, -0.0379339
1.0522461, -0.3354492, -0.5522461, -67.4390259, 93.0487823, -94.3292694, -0.0406195
1.0185547, -0.3066406, -0.4570312, -70.8536606, 99.5731735, -91.0975647, -0.0382696
0.9526367, -0.2602539, -0.2905273, -72.0121994, 103.1707306, -84.6951218, -0.0392767
0.9360352, -0.2548828, -0.190918, -67.68293, 94.5121994, -80.2439041, -0.0352483
0.9423828, -0.265625, -0.1713867, -63.5365868, 87.7439041, -80, -0.0392767
0.9799805, -0.3237305, -0.1938477, -51.2195129, 73.9024429, -81.8292694, -0.0399481
1.0043945, -0.3564453, -0.2348633, -44.2682953, 67.8048782, -84.0853653, -0.0433051
1.0483398, -0.4311523, -0.3447266, -32.5609779, 60.8536606, -88.0487823, -0.0392767
1.0678711, -0.456543, -0.4038086, -29.3292694, 59.8780518, -88.9024429, -0.0382696
1.0874023, -0.4858398, -0.4873047, -28.9024391, 62.6219521, -89.2682953, -0.0359197
1.0898438, -0.4887695, -0.5009766, -30.7926846, 66.1585388, -88.3536606, -0.0365911
1.0844727, -0.46875, -0.4882812, -34.2682953, 73.4146347, -85.7926865, -0.0386053
1.0756836, -0.4482422, -0.4667969, -34.0243912, 76.7682953, -84.2682953, -0.0406195
1.0625, -0.4106445, -0.4414062, -30.060976, 79.3902435, -82.5609741, -0.0446479
1.0678711, -0.3666992, -0.4570312, -23.9024391, 76.3414688, -82.1341476, -0.0453193
1.0795898, -0.3525391, -0.4750977, -22.5, 73.7804871, -82.2560959, -0.0466621
1.0957031, -0.3164062, -0.5029297, -25.5487804, 69.5121994, -82.8658524, -0.0466621
1.097168, -0.2973633, -0.5039062, -29.2073174, 68.7195129, -83.4146347, -0.0439765
1.0834961, -0.2685547, -0.4716797, -37.0731697, 70.3658524, -84.0243912, -0.0419623
1.0683594, -0.2602539, -0.4506836, -40.4268303, 71.4634171, -84.0853653, -0.0466621
1.0400391, -0.2514648, -0.4072266, -43.5365868, 72.1341476, -82.6219559, -0.0459907
1.0341797, -0.2524414, -0.3994141, -43.3536606, 70.9756088, -81.5853653, -0.0446479
1.0322266, -0.2714844, -0.4086914, -42.0121956, 66.5243912, -79.0243912, -0.0426337
1.0390625, -0.2788086, -0.4179688, -42.0731735, 63.9024391, -78.2317123, -0.0426337
1.0620117, -0.3037109, -0.4370117, -44.6341476, 60.18293, -76.646347, -0.0446479
1.0722656, -0.3227539, -0.4194336, -49.5731735, 60, -76.2804871, -0.0426337
1.0717773, -0.3334961, -0.4003906, -51.1585388, 61.0975609, -76.3414688, -0.0406195
1.0615234, -0.3432617, -0.3500977, -52.6219521, 63.841465, -76.646347, -0.0446479
1.0458984, -0.3422852, -0.324707, -52.1341476, 64.6341476, -76.7682953, -0.0426337
1.0258789, -0.331543, -0.2597656, -50.6707344, 64.7560959, -76.646347, -0.0433051
1.0117188, -0.3291016, -0.2285156, -48.9634171, 64.5731735, -76.646347, -0.0406195
0.9916992, -0.3261719, -0.1791992, -42.6829262, 62.68293, -76.8292694, -0.0433051
0.9912109, -0.3286133, -0.1665039, -37.9878044, 61.1585388, -76.8292694, -0.0406195
0.9956055, -0.3422852, -0.1811523, -27.560976, 56.2195129, -77.1341476, -0.0406195
0.9990234, -0.34375, -0.2001953, -22.8048782, 53.9024391, -76.9512177, -0.0419623
1.0131836, -0.3457031, -0.2441406, -15.7926836, 50.2439041, -76.7682953, -0.0406195
1.0239258, -0.3349609, -0.2797852, -10.6097565, 49.5121956, -75.7317123, -0.0392767
1.0283203, -0.3295898, -0.3022461, -7.9268293, 50, -75.7317123, -0.0419623
1.0444336, -0.3144531, -0.3647461, -1.7682927, 50.9756126, -74.5121994, -0.0412909
1.0541992, -0.3100586, -0.4121094, 0.4268293, 50.6097565, -73.7804871, -0.0433051
1.0795898, -0.2836914, -0.5, 1.097561, 49.4512215, -72.1341476, -0.0449836
1.0947266, -0.2617188, -0.5317383, -0.9756098, 49.5121956, -71.5853653, -0.0433051
1.1054688, -0.2084961, -0.5615234, -8.841464, 52.5, -70.6097565, -0.0449836
1.1064453, -0.1801758, -0.5576172, -13.5975609, 54.7560997, -69.8170776, -0.0446479
1.0849609, -0.1289062, -0.5297852, -23.780489, 59.5121956, -67.68293, -0.0446479
1.0664062, -0.0830078, -0.4741211, -28.3536587, 61.0365868, -65.7926865, -0.0439765
1.0605469, -0.0629883, -0.4428711, -36.7073174, 61.8292694, -62.9268303, -0.0459907
1.0488281, -0.0576172, -0.3959961, -43.9024391, 59.3902435, -61.0365868, -0.0439765
1.0444336, -0.0703125, -0.3740234, -47.1341476, 56.9512215, -60.3658562, -0.0419623
1.0581055, -0.1259766, -0.3657227, -52.1341476, 50.1829262, -57.6219521, -0.0419623
1.0795898, -0.1665039, -0.3706055, -54.2682953, 47.0731735, -57.2560997, -0.0419623
1.1098633, -0.2441406, -0.3789062, -56.8902435, 43.9634171, -58.0487823, -0.0466621
1.1162109, -0.2802734, -0.3808594, -57.1951218, 43.9634171, -58.5365868, -0.0480049
1.1123047, -0.3325195, -0.3754883, -56.341465, 46.341465, -59.3902435, -0.0506905
1.1074219, -0.3505859, -0.3657227, -55.3048782, 47.6829262, -59.2682953, -0.049012
1.0854492, -0.3652344, -0.3383789, -53.2926826, 50.3048782, -58.2317085, -0.0459907
1.0668945, -0.3603516, -0.2993164, -51.7073174, 51.2195129, -57.3780518, -0.0473335
1.0581055, -0.3505859, -0.28125, -47.5, 51.9512215, -55.5487823, -0.042298
1.0380859, -0.3388672, -0.2612305, -40.4268303, 50.9146347, -54.9390259, -0.0436408
1.0283203, -0.331543, -0.2661133, -36.0975609, 49.0853653, -54.7560997, -0.0433051
1.0317383, -0.3149414, -0.2963867, -28.7195129, 44.8780479, -53.7804909, -0.0453193
1.0366211, -0.3076172, -0.3237305, -26.0975609, 42.3780479, -52.9268303, -0.0459907
1.0517578, -0.2958984, -0.3803711, -23.9024391, 39.2073174, -50.7926826, -0.0463264
1.0625, -0.2890625, -0.4018555, -23.9634151, 38.4756088, -49.5121956, -0.0466621
1.0761719, -0.2592773, -0.4360352, -25.2439022, 39.3292694, -47.3170738, -0.0446479
1.0786133, -0.2397461, -0.4472656, -25.9146347, 40.3658562, -46.4024391, -0.049012
1.0703125, -0.1860352, -0.4570312, -27.9878063, 43.0487823, -44.8170738, -0.0459907
1.0576172, -0.1386719, -0.4614258, -30.4268303, 44.2073174, -43.3536606, -0.0439765
1.0527344, -0.1162109, -0.4707031, -32.5609779, 43.7195129, -42.5609779, -0.0446479
1.0478516, -0.0986328, -0.4931641, -39.5121956, 41.2804871, -41.2195129, -0.0446479
1.050293, -0.1005859, -0.5, -44.3902435, 39.3292694, -40.4878044, -0.0439765
1.0405273, -0.1020508, -0.4926758, -56.2195129, 35.5487823, -39.1463432, -0.0426337
1.0395508, -0.1108398, -0.4697266, -62.4390259, 34.0853653, -38.7804871, -0.0446479
1.0214844, -0.1264648, -0.4042969, -72.2560959, 33.1097565, -37.3170738, -0.0433051
1.0097656, -0.1416016, -0.3789062, -74.4512177, 32.6829262, -36.7682953, -0.0439765
0.9936523, -0.1835938, -0.3486328, -73.9634171, 30.4268303, -34.5731697, -0.0439765
0.9907227, -0.203125, -0.3540039, -71.8902435, 28.2317085, -32.9878044, -0.0399481
1.0048828, -0.2392578, -0.4033203, -68.4756088, 22.7439022, -30.3048782, -0.0392767
1.0239258, -0.2548828, -0.4438477, -68.8414688, 19.8170738, -28.1097565, -0.0365911
1.0268555, -0.2529297, -0.4492188, -71.0365906, 20.2439022, -27.6219521, -0.0382696
1.0151367, -0.2504883, -0.4296875, -76.9512177, 22.6829281, -26.2195129, -0.0365911
1.0048828, -0.2460938, -0.4023438, -79.5731735, 23.8414631, -25.3658543, -0.0379339
0.9887695, -0.2392578, -0.3491211, -83.5975647, 22.8658543, -22.5, -0.0409552
0.9897461, -0.2397461, -0.3242188, -84.146347, 20.9756107, -21.1585369, -0.0419623
1.0014648, -0.2529297, -0.2993164, -82.4390259, 15.6097565, -18.9634151, -0.0453193
1.0063477, -0.2626953, -0.3007812, -79.9390259, 12.4390249, -17.8048782, -0.0439765
1.0390625, -0.2739258, -0.331543, -72.8658524, 7.9268293, -16.7682934, -0.0412909
1.0541992, -0.2729492, -0.3564453, -69.2073212, 7.1951222, -16.6463413, -0.0426337
1.0688477, -0.2495117, -0.4189453, -63.7195129, 8.780488, -16.280489, -0.0406195
1.0551758, -0.1870117, -0.4365234, -65.2439041, 12.8048782, -15.3048782, -0.0386053
1.0351562, -0.1484375, -0.4277344, -68.2926865, 14.8780489, -14.3902445, -0.0399481
0.9975586, -0.0737305, -0.371582, -76.2195129, 18.4146347, -12.3780489, -0.0433051
0.9790039, -0.0395508, -0.3374023, -79.6951218, 17.9878044, -11.341464, -0.0466621
0.9365234, -0.0107422, -0.2895508, -85.3048782, 12.8658543, -8.5975609, -0.0459907
0.9296875, -0.0083008, -0.2807617, -86.2804871, 7.3170733, -7.5, -0.0412909
0.9418945, -0.034668, -0.2958984, -86.5243912, -4.8170733, -3.9024391, -0.0433051
0.9624023, -0.0522461, -0.3271484, -86.0365906, -10.2439022, -1.6463414, -0.0453193
1.0126953, -0.0888672, -0.3920898, -86.4634171, -17.1341476, 2.3780489, -0.0396124
1.0356445, -0.1030273, -0.4194336, -88.4756088, -18.4756107, 4.6341462, -0.0439765
1.0727539, -0.1103516, -0.4267578, -95.4268341, -16.5243912, 8.2926826, -0.0433051
1.0786133, -0.1035156, -0.3642578, -104.146347, -11.4634151, 10.5487804, -0.0486763
1.0737305, -0.0976562, -0.3198242, -106.8292694, -10.1219511, 11.280488, -0.0446479
1.0551758, -0.1054688, -0.2441406, -105.3048782, -11.8902445, 12.0731707, -0.0463264
1.0507812, -0.1152344, -0.2275391, -102.3780518, -15.8536587, 12.1951218, -0.0480049
1.0541992, -0.1337891, -0.2387695, -93.0487823, -25.3658543, 12.8048782, -0.0459907
1.0634766, -0.1411133, -0.2597656, -89.0243912, -29.6341476, 13.3536587, -0.0486763
1.0869141, -0.1425781, -0.2988281, -84.9390259, -33.1707306, 14.6951227, -0.0453193
1.09375, -0.1376953, -0.309082, -84.5121994, -32.9878044, 15.6097565, -0.0473335
1.0888672, -0.1313477, -0.3115234, -85.1219559, -30.9146347, 17.7439022, -0.0459907
1.0888672, -0.1298828, -0.3110352, -85.6097565, -30.9146347, 19.0853672, -0.0446479
1.0922852, -0.1376953, -0.3134766, -84.5121994, -33.841465, 21.3414631, -0.0486763
1.1040039, -0.1542969, -0.3291016, -81.0365906, -39.1463432, 22.5, -0.0486763
1.1088867, -0.1606445, -0.3510742, -78.2926865, -41.1585388, 22.0731716, -0.0473335
1.1206055, -0.184082, -0.4130859, -72.7439041, -43.7804871, 21.8902435, -0.0486763
1.125, -0.1899414, -0.4555664, -70.5487823, -44.5731735, 21.7682934, -0.0439765
1.1201172, -0.1855469, -0.5385742, -69.5731735, -44.6951218, 22.439024, -0.0473335
1.1123047, -0.1738281, -0.5678711, -71.8292694, -44.2682953, 23.6585369, -0.0486763
1.0913086, -0.1313477, -0.5488281, -82.1341476, -42.9878044, 27.2560978, -0.0459907
1.0839844, -0.1079102, -0.5087891, -89.146347, -42.1341476, 29.5731716, -0.0446479
1.0576172, -0.0678711, -0.3823242, -101.0975647, -42.1951218, 34.0853653, -0.0433051
1.0512695, -0.0639648, -0.3183594, -103.6585388, -44.1463432, 36.1585388, -0.0406195
1.050293, -0.0805664, -0.2431641, -102.6219559, -51.9512215, 39.2682953, -0.0466621
1.0859375, -0.1450195, -0.2543945, -95, -64.1463394, 41.8292694, -0.0453193
1.1152344, -0.1855469, -0.2841797, -91.0975647, -69.2682953, 42.7439041, -0.0459907
1.1787109, -0.2558594, -0.3642578, -82.68293, -74.4512177, 42.6829262, -0.0433051
1.2001953, -0.2856445, -0.4106445, -78.7195129, -74.5121994, 41.7682953, -0.0379339
1.2119141, -0.3149414, -0.4873047, -73.5975647, -71.5853653, 39.0853653, -0.0359197
1.2006836, -0.3076172, -0.5029297, -73.5365906, -69.5121994, 37.8658562, -0.0345769
1.1547852, -0.2719727, -0.4755859, -76.646347, -65, 37.1951218, -0.0392767
1.1230469, -0.2524414, -0.4418945, -78.4756088, -63.9634171, 37.0731697, -0.0446479
1.0605469, -0.2280273, -0.3730469, -78.8414688, -65.3658524, 37.7439041, -0.0453193
1.0424805, -0.222168, -0.3544922, -76.7073212, -68.0487823, 38.5975609, -0.0419623
1.0283203, -0.2368164, -0.3696289, -67.4390259, -76.2804871, 40.6097565, -0.0433051
1.0449219, -0.2636719, -0.465332, -57.8048782, -84.8170776, 43.4146347, -0.0419623
1.0654297, -0.2719727, -0.5166016, -56.4634171, -88.0487823, 45.0609779, -0.0416266
1.1044922, -0.2773438, -0.5883789, -60.9146347, -89.146347, 47.9878044, -0.0382696
1.1162109, -0.2724609, -0.5869141, -65.8536606, -87.8048782, 49.0243912, -0.0406195
1.1201172, -0.2675781, -0.5361328, -74.4512177, -83.9024429, 49.5121956, -0.0446479
1.1088867, -0.2626953, -0.4975586, -77.1951218, -82.9268341, 49.1463432, -0.0503548
1.0800781, -0.2685547, -0.4282227, -77.0731735, -85.1219559, 48.1097565, -0.0500191
1.0722656, -0.2797852, -0.4121094, -74.4512177, -87.7439041, 47.9878044, -0.0503548
1.0722656, -0.3173828, -0.4238281, -65.1219559, -94.6341476, 48.1707344, -0.0500191
1.0830078, -0.3320312, -0.4511719, -59.9390259, -97.0121994, 48.7195129, -0.0506905
1.0976562, -0.3408203, -0.519043, -52.1341476, -99.3902435, 49.3292694, -0.0520333
1.0952148, -0.3115234, -0.5454102, -51.0365868, -97.0731735, 50.1219521, -0.0533761
1.0825195, -0.2944336, -0.5458984, -52.6829262, -95.8536606, 50.0609779, -0.0574044
1.0546875, -0.2773438, -0.5258789, -57.1341476, -94.5731735, 50.6707344, -0.056733
1.0395508, -0.2802734, -0.5107422, -58.9634171, -95.9146347, 50.8536606, -0.0553902
1.0170898, -0.2963867, -0.4912109, -59.4512215, -101.8902435, 50.7926826, -0.0587472
1.0151367, -0.3105469, -0.487793, -58.4756126, -105.6707306, 51.0975609, -0.0533761
1.0136719, -0.3334961, -0.4853516, -55.6097565, -111.4024429, 51.7682953, -0.06009
1.0219727, -0.3413086, -0.4853516, -53.1707344, -113.2317123, 52.9268303, -0.0574044
1.0307617, -0.3579102, -0.5136719, -45.2439041, -113.4146347, 54.8780518, -0.0540475
1.0351562, -0.3632812, -0.5454102, -40.1219521, -112.86586, 55.8536606, -0.0486763
1.046875, -0.3579102, -0.6245117, -32.4390259, -111.7682953, 58.6585388, -0.0433051
1.0649414, -0.3183594, -0.684082, -32.0731697, -110.5487823, 60.7926826, -0.0476692
1.0664062, -0.2900391, -0.6953125, -35.0609779, -109.6341476, 61.2195129, -0.0446479
1.0551758, -0.2387695, -0.6635742, -44.0243912, -107.9268341, 60.7317085, -0.0473335
1.0405273, -0.2255859, -0.6357422, -48.5975609, -107.6219559, 60.3048782, -0.0513619
1.0117188, -0.2280273, -0.5805664, -53.6585388, -111.0975647, 59.7560997, -0.0449836
1.003418, -0.2397461, -0.5644531, -54.2073174, -113.9634171, 60.0609779, -0.0459907
0.9985352, -0.2749023, -0.5649414, -52.0121956, -121.2195129, 62.3780518, -0.0463264
1.0043945, -0.2993164, -0.5776367, -50.2439041, -124.0853653, 64.3292694, -0.0446479
1.0317383, -0.3227539, -0.609375, -46.0365868, -126.7073212, 68.1707306, -0.0493477
1.0473633, -0.3300781, -0.625, -44.0243912, -126.4634171, 69.8170776, -0.0506905
1.0673828, -0.3222656, -0.6474609, -42.6829262, -124.0243912, 71.7682953, -0.0463264
1.0786133, -0.2988281, -0.6337891, -45.7317085, -121.4634171, 72.4390259, -0.0412909
1.0693359, -0.2939453, -0.6147461, -48.2926826, -120.9146347, 71.8902435, -0.0446479
1.0483398, -0.3041992, -0.5810547, -49.5731735, -123.4146347, 70.4878082, -0.0412909
1.0361328, -0.3110352, -0.5761719, -48.1707344, -125.8536606, 69.9390259, -0.0379339
1.0332031, -0.3320312, -0.5864258, -43.1707344, -132.0731812, 70.3658524, -0.0419623
1.03125, -0.3432617, -0.6044922, -41.341465, -134.6341553, 71.2804871, -0.0449836
1.0473633, -0.3510742, -0.6308594, -37.8048782, -136.7682953, 74.0853653, -0.0433051
1.0571289, -0.347168, -0.6479492, -35.9756088, -136.2195129, 75.3658524, -0.0433051
1.0693359, -0.3276367, -0.6889648, -31.8292694, -133.9024353, 77.3170776, -0.0446479
1.0732422, -0.3198242, -0.7070312, -30.9146347, -133.2317047, 78.2317123, -0.0419623
1.0766602, -0.2890625, -0.7285156, -33.2926826, -133.7804871, 79.146347, -0.0480049
1.0839844, -0.2758789, -0.7250977, -38.4146347, -135.1829224, 79.0243912, -0.0446479
1.0810547, -0.2773438, -0.7285156, -39.4512215, -135.6707306, 79.3902435, -0.0433051
1.0859375, -0.2978516, -0.769043, -35.6707344, -138.2926788, 80.18293, -0.0426337
1.0913086, -0.3061523, -0.8095703, -33.1707306, -140.1219482, 80.8536606, -0.0473335
1.1201172, -0.3129883, -0.878418, -31.8902454, -142.4390259, 84.3292694, -0.0466621
1.137207, -0.2939453, -0.890625, -35.3048782, -141.9512177, 85.4878082, -0.0446479
1.1582031, -0.2475586, -0.8291016, -47.5609779, -136.0975647, 87.4390259, -0.0433051
1.1557617, -0.2265625, -0.7724609, -54.3902435, -132.2561035, 87.3780518, -0.0439765
1.1269531, -0.2202148, -0.6523438, -63.5365868, -129.6951294, 86.8292694, -0.0399481
1.1035156, -0.269043, -0.5766602, -64.0853653, -131.9512177, 86.2804871, -0.042298
1.0957031, -0.2988281, -0.5654297, -58.1097565, -142.5609741, 85.18293, -0.0419623
1.1132812, -0.3461914, -0.5820312, -46.9512215, -152.9268341, 85.3658524, -0.0433051
1.1245117, -0.3662109, -0.6005859, -42.0731735, -155.5487823, 85.4878082, -0.042298
1.144043, -0.3959961, -0.6396484, -35.3048782, -155.4268341, 86.7682953, -0.0386053
1.1494141, -0.3925781, -0.652832, -33.5365868, -153.5365906, 87.1951218, -0.0419623
1.1459961, -0.3891602, -0.6601562, -29.7560978, -149.6951294, 87.5, -0.0396124
1.1396484, -0.3818359, -0.6586914, -27.6829281, -148.5975647, 87.1951218, -0.0419623
1.1157227, -0.3588867, -0.6572266, -23.1097565, -149.5121918, 85.9756088, -0.0419623
1.1083984, -0.3520508, -0.659668, -20.4878044, -151.2804871, 85.1219559, -0.038941
1.0913086, -0.3388672, -0.684082, -14.5121956, -155.2439117, 83.9634171, -0.0466621
1.0864258, -0.3286133, -0.730957, -11.8902445, -157.5, 83.8414688, -0.0513619
1.0883789, -0.3286133, -0.7583008, -8.719512, -160.2439117, 85.1219559, -0.0513619
1.090332, -0.3188477, -0.8061523, -8.3536587, -161.5243988, 86.8902435, -0.0466621
1.0917969, -0.3144531, -0.8217773, -9.9390249, -161.0975647, 87.7439041, -0.0409552
1.090332, -0.2944336, -0.8237305, -15.060976, -159.3292694, 89.146347, -0.0449836
1.090332, -0.293457, -0.8125, -17.560976, -158.5975647, 89.2682953, -0.0500191
1.0708008, -0.2910156, -0.7875977, -21.4024391, -158.2317047, 89.3292694, -0.0473335
1.0673828, -0.2958984, -0.7729492, -21.9512196, -158.9024353, 89.8170776, -0.0459907
1.0625, -0.3310547, -0.765625, -21.0365868, -162.6219482, 90.7926865, -0.0466621
1.0673828, -0.3515625, -0.7773438, -19.4512196, -164.4512177, 91.2804871, -0.0493477
1.0766602, -0.3911133, -0.8164062, -16.0365849, -167.3780518, 91.9512253, -0.0466621
1.0932617, -0.4091797, -0.8413086, -15.1829271, -167.3780518, 92.7439041, -0.0459907
1.0976562, -0.4101562, -0.8354492, -15.9146347, -165.7926941, 92.7439041, -0.0419623
1.0878906, -0.3881836, -0.7973633, -19.5121956, -160.4268341, 91.7682953, -0.0406195
1.0722656, -0.3789062, -0.7646484, -20.8536587, -157.6219482, 90.8536606, -0.0379339
1.0302734, -0.3754883, -0.7094727, -20.3658543, -155.5487823, 89.2682953, -0.0369268
1.0092773, -0.3842773, -0.6967773, -17.1341476, -157.3780518, 88.4756088, -0.0352483
0.9892578, -0.425293, -0.7285156, -7.8048782, -164.6341553, 88.1707306, -0.0419623
0.9907227, -0.4423828, -0.762207, -3.3536587, -169.2073212, 88.6585388, -0.0412909
1.0073242, -0.4399414, -0.8183594, 0.1219512, -175, 89.6951218, -0.0392767
1.0117188, -0.425293, -0.8227539, -1.2195122, -174.8170776, 90.4268341, -0.0392767
1.0053711, -0.3930664, -0.8007812, -6.1585369, -169.9390259, 90.7926865, -0.0433051
0.9760742, -0.3793945, -0.7578125, -8.9634151, -166.5243988, 91.5853653, -0.0419623
0.9589844, -0.3779297, -0.7446289, -7.9878049, -166.8902435, 92.4390259, -0.0412909
0.9458008, -0.3955078, -0.7431641, -3.8414636, -171.5243988, 92.9268341, -0.0386053
0.9462891, -0.409668, -0.7539062, -1.1585366, -175.0609741, 93.2317123, -0.0379339
0.9555664, -0.4458008, -0.7841797, 3.4146342, -181.646347, 93.9024429, -0.0406195
0.9619141, -0.4624023, -0.8071289, 4.7560978, -183.4756165, 94.2682953, -0.0446479
0.965332, -0.4863281, -0.8408203, 6.280488, -184.3292694, 94.4512253, -0.0446479
0.9731445, -0.4931641, -0.847168, 7.5609756, -183.8414612, 94.3902435, -0.0466621
0.9711914, -0.4941406, -0.8632812, 10.7926836, -182.6219482, 94.5731735, -0.0419623
0.9663086, -0.4868164, -0.871582, 12.0731707, -181.8292694, 94.5121994, -0.0426337
0.9658203, -0.4624023, -0.8759766, 14.2073174, -180.1829376, 95.3658524, -0.0433051
0.9584961, -0.4404297, -0.8652344, 13.841464, -178.1097565, 95.9146347, -0.0433051
0.956543, -0.4399414, -0.8637695, 14.1463413, -177.7439117, 96.0365906, -0.042298
0.9418945, -0.4423828, -0.8671875, 14.5731707, -178.8414612, 96.2195129, -0.0473335
0.9443359, -0.456543, -0.8779297, 15.1219511, -180.1829376, 96.4634171, -0.0513619
0.9472656, -0.4750977, -0.902832, 15.5487804, -182.6829376, 96.4024429, -0.0446479
0.9458008, -0.4829102, -0.9155273, 16.0975609, -183.5365906, 96.2804871, -0.0466621
0.940918, -0.4838867, -0.9257812, 15.5487804, -184.0853729, 95.9756088, -0.0500191
0.9355469, -0.4736328, -0.9257812, 14.3902445, -183.3536682, 95.7317123, -0.0453193
0.921875, -0.4506836, -0.8964844, 11.4024391, -179.9390259, 95.3048782, -0.0486763
0.9052734, -0.4462891, -0.8745117, 9.8170738, -178.7804871, 95.2439041, -0.0473335
0.8686523, -0.453125, -0.8598633, 10, -179.0853729, 95.5487823, -0.0453193
0.8549805, -0.4667969, -0.875, 12.7439032, -184.0243988, 97.2561035, -0.0503548
0.8535156, -0.4707031, -0.8876953, 13.2317076, -186.8292694, 98.0487823, -0.0486763
0.8583984, -0.4716797, -0.8935547, 12.8658543, -189.6341553, 99.2682953, -0.0459907
0.8549805, -0.4707031, -0.8867188, 12.4390249, -189.512207, 99.0853653, -0.0426337
0.8388672, -0.4716797, -0.875, 12.8658543, -187.4390259, 98.5365906, -0.0439765
0.8300781, -0.4702148, -0.8759766, 13.6585369, -186.8292694, 98.2926865, -0.0439765
0.809082, -0.472168, -0.8725586, 15.9146347, -187.8048859, 98.4756088, -0.0433051
0.7958984, -0.472168, -0.8754883, 16.5853653, -188.7804871, 98.9024429, -0.0426337
0.7841797, -0.4804688, -0.887207, 18.6585369, -191.4634247, 99.8780518, -0.0459907
0.7797852, -0.4868164, -0.8945312, 19.0853672, -193.0487823, 100.5487823, -0.0433051
0.7807617, -0.496582, -0.9101562, 19.8780499, -195.6097565, 101.8292694, -0.0406195
0.7788086, -0.5097656, -0.9277344, 20.7317085, -196.2195129, 102.3780518, -0.0406195
0.7753906, -0.5107422, -0.9345703, 21.4634151, -195.7317047, 102.6219559, -0.0426337
0.7646484, -0.5039062, -0.9443359, 23.780489, -193.0487823, 101.9512253, -0.0486763
0.7553711, -0.4907227, -0.9462891, 25.1829281, -191.4634247, 101.9512253, -0.0473335
0.730957, -0.4648438, -0.940918, 25.060976, -188.5975647, 101.7073212, -0.0439765
0.7167969, -0.4550781, -0.9321289, 23.1097565, -187.8048859, 101.7073212, -0.0466621
0.6811523, -0.4589844, -0.9101562, 19.2682934, -187.9268341, 102.4390259, -0.0436408
0.6694336, -0.4633789, -0.9052734, 18.7195129, -188.9024506, 102.7439041, -0.0486763
0.6503906, -0.4892578, -0.9145508, 21.0365868, -193.2317047, 103.9634171, -0.0543832
0.6469727, -0.4916992, -0.9296875, 22.6829281, -195.5487823, 104.6341476, -0.0527047
0.6416016, -0.4931641, -0.9448242, 23.9024391, -197.8048859, 105.4268341, -0.0473335
0.6279297, -0.4814453, -0.9404297, 22.5, -196.0365906, 105.1219559, -0.0463264
0.6157227, -0.4833984, -0.9399414, 21.6463413, -195.1829376, 105.18293, -0.0419623
0.5913086, -0.4892578, -0.9423828, 20.6097565, -195.0609741, 106.0975647, -0.0365911
0.5825195, -0.4946289, -0.9418945, 19.8170738, -196.3414612, 106.646347, -0.0433051
0.5683594, -0.5146484, -0.9379883, 17.7439022, -199.512207, 108.5975647, -0.0426337
0.5673828, -0.5214844, -0.9360352, 17.5, -201.0365906, 108.8414688, -0.0459907
0.5668945, -0.5375977, -0.9365234, 20.6707325, -202.4390259, 108.8414688, -0.0412909
0.5683594, -0.5473633, -0.9487305, 23.7195129, -202.6829376, 108.7195129, -0.0419623
0.5654297, -0.5571289, -0.987793, 28.5975609, -203.1707306, 108.8414688, -0.0392767
0.5615234, -0.5556641, -1.0029297, 28.9634151, -203.2317047, 108.8414688, -0.0436408
0.5556641, -0.5307617, -0.9941406, 25.8536587, -202.1951294, 108.7804871, -0.0463264
0.5390625, -0.5073242, -0.9536133, 22.1341476, -199.8780518, 107.68293, -0.0446479
0.5297852, -0.5024414, -0.9345703, 22.560976, -199.3292694, 107.1951218, -0.0446479
0.5043945, -0.515625, -0.9350586, 27.9268303, -200.9756165, 107.4390259, -0.0506905
0.4975586, -0.5249023, -0.9643555, 32.4390259, -202.9268341, 108.1707306, -0.0459907
0.4926758, -0.5390625, -1.0375977, 39.0243912, -207.2561035, 110.0609818, -0.0412909
0.5004883, -0.5336914, -1.0727539, 39.6341476, -208.8414612, 111.2195129, -0.0406195
