Application:, Trigno Discover (1.6.5)
Date/Time:, 04/02/2025 15:43:29
Collection Length (seconds):, 26.9865
wrist (81457), , , , , , bicep (81139)
sensor mode: 609, , , , , , sensor mode: 40
ACC X (G), ACC Y (G), ACC Z (G), GYRO X (deg/s), GYRO Y (deg/s), GYRO Z (deg/s), EMG 1 (mV)
370.3704 Hz, 370.3704 Hz, 370.3704 Hz, 370.3704 Hz, 370.3704 Hz, 370.3704 Hz, 2148.1481 Hz
-0.9975586, -0.0039062, -0.1977539, 0.1829268, -10.060976, 6.7682929, -0.3043107
-0.9931641, 0.0117188, -0.2060547, 0.2439024, -9.2682924, 6.890244, -0.276112
-0.9916992, 0.0205078, -0.2084961, 0.4268293, -9.0243902, 7.1951222, -0.2458991
-0.9902344, 0.0375977, -0.222168, 0.6097561, -9.0243902, 7.3780489, -0.1962158
-0.9848633, 0.0429688, -0.2265625, 1.097561, -9.7560978, 6.7073174, -0.1438468
-0.980957, 0.0498047, -0.222168, 0.1829268, -10.6707315, 6.5853658, -0.0842603
-0.9799805, 0.0522461, -0.2236328, -0.3658537, -10.7926836, 6.4634147, -0.1075914
-0.9702148, 0.0537109, -0.2172852, -1.5853659, -10.8536587, 6.2195125, -0.0897993
-0.9711914, 0.050293, -0.2172852, -1.7682927, -10.8536587, 6.280488, -0.0132601
-0.9633789, 0.0385742, -0.2060547, -1.5243902, -11.5853662, 6.280488, 0.0488441
-0.9658203, 0.03125, -0.2016602, -1.2804878, -11.9512196, 6.0975609, 0.0971847
-0.9770508, 0.0249023, -0.199707, -0.8536586, -11.7073174, 5.609756, 0.1770809
-0.9892578, 0.0205078, -0.2075195, -0.9146342, -11.6463413, 5.7317076, 0.1945373
-0.9960938, 0.0253906, -0.206543, -0.3658537, -11.219512, 5.7926831, 0.1733883
-0.9975586, 0.0209961, -0.2080078, -0.5487805, -11.7682934, 5.9756098, 0.2158541
-0.9956055, 0.0244141, -0.2089844, -0.4878049, -11.8292685, 5.9756098, 0.2529488
-0.9873047, 0.0239258, -0.2158203, -0.7926829, -11.9512196, 6.1585369, 0.2918898
-0.9853516, 0.0258789, -0.2241211, -0.9146342, -11.9512196, 6.3414636, 0.3338521
-0.9882812, 0.027832, -0.2348633, -1.2804878, -12.3170738, 6.4024391, 0.3825284
-0.9868164, 0.0292969, -0.2358398, -1.2195122, -12.8048782, 6.5853658, 0.3415732
-0.9936523, 0.0332031, -0.2319336, -1.3414634, -13.9024391, 6.4634147, 0.3469444
-0.9936523, 0.0366211, -0.2294922, -1.2195122, -14.2073174, 6.280488, 0.3654078
-0.9912109, 0.0292969, -0.2182617, -1.7682927, -14.5731707, 6.0365853, 0.3597009
-0.9858398, 0.0239258, -0.1953125, -1.7682927, -14.6951227, 5.9146342, 0.3427481
-0.9794922, 0.0292969, -0.1816406, -1.4634147, -14.0853662, 5.4268293, 0.3355306
-0.9746094, 0.0439453, -0.1850586, -1.2804878, -13.841464, 5.4268293, 0.2724193
-0.9692383, 0.0551758, -0.1928711, -0.7317073, -12.9268293, 5.4268293, 0.2049439
-0.9672852, 0.0639648, -0.2099609, -1.2195122, -13.0487804, 5.5487804, 0.2024262
-0.965332, 0.0664062, -0.2119141, -1.5853659, -13.3536587, 5.3658538, 0.1871519
-0.9648438, 0.0625, -0.2128906, -2.3780489, -13.841464, 4.7560978, 0.1663386
-0.9702148, 0.0634766, -0.2158203, -2.9878049, -13.9024391, 4.2682929, 0.0911421
-0.9926758, 0.0585938, -0.2172852, -3.1707318, -14.1463413, 3.9024391, 0.0209812
-0.9980469, 0.0615234, -0.21875, -3.5365853, -13.9024391, 3.8414636, -0.0307164
-1.0004883, 0.0698242, -0.2192383, -3.8414636, -14.5731707, 3.7195122, -0.0592508
-0.9956055, 0.0600586, -0.2226562, -4.1463413, -14.5731707, 3.5975611, -0.0491798
-0.9912109, 0.0517578, -0.2250977, -4.9390244, -14.4512196, 3.2926829, -0.0716716
-0.9804688, 0.034668, -0.2060547, -5.2439027, -14.5731707, 3.1097562, -0.0505226
-0.9760742, 0.0249023, -0.1987305, -5.1829271, -14.2682934, 2.8658538, -0.0149386
-0.9755859, 0.0249023, -0.1948242, -3.9024391, -13.6585369, 2.5, 0.0099031
-0.9750977, 0.0341797, -0.1972656, -3.1097562, -13.3536587, 2.4390244, 0.0045319
-0.9726562, 0.0649414, -0.2114258, -2.6219513, -13.4146347, 2.3170731, 0.0206455
-0.9702148, 0.0771484, -0.21875, -3.0487804, -13.4756098, 2.0731707, -0.0072175
-0.9731445, 0.0795898, -0.2285156, -4.5731707, -13.780488, 1.9512196, -0.0787213
-0.9741211, 0.0771484, -0.2231445, -5.4878049, -14.0853662, 1.5853659, -0.0636149
-0.9907227, 0.0605469, -0.2070312, -6.0365853, -14.8780489, 1.402439, -0.024506
-0.9990234, 0.0224609, -0.1987305, -5.8536587, -14.9390249, 1.5853659, 0.0226596
-1.0019531, -0.0043945, -0.1962891, -5.3048782, -15.1829271, 1.2195122, 0.1106126
-1.0053711, -0.0288086, -0.1943359, -4.7560978, -14.0243902, 1.2195122, 0.1854734
-1.0112305, -0.0356445, -0.1914062, -4.4512196, -13.1707315, 1.3414634, 0.160296
-1.0175781, -0.0229492, -0.206543, -2.804878, -11.9512196, 1.8292683, 0.1748989
-1.0166016, -0.0092773, -0.222168, -1.7682927, -11.5853662, 2.0731707, 0.2019226
-0.9990234, 0.0166016, -0.2387695, -0.1219512, -11.5243902, 2.804878, 0.2539559
-0.9936523, 0.0253906, -0.2338867, 0.3658537, -11.7073174, 2.7439024, 0.2986038
-0.9746094, 0.0512695, -0.2275391, 0, -12.3170738, 2.5, 0.3570153
-0.9746094, 0.0673828, -0.2304688, -0.3658537, -12.3780489, 2.3170731, 0.3650721
-0.9697266, 0.0869141, -0.2387695, -1.2804878, -12.560976, 2.2560976, 0.3482872
-0.972168, 0.0898438, -0.2480469, -1.9512196, -12.9268293, 2.1341465, 0.3570153
-0.9760742, 0.0839844, -0.2480469, -3.0487804, -13.841464, 1.2195122, 0.3724575
-0.9941406, 0.0610352, -0.2338867, -4.1463413, -14.1463413, 0.4878049, 0.4004883
-1.0039062, 0.0507812, -0.2285156, -3.4146342, -14.0853662, 0.0609756, 0.3865568
-1.0214844, 0.0263672, -0.2109375, -2.4390244, -14.1463413, 0.1829268, 0.367422
-1.0229492, 0.0214844, -0.2060547, -1.9512196, -13.9024391, 0.2439024, 0.3650721
-1.0126953, 0.0195312, -0.2021484, -0.7317073, -13.0487804, 0.6097561, 0.3756466
-1.0073242, 0.0229492, -0.2006836, -0.6097561, -12.4390249, 0.5487805, 0.3709468
-0.9907227, 0.0200195, -0.206543, -0.6707317, -11.8902445, 0.8536586, 0.2878614
-0.984375, 0.0205078, -0.2109375, -0.7317073, -11.280488, 0.8536586, 0.2284428
-0.9765625, 0.0166016, -0.2255859, -0.1829268, -10.6097565, 1.0365853, 0.190341
-0.9863281, 0.0224609, -0.2338867, 0.5487805, -10.6097565, 1.1585366, 0.1297475
-0.9975586, 0.0273438, -0.2412109, 1.6463414, -10.9146347, 0.9756098, 0.0844282
-1.0073242, 0.0444336, -0.2397461, 2.4390244, -11.219512, 1.0365853, 0.0783856
-1.0053711, 0.0532227, -0.2402344, 2.195122, -11.4024391, 0.6097561, 0.0293736
-0.9941406, 0.0610352, -0.2363281, 0.7926829, -12.0121956, 0.1829268, -0.051194
-0.9833984, 0.0585938, -0.2299805, -0.1219512, -11.5243902, -0.1219512, -0.0928206
-0.9746094, 0.050293, -0.2299805, -1.0365853, -11.219512, 0.0609756, -0.1680171
-0.9702148, 0.0458984, -0.2246094, -0.8536586, -10.7317076, 0.3048781, -0.2314641
-0.9667969, 0.0424805, -0.2216797, 0.7926829, -10.4268293, 0.2439024, -0.2809796
-0.9707031, 0.0449219, -0.2231445, 1.2195122, -10.4878054, -0.3658537, -0.3278096
-0.984375, 0.0493164, -0.2333984, 1.402439, -9.5731707, -0.9756098, -0.437583
-0.9926758, 0.0566406, -0.2348633, 1.5243902, -9.2682924, -0.7926829, -0.4756847
-0.9951172, 0.0629883, -0.2412109, 1.1585366, -9.2682924, -0.6097561, -0.4956588
-0.9931641, 0.0561523, -0.2573242, 0.3658537, -9.0853662, -0.6707317, -0.5015335
-0.9931641, 0.0488281, -0.2617188, 0.0609756, -9.3902445, -0.1219512, -0.4959945
-0.9995117, 0.0292969, -0.269043, -0.0609756, -9.9390249, -0.4878049, -0.4594034
-1.0083008, 0.0180664, -0.2700195, 0.0609756, -10.060976, -0.6097561, -0.4728313
-1.0317383, 0.0131836, -0.2548828, 1.402439, -10.4268293, -0.6097561, -0.5111009
-1.0380859, 0.0126953, -0.2495117, 1.8292683, -10.4268293, -0.5487805, -0.5050584
-1.0375977, 0.0107422, -0.237793, 2.2560976, -10.2439022, -0.4268293, -0.504387
-1.0302734, 0.0131836, -0.2329102, 2.3170731, -9.5731707, -0.4268293, -0.479881
-1.0097656, 0.0224609, -0.2319336, 1.9512196, -8.5365858, -0.1829268, -0.4540322
-0.9985352, 0.0395508, -0.2446289, 1.9512196, -8.1097565, 0, -0.4093843
-0.9892578, 0.0493164, -0.2504883, 2.3780489, -7.0731707, 0.5487805, -0.3447623
-0.9829102, 0.0595703, -0.2602539, 2.9878049, -7.2560978, 0.7317073, -0.2593271
-0.9804688, 0.059082, -0.2651367, 3.4146342, -7.6219516, 0.4878049, -0.1908446
-0.9741211, 0.0581055, -0.2519531, 3.0487804, -8.2317076, -0.1219512, -0.1989014
-0.9731445, 0.0551758, -0.2426758, 2.6829269, -8.0487804, -0.3658537, -0.1320974
-0.9848633, 0.0605469, -0.2333984, 2.4390244, -7.2560978, -0.9146342, -0.072343
-0.9921875, 0.0683594, -0.2329102, 2.804878, -6.7073174, -0.7317073, -0.0273594
-1.0058594, 0.0703125, -0.2460938, 3.7195122, -5.7317076, -0.7926829, 0.002182
-1.0058594, 0.0703125, -0.2485352, 3.9634147, -6.1585369, -0.7926829, 0.0696574
-0.996582, 0.0458984, -0.25, 2.804878, -6.0975609, -0.7317073, 0.0663005
-0.9833984, 0.0185547, -0.2197266, 1.9512196, -5.609756, -1.2804878, 0.0394446
-0.9794922, 0.0175781, -0.2070312, 1.7682927, -4.390244, -1.8292683, 0.0770428
-0.9755859, 0.0229492, -0.2128906, 3.9634147, -1.9512196, -1.6463414, 0.0991989
-0.9741211, 0.0395508, -0.2270508, 5.1219511, -1.1585366, -1.097561, 0.1285725
-0.9765625, 0.0644531, -0.265625, 7.1951222, -1.2195122, -0.3658537, 0.1676814
-0.9741211, 0.0673828, -0.2758789, 7.0731707, -1.7073171, -0.3658537, 0.2012512
-0.9819336, 0.0532227, -0.2851562, 5.9146342, -2.7439024, -1.097561, 0.1433433
-0.9921875, 0.046875, -0.2788086, 4.8780489, -3.1707318, -1.3414634, 0.1374685
-1.0131836, 0.0332031, -0.2700195, 4.6341462, -3.2926829, -1.7073171, 0.139147
-1.0229492, 0.0288086, -0.265625, 4.7560978, -3.1097562, -1.4634147, 0.111284
-1.0307617, 0.0307617, -0.2709961, 6.1585369, -2.5609756, -0.5487805, 0.0560616
-1.0268555, 0.0336914, -0.2822266, 6.280488, -2.5, -0.3658537, 0.0552224
-1.0219727, 0.0351562, -0.2861328, 6.0975609, -2.9878049, 0.0609756, 0.0105745
-1.0195312, 0.027832, -0.2871094, 5.7926831, -3.6585367, 0, -0.0681468
-1.0151367, 0.0239258, -0.2880859, 5.9146342, -4.0243902, 0.1829268, -0.0877852
-1.0126953, 0.0244141, -0.2905273, 6.2195125, -4.390244, 0.5487805, -0.1129625
-1.0161133, 0.0263672, -0.2949219, 5.9756098, -4.5731707, 0.4268293, -0.1599603
-1.0175781, 0.027832, -0.2919922, 5.670732, -5.4878049, 0.6707317, -0.2165255
-1.0112305, 0.0283203, -0.2875977, 5.670732, -5.7926831, 0.8536586, -0.2626841
-1.0053711, 0.0268555, -0.2509766, 5.7317076, -6.280488, 0.2439024, -0.2989395
-0.9970703, 0.0234375, -0.2353516, 5.9146342, -5.8536587, 0.0609756, -0.3148852
-0.9677734, 0.0234375, -0.2089844, 6.5243902, -4.5121951, 0.1219512, -0.3103532
-0.940918, 0.0493164, -0.1801758, 6.9512196, -3.7804878, 0.3048781, -0.3915923
-0.9262695, 0.0576172, -0.1748047, 7.2560978, -1.9512196, 0.6097561, -0.420798
-0.8969727, 0.0795898, -0.1796875, 6.8292685, -0.3658537, -0.3048781, -0.4288548
-0.8920898, 0.0883789, -0.1938477, 6.4634147, 0.6097561, -0.5487805, -0.4641032
-0.9047852, 0.1113281, -0.2197266, 4.8170733, 1.9512196, -1.097561, -0.4813916
-0.9169922, 0.1191406, -0.2353516, 3.5975611, 1.7073171, -1.1585366, -0.4473182
-0.9448242, 0.0986328, -0.2646484, 0.9146342, 0.9146342, -1.7682927, -0.4835737
-0.9624023, 0.0727539, -0.2744141, -0.3658537, 0.3658537, -1.8902439, -0.5359426
-0.9990234, 0.0234375, -0.2827148, -2.195122, -0.6707317, -2.5609756, -0.5144579
-1.0205078, 0.0092773, -0.2758789, -2.3170731, -0.7317073, -2.4390244, -0.4755169
-1.0498047, -0.0083008, -0.2705078, -1.0365853, -0.6097561, -1.8902439, -0.4291905
-1.0449219, -0.0053711, -0.2773438, -0.4268293, -0.3658537, -1.097561, -0.3731289
-1.0361328, 0.0014648, -0.2841797, 1.1585366, -0.1829268, -0.3048781, -0.3170672
-1.0117188, 0.0161133, -0.2729492, 1.402439, -0.4268293, -0.1219512, -0.340734
-0.9951172, 0.0224609, -0.265625, 1.1585366, -0.2439024, -0.3048781, -0.3205921
-0.9648438, 0.0332031, -0.2446289, 1.6463414, 0.2439024, -0.3048781, -0.2633555
-0.9506836, 0.0351562, -0.2382812, 2.195122, 0.7317073, -0.4268293, -0.2351568
-0.9370117, 0.0454102, -0.2470703, 2.6219513, 1.097561, -0.5487805, -0.2260929
-0.9404297, 0.0522461, -0.2558594, 2.7439024, 1.097561, -0.4878049, -0.1653315
-0.9663086, 0.0620117, -0.2739258, 1.7682927, 0.9146342, -0.7317073, -0.149218
-0.9892578, 0.0498047, -0.2875977, 0.9146342, 0.4268293, -0.9756098, -0.1639887
-0.9995117, 0.0375977, -0.2939453, -1.097561, -0.8536586, -0.9756098, -0.1151446
-1.0180664, 0.0146484, -0.2817383, -2.0121951, -1.7682927, -1.097561, -0.0480049
-1.0263672, 0.0053711, -0.2744141, -2.7439024, -2.3170731, -1.1585366, 0.0218204
-1.0239258, 0, -0.25, -2.3780489, -2.195122, -0.4268293, 0.0626078
-1.0195312, 0.0073242, -0.2426758, -2.3170731, -1.7073171, -0.3048781, 0.0750286
-0.9936523, 0.0224609, -0.2412109, -2.4390244, -1.5243902, 0.1829268, 0.0750286
-0.9814453, 0.0317383, -0.2436523, -2.804878, -1.1585366, 0.4878049, 0.0810712
-0.9702148, 0.0473633, -0.2553711, -4.4512196, -1.3414634, 0.6707317, 0.1132982
-0.9692383, 0.0498047, -0.262207, -4.9390244, -1.6463414, 0.7926829, 0.0619364
-0.9746094, 0.0512695, -0.2651367, -6.4634147, -2.3780489, 0.3048781, 0.043473
-0.987793, 0.0356445, -0.2607422, -6.890244, -2.6219513, -0.0609756, 0.0035248
-0.9960938, 0.027832, -0.2558594, -7.3170733, -3.5365853, -0.2439024, -0.0337377
-0.9956055, 0.0141602, -0.2407227, -7.2560978, -3.7804878, -0.1829268, -0.0565652
-0.996582, 0.0102539, -0.2231445, -6.8292685, -3.3536587, 0.1219512, -0.0562295
-0.9853516, 0.0039062, -0.2070312, -5.4268293, -2.2560976, 0.2439024, -0.1082628
-0.9770508, 0.0029297, -0.199707, -4.9390244, -1.8902439, 0.1829268, -0.1942016
-0.9575195, 0.0117188, -0.2094727, -5, -0.3658537, -0.1219512, -0.2489204
-0.9536133, 0.0205078, -0.2172852, -4.8780489, 0.7926829, 0, -0.2925612
-0.9526367, 0.0424805, -0.246582, -4.0243902, 1.5853659, 0.4878049, -0.3096818
-0.9545898, 0.0473633, -0.2617188, -3.1707318, 1.0365853, 0.7926829, -0.3044785
-0.9609375, 0.034668, -0.2841797, -2.9878049, -0.1829268, 0.6097561, -0.2949111
-0.965332, -0.0009766, -0.269043, -3.5365853, -1.097561, 0.1219512, -0.3486229
-0.9731445, -0.0195312, -0.2543945, -5.1219511, -1.7682927, -0.5487805, -0.374136
-0.9902344, -0.0195312, -0.237793, -5.0609756, -1.7073171, -0.5487805, -0.3845426
-0.9975586, -0.0136719, -0.2446289, -3.1097562, -0.6097561, 0.4268293, -0.416434
-1.0029297, 0.0087891, -0.2680664, -1.097561, -0.4878049, 1.2195122, -0.4372473
-1.0029297, 0.0180664, -0.277832, -0.9756098, -1.097561, 1.2804878, -0.3855497
-0.9990234, 0.0317383, -0.2915039, -2.9268293, -2.4390244, 1.0365853, -0.3482872
-1.0097656, 0.0317383, -0.2900391, -4.2073174, -3.0487804, 0.7926829, -0.3489586
-1.0175781, 0.0224609, -0.2807617, -5.7926831, -4.0243902, 0.8536586, -0.2841688
-1.0249023, 0.0239258, -0.277832, -6.0975609, -4.4512196, 1.402439, -0.2220645
-1.0229492, 0.0073242, -0.2641602, -6.1585369, -5, 1.7682927, -0.139147
-1.0200195, -0.0214844, -0.2490234, -5.5487804, -5.5487804, 1.6463414, -0.0936599
-1.0170898, -0.03125, -0.2382812, -5.2439027, -5.9146342, 1.3414634, -0.0726787
-1.003418, -0.0219727, -0.2016602, -5.3658538, -5.4268293, 1.4634147, -0.043473
-0.9941406, -0.0097656, -0.1904297, -3.9634147, -4.0853658, 1.7073171, 0.0038605
-0.9775391, 0.0317383, -0.1948242, -3.1097562, -2.5, 2.3170731, 0.0649577
-0.9648438, 0.0517578, -0.2119141, -2.9878049, -2.0731707, 2.6219513, 0.0931563
-0.9428711, 0.0683594, -0.2280273, -4.9390244, -1.6463414, 2.2560976, 0.1576104
-0.9414062, 0.0771484, -0.2294922, -6.280488, -1.8902439, 1.5243902, 0.2271
-0.9501953, 0.081543, -0.2192383, -8.4756098, -1.7682927, 0.7926829, 0.2702373
-0.9609375, 0.0791016, -0.2172852, -9.2682924, -1.8902439, 0.4878049, 0.3167315
-0.9682617, 0.059082, -0.199707, -10.3048782, -1.8292683, -0.1829268, 0.3744717
-0.9638672, 0.034668, -0.1713867, -10.9146347, -1.7073171, -0.6097561, 0.3798428
-0.9624023, 0.0253906, -0.1669922, -11.8292685, 0, -1.3414634, 0.3677577
-0.9672852, 0.0058594, -0.1782227, -11.4634151, 2.0731707, -1.3414634, 0.3878996
-0.9716797, 0.0063477, -0.1923828, -10.9756098, 3.1097562, -1.2804878, 0.4040131
-0.9785156, 0.019043, -0.21875, -10.060976, 5, -0.9756098, 0.4224765
-0.984375, 0.0224609, -0.2353516, -9.9390249, 4.9390244, -0.7926829, 0.458732
-1.0004883, 0.0356445, -0.2641602, -10.1829271, 4.5121951, -0.5487805, 0.5409781
-1.0083008, 0.0341797, -0.2641602, -10.7317076, 3.6585367, -0.3048781, 0.5685054
-0.9951172, 0.034668, -0.2631836, -12.6829271, 2.4390244, -0.2439024, 0.6242313
-0.9916992, 0.0288086, -0.2651367, -13.841464, 2.6829269, -0.3658537, 0.6698863
-1.0014648, -0.0009766, -0.2602539, -15.6707325, 2.8658538, -0.0609756, 0.6410163
-0.996582, -0.0283203, -0.2412109, -15.7317076, 2.195122, 0.4268293, 0.582269
-0.996582, -0.0419922, -0.2333984, -13.6585369, 2.0731707, 0.5487805, 0.5508812
-1.0068359, -0.034668, -0.2397461, -10.2439022, 2.804878, -0.0609756, 0.4879377
-1.012207, -0.0292969, -0.2543945, -9.3292685, 3.1707318, 0.6707317, 0.3979706
-1.0053711, -0.0151367, -0.277832, -8.5365858, 2.5609756, 1.8902439, 0.3516442
-1.0048828, -0.0112305, -0.2763672, -8.9634151, 1.8292683, 2.2560976, 0.2843366
-0.9941406, -0.0102539, -0.2563477, -8.9634151, 0.7926829, 1.9512196, 0.2462348
-0.9946289, -0.003418, -0.2431641, -8.780488, 0.7317073, 1.7682927, 0.19823
-0.9873047, 0.0117188, -0.2216797, -8.1097565, 1.402439, 1.9512196, 0.1366293
-0.9829102, 0.0258789, -0.2207031, -7.8048782, 1.7682927, 1.8292683, 0.0951705
-0.9667969, 0.0400391, -0.2241211, -7.8658538, 2.2560976, 1.7682927, 0.0809033
-0.9541016, 0.0581055, -0.2226562, -8.6585369, 2.3780489, 1.402439, 0.0760357
-0.9560547, 0.0620117, -0.2163086, -9.6341467, 2.5609756, 0.3658537, 0.0003357
-0.9672852, 0.0605469, -0.2138672, -9.8170738, 3.1707318, 0.3048781, -0.0350805
-0.9667969, 0.0532227, -0.2246094, -9.6951218, 3.5365853, 0, -0.0527047
-0.9848633, 0.0405273, -0.2539062, -10.060976, 3.6585367, -0.3658537, -0.0659648
-0.9985352, 0.0366211, -0.262207, -10.6097565, 3.7195122, -0.6097561, -0.0659648
-1.0180664, 0.0131836, -0.2827148, -11.0365858, 2.6219513, -0.4878049, -0.0501869
-1.0224609, 0.0073242, -0.2890625, -10.7926836, 1.8902439, -0.4878049, -0.0788891
-1.0317383, -0.0009766, -0.2851562, -10.5487804, 0.9146342, -0.4878049, -0.1099413
-1.0322266, -0.0019531, -0.2836914, -10.1219511, 0.0609756, -0.2439024, -0.054551
-1.0209961, -0.0126953, -0.2875977, -9.8780489, -0.6707317, 0.1219512, 0.0038605
-1.0170898, -0.0102539, -0.2851562, -9.8170738, -1.2195122, 0.1829268, 0.0387732
-1.0175781, -0.0092773, -0.2822266, -9.4512196, -1.7682927, 0.5487805, 0.079057
-1.0166016, -0.0019531, -0.2807617, -9.0243902, -2.5, 0.9146342, 0.1378042
-1.015625, 0.0024414, -0.2792969, -8.5975609, -2.804878, 0.9756098, 0.1149767
-1.0136719, 0.0166016, -0.2827148, -8.841464, -2.9268293, 1.0365853, 0.1717098
-1.0102539, 0.0253906, -0.277832, -9.0243902, -3.4146342, 1.4634147, 0.2435492
-0.9912109, 0.0380859, -0.2734375, -9.7560978, -4.0853658, 1.097561, 0.2893721
-0.9897461, 0.0419922, -0.2758789, -10.5487804, -4.390244, 1.097561, 0.3254597
-0.9858398, 0.0444336, -0.2773438, -11.0975609, -4.8170733, 1.3414634, 0.3942779
-0.9853516, 0.0444336, -0.2729492, -11.219512, -5.4878049, 1.402439, 0.3889067
-0.9785156, 0.0297852, -0.2573242, -11.341464, -6.0365853, 1.097561, 0.3550011
-0.9638672, 0.0151367, -0.2333984, -11.4024391, -6.0365853, 0.4878049, 0.3905852
-0.9692383, 0.0180664, -0.2211914, -11.7682934, -5.3658538, -0.1829268, 0.4144198
-0.9682617, 0.0410156, -0.2299805, -11.4024391, -3.9634147, 0.3048781, 0.4449683
-0.9692383, 0.059082, -0.2436523, -11.280488, -3.4146342, 0.8536586, 0.4439612
-0.9633789, 0.0839844, -0.2851562, -12.0121956, -3.9024391, 1.0365853, 0.4248264
-0.9624023, 0.0825195, -0.3056641, -13.2317076, -4.9390244, 0.4268293, 0.4228122
-0.9780273, 0.0639648, -0.3046875, -16.0975609, -6.6463418, -0.4878049, 0.4372473
-0.9916992, 0.0478516, -0.2963867, -17.0121956, -7.0731707, -0.9146342, 0.4348974
-1.0039062, 0.015625, -0.2543945, -17.439024, -7.8658538, -1.402439, 0.3461051
-0.9980469, 0.0073242, -0.2363281, -17.1951218, -7.8048782, -1.4634147, 0.2885328
-0.9785156, 0.0053711, -0.2211914, -16.5243912, -7.0121951, -1.097561, 0.2556344
-0.9560547, 0.0166016, -0.2421875, -16.5243912, -5.9146342, -0.8536586, 0.2260929
-0.9526367, 0.0263672, -0.2543945, -16.7682934, -5, -0.0609756, 0.207126
-0.9511719, 0.0332031, -0.2714844, -16.5243912, -6.0975609, 0.0609756, 0.2307927
-0.9511719, 0.034668, -0.2734375, -16.9512196, -6.2195125, -0.0609756, 0.1750668
-0.9726562, 0.0317383, -0.2651367, -17.560976, -6.8292685, -0.7926829, 0.061265
-0.9799805, 0.0288086, -0.2617188, -17.9268303, -6.7073174, -0.7317073, 0.0159457
-0.9794922, 0.0234375, -0.2617188, -18.2317085, -7.0121951, -0.3048781, -0.0310521
-0.9702148, 0.0136719, -0.2646484, -18.1707325, -6.890244, -0.1829268, -0.0652934
-0.9692383, -0.0014648, -0.2651367, -17.439024, -6.8292685, -0.3048781, -0.0733501
-0.9711914, -0.0039062, -0.2719727, -17.0731716, -7.2560978, -0.2439024, -0.0599222
-0.9887695, -0.0019531, -0.2915039, -15.8536587, -7.3780489, 0.4268293, -0.131426
-1.0063477, 0.0043945, -0.3066406, -15.3048782, -7.6219516, 0.7317073, -0.1589532
-1.0083008, 0.0117188, -0.3037109, -15.1219511, -9.3292685, 1.097561, -0.1683528
-0.9931641, 0.0175781, -0.2861328, -15, -10.7317076, 0.9756098, -0.1908446
-0.9819336, 0.0209961, -0.2768555, -15.3658543, -11.0975609, 0.9146342, -0.2113222
-0.9609375, 0.0253906, -0.2670898, -15.6097565, -11.5243902, 0.7926829, -0.1874876
-0.9584961, 0.019043, -0.2661133, -15.7317076, -11.5853662, 0.6097561, -0.2284428
-0.9545898, 0.0283203, -0.2597656, -15.4878054, -11.341464, 0.8536586, -0.2875257
-0.9560547, 0.0366211, -0.2539062, -15.5487804, -11.1585369, 0.7317073, -0.2646983
-0.9555664, 0.0581055, -0.230957, -15.7317076, -11.4024391, 0.4268293, -0.2218967
-0.9453125, 0.0649414, -0.2280273, -16.0365849, -11.4024391, 0.1219512, -0.1532464
-0.921875, 0.0585938, -0.2338867, -17.3170738, -10.7317076, -0.3048781, -0.1317617
-0.9233398, 0.0458984, -0.2382812, -17.7439022, -10.3048782, -0.2439024, -0.1243763
-0.9379883, 0.0454102, -0.2436523, -17.6829281, -10.1829271, -0.6707317, -0.100206
-0.9746094, 0.0454102, -0.2568359, -17.560976, -9.6951218, -0.6707317, -0.0807355
-0.9853516, 0.0473633, -0.2661133, -17.8048782, -9.7560978, -0.4878049, -0.0191348
-0.9956055, 0.0395508, -0.2617188, -19.1463413, -10.4268293, -0.3048781, -0.0263523
-0.9921875, 0.0322266, -0.2568359, -20, -10.8536587, -0.4878049, 0.0078889
-0.9731445, 0.0126953, -0.2470703, -20.1219521, -10.9756098, -1.097561, 0.0569009
-0.965332, 0.0029297, -0.2470703, -19.939024, -10.4878054, -0.8536586, 0.0948348
-0.9692383, 0.0073242, -0.2514648, -19.1463413, -10.060976, -0.6097561, 0.1089342
-0.9741211, 0.0126953, -0.2583008, -19.0243912, -10, -0.4878049, 0.1545892
-0.9838867, 0.0292969, -0.2631836, -18.3536587, -9.8780489, -0.2439024, 0.1240406
-0.9921875, 0.0097656, -0.2802734, -18.1707325, -10.1219511, 0.3048781, 0.0743572
-0.9833984, -0.0078125, -0.2827148, -18.6585369, -10.7926836, 1.3414634, 0.0897993
-0.9829102, -0.0380859, -0.2631836, -17.9268303, -11.341464, 0.8536586, 0.0894636
-0.9946289, -0.0371094, -0.2495117, -16.8902435, -11.5243902, 0.3658537, 0.0861067
-1.0107422, -0.0136719, -0.2392578, -14.5121956, -11.4024391, 0.5487805, 0.0918135
-1.0014648, 0.0078125, -0.2426758, -14.0243902, -10.8536587, 0.9146342, 0.1139696
-0.9785156, 0.0522461, -0.2602539, -14.5731707, -10.4268293, 1.4634147, 0.0320592
-0.9624023, 0.0654297, -0.2641602, -15.5487804, -10.4878054, 1.402439, -0.0196384
-0.9438477, 0.078125, -0.2651367, -17.3170738, -11.4634151, 0.6097561, -0.0726787
-0.9482422, 0.0742188, -0.2568359, -17.9268303, -11.6463413, 0.2439024, -0.1242084
-0.9555664, 0.0634766, -0.2480469, -18.7195129, -12.0121956, -0.6097561, -0.1559319
-0.9589844, 0.0424805, -0.2319336, -19.2073174, -12.1951218, -1.2195122, -0.1482109
-0.9672852, 0.0332031, -0.2299805, -19.6341476, -11.6463413, -2.0731707, -0.1997406
-0.9838867, 0.0263672, -0.2329102, -18.8414631, -10.4878054, -1.8292683, -0.2848402
-0.9790039, 0.0341797, -0.2397461, -18.2317085, -10.060976, -1.5853659, -0.3405661
-0.9790039, 0.0517578, -0.262207, -17.1341476, -10.1219511, -1.2195122, -0.3868925
-0.9736328, 0.0517578, -0.2695312, -17.6829281, -10.1829271, -1.402439, -0.4171054
-0.9731445, 0.0390625, -0.2719727, -18.780489, -11.280488, -1.8292683, -0.4865949
-0.9741211, 0.019043, -0.2646484, -19.2682934, -11.8902445, -2.0731707, -0.5547417
-0.9731445, -0.0175781, -0.2392578, -18.780489, -12.5, -2.5609756, -0.5993896
-0.9897461, -0.0429688, -0.2211914, -18.1097565, -12.4390249, -2.6219513, -0.6054322
-0.9960938, -0.034668, -0.2182617, -15.4878054, -10.9146347, -2.5609756, -0.5748836
-0.9912109, -0.003418, -0.2143555, -14.2073174, -10.1219511, -1.7682927, -0.578912
-0.9804688, 0.0146484, -0.2177734, -12.8048782, -9.5731707, -1.2804878, -0.5507134
-0.9541016, 0.0375977, -0.2387695, -13.0487804, -9.3902445, -1.402439, -0.5023728
-0.9423828, 0.0361328, -0.2446289, -13.841464, -9.4512196, -1.2804878, -0.4657816
-0.9448242, 0.0288086, -0.2456055, -14.6341467, -9.5731707, -1.6463414, -0.448661
-0.9458008, 0.0258789, -0.2451172, -14.5121956, -9.6341467, -1.7682927, -0.3986419
-0.9692383, 0.0170898, -0.2368164, -14.0853662, -9.8780489, -2.3780489, -0.3875639
-0.9824219, 0.0083008, -0.2265625, -13.9634151, -10.1219511, -2.5609756, -0.3711147
-0.9848633, 0.0117188, -0.2158203, -13.5975609, -9.0853662, -3.2926829, -0.3019608
-0.9775391, 0.0258789, -0.2265625, -13.841464, -8.6585369, -2.7439024, -0.2499275
-0.9765625, 0.0371094, -0.2348633, -13.0487804, -7.2560978, -2.6219513, -0.2083009
-0.9672852, 0.0595703, -0.2475586, -12.8658543, -7.2560978, -2.195122, -0.1626459
-0.9643555, 0.0571289, -0.2529297, -13.0487804, -7.9268293, -2.4390244, -0.1015488
-0.9672852, 0.0322266, -0.2651367, -15, -9.0243902, -3.0487804, -0.0793927
-0.9716797, 0.0087891, -0.2568359, -15.6707325, -9.0853662, -3.6585367, -0.0162814
-0.996582, -0.0151367, -0.222168, -16.0975609, -9.0243902, -3.7804878, 0.0532082
-1.0009766, -0.0161133, -0.2119141, -15.060976, -8.5975609, -3.7195122, 0.102388
-1.0087891, 0.0039062, -0.2167969, -12.3780489, -7.6219516, -3.1707318, 0.1455253
-1.0063477, 0.0131836, -0.2368164, -11.5853662, -7.0731707, -2.9878049, 0.2096437
-0.9873047, 0.012207, -0.2714844, -12.4390249, -7.0121951, -2.5609756, 0.2187076
-0.9819336, 0, -0.2695312, -12.8048782, -7.5609756, -2.6829269, 0.1965515
-0.9887695, 0.0004883, -0.262207, -13.0487804, -8.780488, -3.0487804, 0.2252537
-1.0029297, 0.0112305, -0.2641602, -12.6219511, -9.0243902, -2.9878049, 0.2569772
-1.0053711, 0.0180664, -0.2705078, -11.219512, -8.780488, -2.6219513, 0.2949111
-1.0087891, 0.0283203, -0.2807617, -11.0365858, -9.7560978, -2.7439024, 0.2915541
-1.0048828, 0.03125, -0.2788086, -11.280488, -10.4268293, -2.8658538, 0.2824903
-0.9912109, 0.0283203, -0.2612305, -12.5, -11.280488, -3.4756098, 0.300618
-0.9868164, 0.0258789, -0.25, -12.5, -11.4634151, -3.6585367, 0.3033036
-0.980957, 0.0229492, -0.2402344, -12.8658543, -11.1585369, -3.7804878, 0.2809796
-0.9750977, 0.0273438, -0.2397461, -12.4390249, -11.1585369, -3.4146342, 0.1505608
-0.9716797, 0.0185547, -0.2441406, -12.0121956, -10.9146347, -4.1463413, 0.0666361
-0.9755859, 0.0043945, -0.2392578, -12.0121956, -11.341464, -4.3292685, 0.0209812
-0.980957, 0.0058594, -0.2451172, -11.1585369, -11.341464, -4.6341462, -0.0193027
-0.9907227, 0.0058594, -0.2495117, -9.8170738, -11.219512, -4.2073174, -0.0209812
-0.9897461, 0.003418, -0.2583008, -9.7560978, -11.280488, -4.1463413, 0.0052033
-0.9941406, -0.0063477, -0.2583008, -9.8170738, -11.7073174, -3.9024391, -0.0246738
-0.9975586, -0.0058594, -0.2583008, -9.8780489, -12.1951218, -4.1463413, -0.0525368
-1.0019531, 0.0068359, -0.2490234, -10, -11.8292685, -4.5121951, -0.0320592
-1.0019531, 0.0161133, -0.2490234, -9.5731707, -11.341464, -4.390244, -0.0357519
-0.9980469, 0.0415039, -0.2700195, -9.2682924, -11.5853662, -3.9024391, -0.0673075
-0.9882812, 0.0444336, -0.2734375, -9.3292685, -12.1341467, -4.1463413, -0.0835889
-0.9750977, 0.0366211, -0.2666016, -11.1585369, -13.1097565, -4.6951222, -0.1025559
-0.9677734, 0.0307617, -0.2216797, -12.6219511, -13.4146347, -5.1829271, -0.1963836
-0.9672852, 0.0244141, -0.2084961, -13.5365858, -12.9878054, -5.8536587, -0.2373388
-0.9658203, 0.0253906, -0.2080078, -13.1707315, -11.219512, -5.9756098, -0.2646983
-0.9707031, 0.0239258, -0.2182617, -12.560976, -10.6097565, -6.2195125, -0.2855116
-0.9741211, 0.0209961, -0.2470703, -12.1341467, -10.5487804, -6.2195125, -0.2734264
-0.9824219, 0.0107422, -0.2587891, -12.5, -10.7926836, -6.3414636, -0.240528
-0.9926758, -0.0014648, -0.2661133, -12.560976, -11.219512, -6.7682929, -0.2505989
-1.0043945, -0.0083008, -0.262207, -12.8048782, -10.9146347, -6.7073174, -0.2824903
-1.0112305, -0.0117188, -0.2568359, -11.7073174, -11.280488, -5.4878049, -0.2334783
-1.0048828, -0.0112305, -0.2578125, -11.4024391, -11.5853662, -5.1829271, -0.1707027
-0.9853516, -0.0175781, -0.2460938, -10.7317076, -11.8902445, -5.1829271, -0.1096056
-0.9746094, -0.0126953, -0.2236328, -10.6097565, -11.5243902, -5.4878049, -0.0914778
-0.9711914, 0.0009766, -0.2148438, -10.060976, -10.9756098, -5.670732, -0.0740215
-0.96875, 0.0268555, -0.2104492, -10.4268293, -9.6951218, -5.3048782, -0.043473
-0.9633789, 0.0322266, -0.2167969, -10.4268293, -9.5121956, -5.1219511, 0.0317235
-0.9614258, 0.0366211, -0.230957, -11.5243902, -9.3902445, -5.9146342, 0.1250477
-0.9594727, 0.027832, -0.2299805, -12.560976, -9.5731707, -6.4024391, 0.1354543
-0.9658203, 0.0024414, -0.2246094, -14.2073174, -9.6951218, -7.0731707, 0.1764096
-0.9648438, -0.0141602, -0.2119141, -14.8170738, -9.4512196, -7.3780489, 0.2418708
-0.9785156, -0.0205078, -0.1987305, -14.3902445, -8.1707315, -7.3780489, 0.293904
-0.9833984, -0.0126953, -0.2006836, -13.1707315, -7.5609756, -7.0121951, 0.3422446
-0.9858398, 0.015625, -0.2177734, -12.4390249, -6.3414636, -6.7073174, 0.427512
-0.9799805, 0.0317383, -0.2412109, -12.560976, -6.280488, -6.6463418, 0.4436255
-0.9775391, 0.03125, -0.2587891, -13.6585369, -6.4024391, -7.4390244, 0.4167697
-0.9785156, 0.0136719, -0.2749023, -15.7926836, -7.1951222, -8.0487804, 0.4338903
-0.9838867, 0.0029297, -0.2788086, -15.9146347, -7.1341467, -8.2926826, 0.4087129
-1.0092773, -0.0239258, -0.2807617, -14.4512196, -6.9512196, -7.8048782, 0.3816892
-1.0209961, -0.0366211, -0.2832031, -12.6219511, -7.5, -6.9512196, 0.3909209
-1.0219727, -0.0668945, -0.3037109, -10.3048782, -9.8780489, -5.4878049, 0.3905852
-1.0161133, -0.0883789, -0.2998047, -10, -10.7926836, -5.3658538, 0.3049821
-1.0078125, -0.0976562, -0.2529297, -10.3048782, -11.280488, -5, 0.2559701
-1.0043945, -0.0883789, -0.2275391, -9.7560978, -11.4634151, -4.6341462, 0.237171
-0.9990234, -0.0424805, -0.2094727, -7.0731707, -10.1219511, -3.5975611, 0.218204
-0.9760742, 0.0136719, -0.2451172, -5.9146342, -9.5731707, -2.9268293, 0.209308
-0.9702148, 0.03125, -0.2680664, -5.1219511, -9.5121956, -2.5609756, 0.2294499
-0.9741211, 0.0493164, -0.2954102, -7.8658538, -10.9756098, -3.0487804, 0.1858091
-0.9760742, 0.0463867, -0.293457, -10.060976, -11.8902445, -3.4756098, 0.090135
-0.9907227, 0.027832, -0.2797852, -12.5, -13.0487804, -4.1463413, 0.0716716
-0.9960938, 0.0170898, -0.2587891, -12.9878054, -13.5975609, -4.5731707, 0.052369
-1.0004883, 0.0063477, -0.2338867, -12.1951218, -14.0243902, -5.0609756, 0.0337377
-0.9970703, 0.0043945, -0.2353516, -11.8292685, -13.841464, -4.8170733, -0.0125887
-0.9912109, 0.0014648, -0.246582, -11.0975609, -12.9878054, -4.5731707, -0.0317235
-0.987793, 0.0004883, -0.2519531, -10.9756098, -13.1097565, -4.390244, -0.0562295
-0.9799805, -0.0126953, -0.2592773, -11.0975609, -14.0243902, -4.2682929, -0.0627756
-0.9770508, -0.0229492, -0.2543945, -11.280488, -14.5121956, -4.390244, -0.0616007
-0.9794922, -0.0224609, -0.2446289, -11.7682934, -14.9390249, -4.7560978, -0.1310903
-0.9882812, -0.0083008, -0.2387695, -11.4634151, -15, -4.7560978, -0.1485466
-0.9863281, 0.0053711, -0.2382812, -11.1585369, -14.9390249, -4.6341462, -0.1310903
-0.9819336, 0.0322266, -0.2524414, -11.341464, -14.9390249, -4.6341462, -0.1317617
-0.9765625, 0.0410156, -0.2583008, -11.8902445, -15.060976, -4.9390244, -0.1190051
-0.9731445, 0.0415039, -0.2587891, -13.6585369, -16.0365849, -5.4268293, -0.0642863
-0.96875, 0.0419922, -0.2514648, -14.3902445, -16.280489, -5.3658538, -0.0344091
-0.9755859, 0.0317383, -0.2480469, -15.6707325, -15.9756098, -5.9756098, 0.0035248
-0.9780273, 0.019043, -0.2480469, -15.7317076, -16.1585369, -6.280488, 0.0673075
-0.9868164, -0.0019531, -0.2470703, -16.1585369, -16.8292694, -6.6463418, 0.1173266
-1.003418, -0.0039062, -0.2446289, -15.8536587, -17.0121956, -6.8292685, 0.1532464
-1.0112305, 0.0009766, -0.2470703, -15.5487804, -16.4634151, -6.6463418, 0.2039368
-1.0146484, 0.0161133, -0.2578125, -14.9390249, -16.4024391, -6.4634147, 0.3069963
-1.0117188, 0.0249023, -0.262207, -15.060976, -16.7682934, -6.5243902, 0.3205921
-0.9936523, 0.0263672, -0.277832, -15.9146347, -17.8658543, -6.4634147, 0.3459373
-0.9907227, 0.0166016, -0.2885742, -16.280489, -18.2317085, -6.4634147, 0.3664149
-0.9931641, -0.0068359, -0.3022461, -16.9512196, -19.5731716, -6.4024391, 0.3717861
-1.0014648, -0.0263672, -0.2988281, -17.0121956, -20.1219521, -6.3414636, 0.3516442
-1.0253906, -0.0415039, -0.2929688, -16.1585369, -21.6463413, -6.280488, 0.3650721
-1.0361328, -0.0463867, -0.2890625, -15.9146347, -22.0121956, -6.2195125, 0.3467765
-1.0463867, -0.0273438, -0.2744141, -14.0853662, -22.8048782, -5.8536587, 0.3244526
-1.0424805, 0.0083008, -0.2788086, -13.841464, -23.2317085, -5.4268293, 0.4167697
-1.0361328, 0.0258789, -0.2875977, -14.0853662, -23.7195129, -4.8780489, 0.5067369
-1.0161133, 0.0336914, -0.3032227, -15.3658543, -25.060976, -4.4512196, 0.5772335
-1.0102539, 0.0239258, -0.3095703, -16.2195129, -25.8536587, -4.5121951, 0.6081178
-1.0126953, -0.0102539, -0.3110352, -17.6829281, -27.8658543, -5.3658538, 0.5758907
-1.0292969, -0.0249023, -0.3066406, -17.560976, -28.4146347, -5.5487804, 0.5020371
-1.0664062, -0.0180664, -0.2861328, -16.2195129, -29.0853672, -5.4268293, 0.4187839
-1.074707, -0.0014648, -0.2773438, -15.6097565, -29.4512196, -5.3658538, 0.328481
-1.0693359, 0.0512695, -0.2875977, -15.1829271, -30, -5, 0.2052796
-1.0615234, 0.0742188, -0.2944336, -15.4878054, -30.1219521, -4.8780489, 0.1673457
-1.0361328, 0.0878906, -0.3120117, -17.5, -31.8292694, -5.0609756, 0.1700313
-1.0229492, 0.0620117, -0.3188477, -18.8414631, -32.6829262, -5.3048782, 0.1837949
-1.0302734, 0.0385742, -0.3183594, -21.1585369, -34.5121956, -6.4024391, 0.1653315
-1.0742188, -0.0039062, -0.2905273, -21.1585369, -35.7317085, -7.3780489, 0.1211872
-1.0883789, -0.015625, -0.2709961, -20.060976, -35.9146347, -7.3170733, 0.0240024
-1.0927734, -0.0249023, -0.2451172, -17.0731716, -35.9146347, -6.7073174, -0.090135
-1.0898438, -0.0131836, -0.2441406, -16.2195129, -35.6707344, -6.5853658, -0.1498894
-1.0600586, 0.0195312, -0.2539062, -15.5487804, -34.9390259, -6.0975609, -0.1901732
-1.0483398, 0.0380859, -0.2617188, -15.6097565, -34.3902435, -6.0365853, -0.2250858
-1.0219727, 0.0644531, -0.277832, -16.6463413, -34.7560997, -5.670732, -0.2472419
-1.0214844, 0.0717773, -0.2895508, -17.3170738, -35.1219521, -5.8536587, -0.266041
-1.027832, 0.0693359, -0.2910156, -19.0243912, -36.1585388, -6.8292685, -0.3570153
-1.0483398, 0.0512695, -0.2714844, -19.3292694, -36.5853653, -7.4390244, -0.413077
-1.0546875, 0.0415039, -0.253418, -20.1219521, -36.8902435, -9.0853662, -0.4374151
-1.0439453, 0.0356445, -0.1967773, -19.2682934, -36.341465, -9.6951218, -0.445304
-1.0336914, 0.0439453, -0.1904297, -19.0243912, -35.5487823, -9.8170738, -0.4590677
-1.0073242, 0.0576172, -0.2231445, -18.6585369, -32.9878044, -8.6585369, -0.4184482
-0.9941406, 0.0595703, -0.2519531, -19.2682934, -31.9512196, -8.3536587, -0.4026703
-0.9916992, 0.0625, -0.2900391, -20.4268303, -32.8048782, -8.5365858, -0.406363
-0.9941406, 0.0664062, -0.2973633, -21.1585369, -33.5365868, -9.0243902, -0.3380484
-1.0239258, 0.0644531, -0.3007812, -21.4634151, -34.7560997, -9.9390249, -0.288365
-1.0483398, 0.0581055, -0.2919922, -21.0365868, -35, -10.1219511, -0.2375067
-1.0541992, 0.0429688, -0.293457, -20.8536587, -36.0975609, -9.5731707, -0.2177005
-1.0478516, 0.0107422, -0.3100586, -20.7926826, -36.341465, -9.3292685, -0.2066224
-1.046875, -0.0097656, -0.3144531, -20.6097565, -36.6463432, -8.2317076, -0.1545892
-1.0449219, -0.0527344, -0.3144531, -19.8170738, -37.3780479, -7.3170733, -0.0767071
-1.0512695, -0.0649414, -0.3051758, -18.5365849, -37.8048782, -6.7682929, -0.0176242
-1.0541992, -0.0668945, -0.2910156, -15.7317076, -38.4756088, -5.670732, -0.0196384
-1.0600586, -0.0517578, -0.2880859, -13.6585369, -38.4146347, -4.6341462, 0.0223239
-1.0532227, -0.0058594, -0.2973633, -11.5243902, -37.9268303, -2.9878049, 0.0602579
-1.046875, 0.0073242, -0.2993164, -10.9146347, -38.2926826, -2.3780489, 0.0830854
-1.0175781, 0.0195312, -0.2983398, -11.9512196, -39.0243912, -1.5243902, 0.1205158
-0.9985352, 0.0209961, -0.2753906, -12.3780489, -38.841465, -1.2804878, 0.1824521
-0.996582, 0.0239258, -0.2719727, -13.2926836, -38.841465, -0.8536586, 0.1928588
-0.9960938, 0.0263672, -0.2875977, -13.2317076, -38.4756088, -0.5487805, 0.1905089
-0.9995117, 0.0292969, -0.2978516, -11.9512196, -38.2317085, -0.1219512, 0.2190433
-1.0019531, 0.0327148, -0.2958984, -11.6463413, -38.7195129, 0.4268293, 0.2415351
-1.0048828, 0.0458984, -0.2895508, -12.0121956, -38.9634171, 0.1829268, 0.2714122
-1.0024414, 0.0732422, -0.2539062, -12.8048782, -37.9878044, 0.3048781, 0.2969253
-0.9941406, 0.0893555, -0.2387695, -12.9268293, -37.2560997, 0.4268293, 0.3086748
-0.9609375, 0.097168, -0.2163086, -13.2926836, -35.6097565, 0.7317073, 0.2170291
-0.9433594, 0.09375, -0.2109375, -13.9024391, -34.8170738, 0.5487805, 0.1764096
-0.9228516, 0.0893555, -0.199707, -15.6707325, -32.2560997, -0.4268293, 0.1784237
-0.9223633, 0.078125, -0.1835938, -16.8292694, -30.6097565, -0.4878049, 0.1690242
-0.9301758, 0.0761719, -0.1835938, -17.9878044, -27.6219521, -0.5487805, 0.1629816
-0.9492188, 0.0717773, -0.2348633, -18.5365849, -26.0365868, -0.3658537, 0.1748989
-0.9550781, 0.0668945, -0.2626953, -18.5365849, -23.3536587, -0.5487805, 0.0985275
-1, 0.0454102, -0.2856445, -19.4512196, -22.6219521, -0.1829268, 0.0204776
-1.0141602, 0.0327148, -0.2841797, -20.060976, -22.6829281, 0.0609756, 0.0105745
-1.0415039, 0.0058594, -0.2744141, -20.3048782, -21.8292694, 0.9756098, 0.0041962
-1.0439453, 0, -0.2641602, -20, -20.5487804, 1.3414634, 0.0112459
-1.0444336, 0.0048828, -0.2519531, -18.5365849, -18.0487804, 2.5, 0.0025177
-1.0390625, 0.0102539, -0.2524414, -17.5, -16.6463413, 3.0487804, -0.0146029
-1.0200195, 0.019043, -0.2783203, -16.7073174, -14.3292685, 4.8780489, -0.0095674
-1.0234375, 0.0234375, -0.315918, -16.5853653, -13.2926836, 5.3658538, -0.0045319
-1.0263672, 0.0239258, -0.3310547, -16.1585369, -11.9512196, 6.9512196, -0.0048676
-1.0415039, 0.027832, -0.3378906, -15.060976, -12.2560978, 8.4756098, -0.0619364
-1.050293, 0.03125, -0.324707, -14.3902445, -12.4390249, 8.9024391, -0.0532082
-1.050293, 0.0249023, -0.3046875, -13.9024391, -11.9512196, 9.0243902, -0.047837
-1.0512695, 0.0200195, -0.3007812, -14.0243902, -11.341464, 9.3292685, -0.0419623
-1.0610352, 0.0234375, -0.2915039, -14.0853662, -9.4512196, 9.9390249, -0.0198062
-1.0571289, 0.0200195, -0.2851562, -13.7195129, -8.5365858, 10.7317076, 0.0318914
-1.0517578, 0.0058594, -0.2783203, -12.2560978, -6.5853658, 12.0121956, 0.0464942
-1.0488281, 0.003418, -0.2851562, -11.9512196, -5.670732, 12.9268293, 0.0213169
-1.0610352, -0.0009766, -0.3320312, -11.219512, -4.0853658, 13.4756098, 0.0629435
-1.0952148, 0.0083008, -0.3852539, -10.9756098, -3.5365853, 13.780488, 0.1408255
-1.1108398, 0.0146484, -0.3935547, -9.8780489, -3.5975611, 15.1829271, 0.2458991
-1.1347656, 0.0258789, -0.3823242, -7.9878049, -4.9390244, 16.4634151, 0.4033417
-1.1396484, 0.0322266, -0.3598633, -7.7439027, -5.1219511, 16.8292694, 0.5664912
-1.1108398, 0.0175781, -0.3041992, -7.4390244, -4.390244, 17.9878044, 0.6119783
-1.0878906, 0.0112305, -0.2753906, -7.4390244, -3.1707318, 18.2926826, 0.6453803
-1.0512695, -0.0048828, -0.234375, -7.5, 1.5243902, 18.7195129, 0.6806287
-1.0395508, -0.0053711, -0.222168, -6.9512196, 3.7804878, 19.2682934, 0.6650187
-1.0253906, 0.015625, -0.2167969, -5.2439027, 8.719512, 20.2439022, 0.6443732
-1.0229492, 0.0322266, -0.2260742, -4.6341462, 11.4024391, 20.4268303, 0.6752575
-1.0351562, 0.0683594, -0.2612305, -4.0243902, 15.9146347, 20.5487804, 0.6440375
-1.0546875, 0.0961914, -0.3076172, -4.6341462, 17.5, 20.3048782, 0.6027466
-1.0668945, 0.1005859, -0.324707, -7.0731707, 19.8780499, 21.0365868, 0.6363165
-1.0810547, 0.0839844, -0.3447266, -9.8780489, 21.5243912, 21.5853672, 0.6453803
-1.0913086, 0.0712891, -0.3520508, -10.2439022, 22.2560978, 21.5853672, 0.6604868
-1.1044922, 0.0551758, -0.3603516, -11.219512, 23.780489, 22.6219521, 0.6611582
-1.1079102, 0.0454102, -0.3647461, -11.0365858, 24.6951218, 23.2317085, 0.6262455
-1.1113281, 0.0546875, -0.3901367, -9.9390249, 26.3414631, 24.0853672, 0.5874723
-1.1137695, 0.0551758, -0.4082031, -9.5121956, 26.8902454, 24.6951218, 0.5201648
-1.121582, 0.0517578, -0.4238281, -8.9024391, 27.2560978, 26.1585369, 0.4594034
-1.1230469, 0.0483398, -0.418457, -8.9024391, 27.3170738, 26.6463413, 0.3385519
-1.1313477, 0.0419922, -0.375, -8.719512, 27.6829281, 27.9878063, 0.2667124
-1.1181641, 0.0263672, -0.3408203, -8.3536587, 28.9024391, 28.3536587, 0.2099794
-1.1171875, 0.0214844, -0.3291016, -7.5609756, 32.3780479, 29.2073174, 0.1482109
-1.1259766, 0.0297852, -0.331543, -5.9756098, 36.4024391, 30.3658543, 0.0548867
-1.1298828, 0.0356445, -0.347168, -5.1219511, 38.2317085, 31.0975609, 0.0025177
-1.1362305, 0.0522461, -0.3984375, -4.2073174, 41.4024391, 32.1341476, -0.0861067
-1.1469727, 0.0566406, -0.4238281, -4.390244, 42.2560997, 32.8048782, -0.1978943
-1.1743164, 0.0605469, -0.4433594, -4.8170733, 42.3170738, 33.6585388, -0.2432136
-1.1806641, 0.0649414, -0.4384766, -5.4268293, 42.5609779, 34.0243912, -0.276112
-1.1865234, 0.0703125, -0.4169922, -5.9756098, 42.9878044, 34.6951218, -0.3140459
-1.1762695, 0.0708008, -0.4116211, -6.2195125, 44.0853653, 34.9390259, -0.3247883
-1.1708984, 0.0551758, -0.4091797, -6.2195125, 45.7317085, 35.5487823, -0.3271382
-1.1655273, 0.0361328, -0.3920898, -5.609756, 46.7073174, 35.9146347, -0.4191196
-1.1650391, 0.0395508, -0.3706055, -4.2073174, 47.9878044, 37.0121956, -0.4614176
-1.1591797, 0.0478516, -0.3334961, -2.2560976, 50.8536606, 37.6219521, -0.4627604
-1.1503906, 0.0600586, -0.3300781, -1.2804878, 52.6829262, 37.8048782, -0.4758526
-1.1337891, 0.0654297, -0.3554688, -0.8536586, 56.8292694, 38.1097565, -0.4817273
-1.1279297, 0.0708008, -0.3740234, -1.3414634, 58.5975609, 38.3536606, -0.4365759
-1.1333008, 0.0810547, -0.4086914, -2.1341465, 60.9146347, 39.5731735, -0.4654459
-1.1401367, 0.0898438, -0.418457, -2.5609756, 61.5243912, 39.9390259, -0.4892805
-1.1518555, 0.1010742, -0.4125977, -3.1707318, 63.1097565, 40.4268303, -0.4196231
-1.1606445, 0.1040039, -0.4228516, -3.0487804, 63.841465, 40.6097565, -0.3697719
-1.1826172, 0.1010742, -0.4418945, -2.9878049, 65.7317123, 40.1219521, -0.3288167
-1.2089844, 0.0864258, -0.4365234, -3.1707318, 66.6463394, 40.0609779, -0.3110246
-1.2177734, 0.0786133, -0.4311523, -3.0487804, 67.8658524, 41.0365868, -0.2623484
-1.2167969, 0.0600586, -0.4501953, -3.6585367, 69.5731735, 42.5, -0.1918517
-1.2124023, 0.0380859, -0.4672852, -3.7195122, 70.7317123, 43.1707344, -0.1270619
-1.2124023, 0.0097656, -0.4824219, -3.7195122, 72.0731735, 44.4512215, -0.0652934
-1.2172852, 0.0014648, -0.4750977, -3.2317073, 71.5243912, 45.1219521, -0.0775463
-1.2241211, 0.0053711, -0.4521484, -0.8536586, 71.5243912, 47.0731735, -0.0636149
-1.2246094, 0.0146484, -0.4399414, 0.4268293, 72.3780518, 47.9268303, -0.0330663
-1.2163086, 0.0566406, -0.4306641, 3.1707318, 75.0609741, 49.0853653, -0.0179599
-1.2109375, 0.0786133, -0.4379883, 4.0853658, 76.0975647, 49.3902435, -0.0050355
-1.1918945, 0.0942383, -0.4692383, 4.6951222, 78.2317123, 50.5487823, 0.0515297
-1.1738281, 0.0771484, -0.4760742, 4.3292685, 78.8414688, 50.7317085, 0.056733
-1.1713867, 0.0703125, -0.4726562, 3.5975611, 79.0853653, 50.7926826, 0.0240024
-1.1787109, 0.0693359, -0.4819336, 4.5731707, 80.1219559, 51.4634171, 0.0374304
-1.1875, 0.0820312, -0.4824219, 5.3048782, 81.2195129, 52.2560997, 0.0626078
-1.2099609, 0.1025391, -0.4873047, 7.7439027, 82.3170776, 53.3536606, 0.0532082
-1.2094727, 0.1201172, -0.4941406, 7.9878049, 82.8658524, 54.0243912, 0.0548867
-1.1943359, 0.1352539, -0.4990234, 6.7073174, 82.9268341, 53.9634171, 0.0404517
-1.1855469, 0.1416016, -0.4887695, 5.3658538, 83.5365906, 53.841465, -0.0525368
-1.1669922, 0.1479492, -0.4638672, 3.5365853, 85.4878082, 53.0487823, -0.1025559
-1.1591797, 0.1494141, -0.4467773, 3.0487804, 86.7073212, 52.8658562, -0.1559319
-1.1347656, 0.1479492, -0.4389648, 2.8658538, 89.146347, 52.6219521, -0.2250858
-1.1157227, 0.1259766, -0.4614258, 2.4390244, 90.6097565, 52.7439041, -0.3143816
-1.1162109, 0.112793, -0.4672852, 0.9146342, 93.4146347, 52.3780518, -0.3842069
-1.1313477, 0.09375, -0.453125, -0.0609756, 95.7926865, 52.1951218, -0.4667887
-1.1411133, 0.0864258, -0.4541016, 0.6097561, 96.4024429, 52.2560997, -0.5225147
-1.1542969, 0.0986328, -0.4731445, 1.7682927, 98.8414688, 53.2317085, -0.4518502
-1.15625, 0.109375, -0.5039062, 2.195122, 100.1219559, 53.841465, -0.3566796
-1.1572266, 0.1450195, -0.5478516, 0.7317073, 102.2561035, 54.6951218, -0.2646983
-1.1640625, 0.1567383, -0.5571289, -0.3048781, 102.68293, 55.4268303, -0.2217288
-1.159668, 0.1782227, -0.5366211, -1.7073171, 103.0487823, 56.5243912, -0.2153506
-1.1289062, 0.1811523, -0.4995117, -2.2560976, 103.3536606, 56.341465, -0.2532845
-1.1098633, 0.1772461, -0.4916992, -3.5975611, 105.3658524, 54.7560997, -0.3237812
-1.0859375, 0.1640625, -0.5014648, -4.6341462, 106.8902435, 53.7804909, -0.3736324
-1.0800781, 0.1542969, -0.5185547, -7.6219516, 110.3048782, 52.4390259, -0.4669566
-1.0727539, 0.1308594, -0.5556641, -9.8780489, 112.0121994, 53.5365868, -0.5226825
-1.0766602, 0.1279297, -0.5664062, -10.2439022, 112.4390259, 54.3902435, -0.5460136
-1.0834961, 0.1342773, -0.574707, -9.0243902, 112.4390259, 56.1585388, -0.5473564
-1.0908203, 0.1484375, -0.5800781, -7.6219516, 112.5609818, 56.7073174, -0.5147936
-1.1049805, 0.1904297, -0.5864258, -7.1341467, 112.68293, 57.5609779, -0.4483253
-1.1030273, 0.2094727, -0.5756836, -7.6219516, 112.7439041, 57.8048782, -0.4348974
-1.0844727, 0.2202148, -0.5488281, -9.5121956, 114.146347, 57.5609779, -0.4516823
-1.0400391, 0.1962891, -0.5336914, -10.8536587, 114.8780518, 56.9512215, -0.421973
-1.0253906, 0.1801758, -0.53125, -12.3170738, 117.86586, 55.3048782, -0.3979706
-1.0141602, 0.1674805, -0.5039062, -12.4390249, 119.4512253, 54.8780518, -0.3501335
-1.0126953, 0.171875, -0.4931641, -10.4878054, 122.5, 55.2439041, -0.2742657
-0.9916992, 0.1938477, -0.5136719, -9.2682924, 125.4268341, 56.0365868, -0.2163577
-0.984375, 0.1982422, -0.5473633, -9.8170738, 127.3170776, 56.341465, -0.2401923
-0.9873047, 0.1958008, -0.6176758, -13.2317076, 130.4878082, 55.9146347, -0.2173648
-0.9990234, 0.1923828, -0.6420898, -14.8170738, 130.6707306, 56.0365868, -0.194873
-1.0253906, 0.2080078, -0.6513672, -15.9756098, 130.1829224, 56.7682953, -0.1911803
-1.0371094, 0.2211914, -0.6621094, -15.9756098, 129.6951294, 57.1341476, -0.1770809
-1.0439453, 0.2358398, -0.7016602, -15.4878054, 129.8170776, 58.2926826, -0.1327687
-1.0483398, 0.2431641, -0.7246094, -16.0365849, 129.5731812, 58.6585388, -0.1334401
-1.0498047, 0.2392578, -0.7080078, -18.1707325, 128.2926788, 58.4146347, -0.1740597
-1.0395508, 0.2236328, -0.6557617, -19.2682934, 127.8048782, 58.2317085, -0.1754025
-1.0224609, 0.2216797, -0.6484375, -19.5731716, 127.5, 57.68293, -0.1774166
-0.9960938, 0.2192383, -0.6621094, -19.2682934, 129.5121918, 57.68293, -0.158114
-0.9863281, 0.2104492, -0.6601562, -19.2682934, 129.9390259, 58.1097565, -0.1841306
-0.9609375, 0.1806641, -0.6274414, -18.9634151, 129.3292694, 58.6585388, -0.2271
-0.9399414, 0.1713867, -0.6176758, -19.3292694, 129.2073212, 58.4756126, -0.2834974
-0.9150391, 0.1787109, -0.6323242, -20.3658543, 131.4024353, 58.2317085, -0.328481
-0.9160156, 0.2006836, -0.644043, -20.5487804, 132.6829224, 59.0853691, -0.3519799
-0.925293, 0.2558594, -0.6748047, -20.1829281, 134.4512177, 61.8292694, -0.4389258
-0.9165039, 0.2880859, -0.7226562, -20, 134.5121918, 63.2317085, -0.4704814
-0.9189453, 0.2949219, -0.7412109, -20.8536587, 134.0853729, 63.841465, -0.4889448
-0.9370117, 0.2719727, -0.7265625, -21.9512196, 133.5975647, 63.5365868, -0.5560845
-0.9472656, 0.2592773, -0.6958008, -25.1829281, 132.0121918, 61.7682953, -0.6047608
-0.9428711, 0.2397461, -0.6489258, -26.8902454, 132.3780518, 60.9146347, -0.6047608
-0.9379883, 0.2392578, -0.6435547, -27.6219521, 133.9024353, 60.6707344, -0.6588083
-0.918457, 0.2426758, -0.6713867, -27.560976, 138.1707306, 61.4634171, -0.7313191
-0.9111328, 0.2529297, -0.6938477, -27.560976, 139.4512177, 62.5, -0.7326619
-0.8969727, 0.2817383, -0.75, -27.560976, 140.4268341, 64.3292694, -0.7383688
-0.8881836, 0.2900391, -0.7719727, -28.2926826, 140.0609741, 65.0609741, -0.7172198
-0.878418, 0.2924805, -0.7802734, -29.6341476, 139.0243988, 65.4268341, -0.6707256
-0.8691406, 0.2788086, -0.7641602, -30.6707325, 138.1097565, 65.1219559, -0.6306096
-0.8725586, 0.2700195, -0.7602539, -32.2560997, 136.8902435, 64.2073212, -0.6527657
-0.8779297, 0.2597656, -0.7670898, -33.2317085, 136.9512177, 63.9024391, -0.6151675
-0.8764648, 0.2617188, -0.7763672, -33.7195129, 137.0121918, 64.5121994, -0.5654841
-0.8818359, 0.2758789, -0.8105469, -34.3292694, 136.5853729, 66.5853653, -0.5362783
-0.8828125, 0.2929688, -0.8310547, -34.6951218, 136.3414612, 68.0487823, -0.5017014
-0.8891602, 0.3217773, -0.8945312, -35.6707344, 135.3048859, 70.2439041, -0.4033417
-0.9013672, 0.3286133, -0.9077148, -36.0365868, 133.9024353, 70.9146347, -0.3367056
-0.9174805, 0.3359375, -0.8911133, -36.0365868, 130.6097565, 71.6463394, -0.3076677
-0.9228516, 0.3300781, -0.8603516, -35.9146347, 129.3292694, 71.7073212, -0.2351568
-0.8979492, 0.2973633, -0.8139648, -36.0365868, 127.68293, 70.0609741, -0.1641566
-0.8583984, 0.2709961, -0.7885742, -36.5243912, 127.68293, 68.9634171, -0.0834211
-0.8334961, 0.265625, -0.7890625, -37.4390259, 128.5365906, 68.1097565, 0.0035248
-0.8032227, 0.2841797, -0.8017578, -36.341465, 130.4878082, 69.8780518, 0.0800641
-0.7905273, 0.3061523, -0.8242188, -34.9390259, 130.8536682, 71.5853653, 0.1539178
-0.7763672, 0.3657227, -0.871582, -32.3170738, 131.3414612, 75.7317123, 0.2307927
-0.7788086, 0.390625, -0.8891602, -31.8292694, 131.0365906, 77.9268341, 0.2989395
-0.78125, 0.4077148, -0.8847656, -33.2317085, 128.8414612, 79.5731735, 0.2682231
-0.7871094, 0.4003906, -0.8613281, -34.0853653, 127.9878082, 79.0243912, 0.2871901
-0.777832, 0.3564453, -0.8115234, -37.7439041, 127.4390259, 76.0975647, 0.3221027
-0.7734375, 0.3339844, -0.8017578, -39.5731735, 128.4146423, 74.5731735, 0.3372091
-0.7861328, 0.3027344, -0.8110352, -40.9756088, 132.1341553, 73.8414688, 0.3516442
-0.7954102, 0.315918, -0.8603516, -41.0975609, 133.7804871, 75.6707306, 0.4013275
-0.7905273, 0.3251953, -0.8964844, -39.8170738, 135.2439117, 81.2195129, 0.3838712
-0.7719727, 0.3588867, -0.9306641, -39.2682953, 133.7195129, 86.0975647, 0.3459373
-0.7607422, 0.3745117, -0.9194336, -39.3902435, 132.3170776, 88.0487823, 0.3536584
-0.7197266, 0.3886719, -0.8989258, -41.7073174, 129.5121918, 89.146347, 0.3325093
-0.6914062, 0.3706055, -0.8823242, -43.1707344, 129.5731812, 87.5, 0.2892042
-0.6674805, 0.3212891, -0.8657227, -45.0609779, 130.6707306, 83.6585388, 0.2495918
-0.6791992, 0.3129883, -0.8779297, -45.3048782, 131.8902435, 83.1097565, 0.2180362
-0.7241211, 0.3242188, -0.9116211, -44.1463432, 132.86586, 86.5243912, 0.1263905
-0.7304688, 0.3339844, -0.9306641, -43.0487823, 132.6829224, 89.6951218, 0.0844282
-0.7182617, 0.3603516, -0.9438477, -41.4024391, 130.9146423, 95.4878082, 0.0639506
-0.6884766, 0.3930664, -0.949707, -40.9146347, 130.0609741, 97.3170776, 0.0206455
-0.6743164, 0.4091797, -0.9555664, -41.341465, 129.0243988, 97.6219559, -0.0485084
-0.6435547, 0.4204102, -0.9731445, -43.5975609, 128.3536682, 95.6707306, -0.0652934
-0.6396484, 0.4223633, -0.9638672, -44.6341476, 127.68293, 94.5731735, -0.1297475
-0.6289062, 0.4189453, -0.9277344, -46.5243912, 126.8902435, 93.5975647, -0.2297856
-0.6142578, 0.421875, -0.9272461, -46.8902435, 126.4634171, 93.9024429, -0.2606699
-0.6010742, 0.4384766, -0.9746094, -46.7682953, 128.7195129, 95.7926865, -0.2747692
-0.5986328, 0.4379883, -1.0058594, -46.7682953, 129.6951294, 96.8902435, -0.2881971
-0.6196289, 0.4091797, -1.0136719, -47.5609779, 128.4146423, 97.8658524, -0.3138781
-0.6381836, 0.40625, -0.9912109, -47.5609779, 126.5243912, 97.8658524, -0.3509728
-0.6640625, 0.4345703, -0.9467773, -46.9512215, 124.5731735, 97.9878082, -0.3684291
-0.6523438, 0.4692383, -0.972168, -46.1585388, 125.7317123, 98.1097565, -0.340734
-0.6416016, 0.4775391, -1.0087891, -47.3170738, 129.5121918, 97.8658524, -0.3098497
-0.6425781, 0.4794922, -1.0688477, -50.6097565, 130.1829224, 96.2804871, -0.360708
-0.6552734, 0.4770508, -1.0649414, -52.1341476, 129.0853729, 96.0365906, -0.3593652
-0.652832, 0.4775391, -1.0058594, -53.3536606, 125.7926865, 96.4634171, -0.3298238
-0.6420898, 0.4746094, -0.9638672, -53.1097565, 125.2439041, 96.1585388, -0.2831617
-0.6069336, 0.4794922, -0.9604492, -51.341465, 128.2317047, 94.3902435, -0.2286107
-0.5952148, 0.4746094, -1.0146484, -51.341465, 130.9756165, 93.8414688, -0.1532464
-0.6254883, 0.4482422, -1.090332, -53.841465, 135.0609741, 94.2682953, -0.1351186
-0.6582031, 0.4438477, -1.0805664, -53.9634171, 134.0853729, 95.8536606, -0.1317617
-0.6923828, 0.4331055, -1.0102539, -51.9512215, 128.9634247, 100.3048782, -0.0753643
-0.6674805, 0.4223633, -0.9868164, -50.3048782, 128.1097565, 101.7682953, 0.0152743
-0.6572266, 0.4111328, -0.996582, -49.3292694, 131.7073212, 101.8902435, 0.0914778
-0.6625977, 0.3896484, -1.0239258, -52.0731735, 136.1585388, 100.6707306, 0.1508965
-0.671875, 0.3813477, -1.0288086, -53.4756126, 136.5243988, 100.7317123, 0.2240787
-0.6791992, 0.3896484, -1.0375977, -52.8048782, 135.4878082, 103.8414688, 0.2198825
-0.6723633, 0.4077148, -1.0410156, -51.341465, 135.4268341, 106.7682953, 0.2438849
-0.6259766, 0.4291992, -1.046875, -48.5975609, 135.4268341, 110.9146347, 0.2932326
-0.6005859, 0.4331055, -1.059082, -47.8658562, 135.5487823, 111.8292694, 0.3335164
-0.5947266, 0.4335938, -1.0786133, -48.0487823, 135.4268341, 111.5243912, 0.3546654
-0.6079102, 0.4345703, -1.065918, -48.4756126, 135.2439117, 111.8902435, 0.4291905
-0.6123047, 0.449707, -1.0175781, -47.6829262, 134.0853729, 113.6585388, 0.4429541
-0.5834961, 0.4750977, -0.9980469, -47.0121956, 134.0853729, 114.3902435, 0.4087129
-0.5615234, 0.4819336, -1.0097656, -45.7926826, 136.5243988, 115.36586, 0.4273442
-0.5292969, 0.4892578, -1.0610352, -46.8902435, 139.0243988, 114.7561035, 0.4607462
-0.5302734, 0.4926758, -1.0703125, -47.6219521, 139.2682953, 114.6951218, 0.4886091
-0.534668, 0.4780273, -1.043457, -48.4146347, 137.5609741, 114.6341476, 0.4724956
-0.5390625, 0.4711914, -1.0268555, -47.9268303, 136.2804871, 114.6341476, 0.4160983
-0.5356445, 0.4711914, -1.0126953, -45.7317085, 136.646347, 115.4268341, 0.3902495
-0.5297852, 0.4750977, -1.0102539, -44.9390259, 138.1097565, 115.5487823, 0.3978027
-0.5239258, 0.4794922, -0.9975586, -45.6097565, 139.9390259, 115.7317123, 0.4100557
-0.5166016, 0.4838867, -0.9829102, -46.6463432, 139.9390259, 115.5487823, 0.3489586
-0.487793, 0.4990234, -0.9682617, -48.2926826, 141.5853729, 115.0609818, 0.3325093
-0.4511719, 0.512207, -0.9907227, -48.5975609, 142.9268341, 115, 0.2892042
-0.4448242, 0.515625, -1.0053711, -49.5121956, 145.6707306, 114.6951218, 0.2539559
-0.4404297, 0.4995117, -1.0239258, -50.2439041, 145.8536682, 114.146347, 0.2314641
-0.4433594, 0.4902344, -1.0239258, -50.7926826, 145.2439117, 114.3292694, 0.2422065
-0.465332, 0.4799805, -1.0258789, -50.5487823, 144.4512177, 114.8780518, 0.2153506
-0.4746094, 0.484375, -1.0307617, -50.3048782, 144.5731812, 115.5487823, 0.1790951
-0.4775391, 0.4946289, -1.0585938, -49.6951218, 145.7926788, 117.1951218, 0.1916838
-0.4780273, 0.4926758, -1.0825195, -49.9390259, 145.9146423, 117.2561035, 0.2017548
-0.484375, 0.484375, -1.1225586, -50.7317085, 145.0609741, 117.5, 0.1849699
-0.5019531, 0.4794922, -1.1196289, -50.8536606, 143.9024353, 117.8048782, 0.1831235
-0.5263672, 0.4819336, -1.0717773, -48.4146347, 140.9756165, 119.2682953, 0.2005798
-0.5083008, 0.5024414, -1.0327148, -46.7073174, 139.3902435, 119.8780518, 0.1482109
-0.4887695, 0.5141602, -1.0273438, -44.8780479, 140.36586, 119.8170776, 0.1441825
-0.4521484, 0.5332031, -1.0322266, -46.1585388, 142.86586, 118.0487823, 0.1777523
-0.4355469, 0.5361328, -1.027832, -47.3780518, 143.7195129, 117.0121994, 0.2388495
-0.3955078, 0.543457, -1.0024414, -47.6829262, 143.4756165, 115.9146347, 0.3205921
-0.375, 0.5410156, -1, -47.6219521, 143.4146423, 115.2439041, 0.4496681
-0.3623047, 0.5532227, -1.0483398, -47.6829262, 144.8170776, 114.6951218, 0.4946517
-0.3686523, 0.559082, -1.0634766, -47.9878044, 145.5487823, 115.3048782, 0.4966659
-0.3935547, 0.5668945, -1.0175781, -49.2073174, 144.8780518, 116.4634171, 0.5456779
-0.3764648, 0.5517578, -0.9882812, -49.1463432, 143.9634247, 116.2804871, 0.5762264
-0.3632812, 0.5253906, -0.9960938, -48.1707344, 146.3414612, 114.0853653, 0.6366522
-0.3798828, 0.4804688, -1.0214844, -47.6829262, 148.4146423, 112.1951218, 0.6786145
-0.4003906, 0.4716797, -1.0336914, -46.4634171, 149.8780518, 110.6707306, 0.7053025
-0.4326172, 0.4785156, -1.0517578, -43.7804871, 148.7804871, 112.8048782, 0.7380331
-0.4335938, 0.4907227, -1.0576172, -42.5609779, 148.5365906, 114.7561035, 0.7531395
-0.4301758, 0.5234375, -1.0791016, -40.5487823, 149.0853729, 117.6219559, 0.7685817
-0.4238281, 0.5327148, -1.074707, -40.3048782, 149.146347, 117.8048782, 0.7094987
-0.3969727, 0.5541992, -1.0083008, -39.4512215, 147.8048859, 115.7317123, 0.7044633
-0.3642578, 0.5576172, -0.9838867, -39.0853653, 147.3170776, 114.0243912, 0.7254444
-0.2939453, 0.546875, -1.0136719, -39.8780479, 150.1219482, 108.9024429, 0.7534752
-0.2856445, 0.5366211, -1.0512695, -41.0365868, 152.3170776, 107.4390259, 0.8115511
-0.2998047, 0.5258789, -1.0405273, -41.8292694, 153.0487823, 108.3536606, 0.8907759
-0.3032227, 0.5175781, -0.9975586, -40.7317085, 151.2195129, 110.18293, 0.8793622
-0.293457, 0.515625, -0.9731445, -38.1707344, 149.0243988, 112.5, 0.8469673
-0.2724609, 0.5239258, -0.9536133, -37.0121956, 151.5853729, 111.9512253, 0.8196078
-0.2670898, 0.5302734, -0.9638672, -37.3170738, 153.3536682, 111.3414688, 0.7538109
-0.269043, 0.5488281, -1, -39.5121956, 155.7317047, 109.6341476, 0.6551156
-0.2685547, 0.5615234, -1.0073242, -40.2439041, 155.9756165, 109.2073212, 0.5676661
-0.262207, 0.5805664, -0.9892578, -40.2439041, 154.2073212, 109.3902435, 0.5094224
-0.2460938, 0.5825195, -0.972168, -39.8780479, 153.5975647, 109.146347, 0.3857176
-0.2016602, 0.5664062, -0.9477539, -39.7560997, 154.8170776, 107.3170776, 0.3137102
-0.1835938, 0.5302734, -0.9536133, -40.5487823, 156.2195129, 105.2439041, 0.2388495
-0.1855469, 0.5053711, -0.9580078, -41.0975609, 158.8414612, 102.1341476, 0.1305867
-0.2143555, 0.480957, -0.9638672, -40.8536606, 158.9634247, 101.4634171, 0.0508583
-0.2236328, 0.4794922, -0.9580078, -39.7560997, 158.3536682, 103.0487823, 0.0085603
-0.222168, 0.496582, -0.9819336, -37.6219521, 158.0487823, 106.646347, -0.0842603
-0.2094727, 0.5112305, -1.0107422, -37.0121956, 158.4756165, 107.7439041, -0.191516
-0.2036133, 0.5268555, -1.0405273, -36.6463432, 158.4756165, 107.9878082, -0.2294499
-0.2075195, 0.527832, -1.0209961, -36.5853653, 157.3780518, 107.1951218, -0.2734264
-0.2041016, 0.5361328, -0.9487305, -34.5731697, 153.5975647, 105, -0.3056535
-0.1816406, 0.5371094, -0.9208984, -33.2317085, 153.4146423, 103.5365906, -0.3669184
-0.1259766, 0.5302734, -0.9135742, -31.6463413, 156.4024353, 100.6097565, -0.4261692
-0.0917969, 0.5239258, -0.9736328, -31.7073174, 158.5975647, 99.5121994, -0.4610819
-0.0888672, 0.5180664, -1.003418, -33.5365868, 159.8780518, 99.6341476, -0.4755169
-0.0976562, 0.5297852, -0.9916992, -33.9634171, 158.9024353, 100.9756088, -0.5013657
-0.0966797, 0.5366211, -0.9658203, -32.4390259, 155.1829376, 104.4512253, -0.5782406
-0.0717773, 0.5444336, -0.9238281, -30.4268303, 153.1097565, 104.8170776, -0.5748836
-0.0537109, 0.5449219, -0.9199219, -30.7926846, 153.9024353, 103.3536606, -0.5439994
-0.0439453, 0.534668, -0.8999023, -32.1951218, 157.2561035, 99.3902435, -0.5090867
-0.0444336, 0.5288086, -0.8813477, -32.6219521, 158.2317047, 97.5609741, -0.487602
-0.0229492, 0.5117188, -0.8544922, -32.0121956, 159.3902435, 95.7317123, -0.4489967
-0.0009766, 0.5058594, -0.8486328, -31.2195129, 160.6707306, 95.4268341, -0.4647745
0.0288086, 0.4931641, -0.871582, -30.4878063, 164.0243988, 95.5487823, -0.4966659
0.0356445, 0.4897461, -0.8974609, -30.7926846, 165.2439117, 95.8536606, -0.4466468
0.0322266, 0.4873047, -0.8901367, -31.0365868, 166.2804871, 96.7682953, -0.4077058
0.0332031, 0.4711914, -0.8461914, -30.3658543, 166.0365906, 97.0731735, -0.3924315
0.0449219, 0.4716797, -0.8291016, -29.2682934, 166.7073212, 96.0975647, -0.3560082
0.0561523, 0.4794922, -0.8598633, -27.7439022, 170.5487823, 94.3902435, -0.3083391
0.0522461, 0.4829102, -0.8945312, -27.560976, 172.4390259, 94.2682953, -0.3593652
0.0375977, 0.4882812, -0.9526367, -28.3536587, 173.4756165, 95.8536606, -0.3620508
0.0258789, 0.4902344, -0.9526367, -28.5975609, 172.1951294, 96.8292694, -0.3519799
0.0234375, 0.4887695, -0.9145508, -28.1707325, 169.2073212, 98.1097565, -0.34963
0.0297852, 0.4848633, -0.8964844, -27.1951218, 169.0853729, 98.0487823, -0.3442588
0.0429688, 0.4667969, -0.8793945, -26.2195129, 171.0365906, 96.5243912, -0.3120317
0.0546875, 0.4521484, -0.8925781, -26.2195129, 171.8902435, 95.6097565, -0.3513085
0.0566406, 0.4438477, -0.8911133, -26.3414631, 172.3170776, 95.0609741, -0.4110628
0.0761719, 0.4301758, -0.8945312, -25.7926826, 171.7682953, 96.5243912, -0.4117342
0.0849609, 0.4296875, -0.9174805, -25.5487804, 172.0731812, 97.68293, -0.434226
0.0698242, 0.4404297, -0.9604492, -24.4512196, 172.4390259, 100.0609818, -0.4600748
0.0610352, 0.4487305, -0.9541016, -24.0243912, 171.4634247, 101.646347, -0.5392996
0.0458984, 0.4692383, -0.8779297, -22.1341476, 166.4634247, 102.7439041, -0.6207065
0.0600586, 0.4765625, -0.8457031, -21.5243912, 165.2439117, 102.0121994, -0.6487373
0.1083984, 0.4624023, -0.796875, -21.0365868, 166.9512177, 98.3536606, -0.6695506
0.1318359, 0.4433594, -0.7841797, -22.0121956, 168.9634247, 96.2195129, -0.6809644
0.1630859, 0.3955078, -0.7412109, -23.5365868, 171.7073212, 93.4146347, -0.7712673
0.1821289, 0.359375, -0.7211914, -23.3536587, 172.5, 92.8048782, -0.8538491
0.1894531, 0.3530273, -0.7329102, -21.0365868, 175.4268341, 94.6341476, -0.9099107
0.1860352, 0.3657227, -0.7788086, -19.0243912, 178.7804871, 98.4146347, -0.9622797
0.1757812, 0.3764648, -0.7963867, -18.4146347, 179.2682953, 99.9390259, -1.0166629
0.1621094, 0.40625, -0.7944336, -18.780489, 178.2317047, 101.4024429, -1.0275731
0.1567383, 0.4169922, -0.7783203, -18.7195129, 177.9268341, 100.6707306, -1.0774243
0.1616211, 0.4287109, -0.7514648, -17.3170738, 179.3292694, 98.2317123, -1.158999
0.1679688, 0.4277344, -0.7495117, -16.5853653, 180.4878082, 96.4024429, -1.1798123
0.1713867, 0.4111328, -0.7700195, -16.6463413, 182.8048859, 94.0243912, -1.1947509
0.1796875, 0.3955078, -0.7792969, -17.3780499, 183.5975647, 93.5365906, -1.2274815
0.1977539, 0.3574219, -0.7739258, -18.9024391, 184.146347, 94.2073212, -1.2583658
0.2119141, 0.3334961, -0.7250977, -18.8414631, 184.2682953, 95.0609741, -1.2516518
0.2275391, 0.315918, -0.7036133, -17.0121956, 184.4512177, 96.8902435, -1.2879072
0.2485352, 0.3125, -0.7319336, -13.9634151, 187.5, 97.1951218, -1.2912642
0.2397461, 0.3208008, -0.7670898, -13.0487804, 189.4512177, 97.5609741, -1.2566873
0.1953125, 0.3520508, -0.8085938, -11.8902445, 189.6341553, 100.2439041, -1.2076753
0.1757812, 0.3637695, -0.8017578, -11.7682934, 187.9268341, 101.4024429, -1.1375143
0.1801758, 0.3720703, -0.7583008, -10.4878054, 184.9390259, 102.4390259, -1.0436866
0.1923828, 0.3681641, -0.7446289, -10.2439022, 184.9390259, 101.7682953, -1.014313
0.2094727, 0.3457031, -0.7231445, -10.5487804, 187.6829376, 98.8414688, -1.0039063
0.2089844, 0.331543, -0.7197266, -10.7317076, 188.7195129, 98.2926865, -0.9438163
0.2089844, 0.3242188, -0.7250977, -10.4268293, 189.512207, 98.2926865, -0.8471351
0.2133789, 0.3388672, -0.7319336, -10.3048782, 189.2682953, 99.6951218, -0.7373617
0.2172852, 0.3481445, -0.730957, -9.6341467, 188.1707306, 102.6219559, -0.6641794
0.2329102, 0.3647461, -0.7128906, -9.8780489, 186.8292694, 104.146347, -0.5936828
0.2368164, 0.3632812, -0.6899414, -9.9390249, 185.7317047, 103.4146347, -0.5111009
0.2485352, 0.3505859, -0.6274414, -10.060976, 183.9024506, 100.4878082, -0.4218051
0.2563477, 0.3461914, -0.5913086, -9.9390249, 183.4756165, 98.8414688, -0.3466087
0.2875977, 0.3359375, -0.5541992, -9.6951218, 184.0243988, 96.2195129, -0.3338521
0.3051758, 0.3305664, -0.5703125, -10.6097565, 184.9390259, 95.3658524, -0.2737621
0.3222656, 0.3217773, -0.628418, -15.4878054, 186.2804871, 96.0365906, -0.2079652
0.3110352, 0.3208008, -0.6269531, -17.7439022, 185.36586, 97.1341476, -0.1384756
0.2749023, 0.2998047, -0.5532227, -19.2682934, 180.3048859, 98.7804871, -0.0762036
0.2661133, 0.2709961, -0.4794922, -18.6585369, 178.1097565, 98.1097565, 0.0050355
0.2631836, 0.2626953, -0.4594727, -17.1341476, 178.4756165, 95.2439041, 0.0501869
0.25, 0.2558594, -0.4418945, -16.8292694, 181.1585388, 91.7682953, 0.0451514
0.25, 0.2529297, -0.4482422, -17.3780499, 182.0731812, 90.9146347, 0.0750286
0.2568359, 0.237793, -0.4643555, -17.8048782, 182.6219482, 90.6707306, 0.0683146
0.2617188, 0.2333984, -0.4599609, -17.6219521, 182.1341553, 90.9756088, 0.061265
0.269043, 0.2348633, -0.4291992, -15.7926836, 180.7926941, 91.646347, 0.0864424
0.28125, 0.2485352, -0.4189453, -14.4512196, 179.8170776, 91.646347, 0.1284047
0.3007812, 0.265625, -0.4077148, -13.1707315, 179.4512177, 91.0365906, 0.0991989
0.3046875, 0.269043, -0.3959961, -13.0487804, 179.8780518, 90, 0.1096056
0.3032227, 0.2583008, -0.3803711, -14.1463413, 179.3292694, 87.9878082, 0.1018845
0.2924805, 0.2441406, -0.3950195, -15.1219511, 179.2073212, 87.1951218, 0.1065843
0.277832, 0.2358398, -0.4150391, -17.3170738, 178.5975647, 85.9756088, 0.117998
0.2597656, 0.2290039, -0.4394531, -18.5365849, 176.5853729, 86.8902435, 0.1643244
0.2446289, 0.230957, -0.4370117, -17.8658543, 174.6951294, 87.8048782, 0.1656672
0.2216797, 0.2373047, -0.4365234, -16.4024391, 168.8414612, 88.8414688, 0.1488823
0.2231445, 0.2353516, -0.4433594, -15.7926836, 166.4024353, 88.3536606, 0.1804379
0.2109375, 0.2368164, -0.4306641, -16.0365849, 162.4390259, 86.646347, 0.1995727
0.2036133, 0.2348633, -0.4208984, -16.4024391, 159.9390259, 85.4268341, 0.2401923
0.2050781, 0.2216797, -0.4448242, -17.0731716, 155.4878082, 83.8414688, 0.2435492
0.2075195, 0.2089844, -0.4594727, -16.9512196, 153.2926941, 83.3536606, 0.2522774
0.1953125, 0.1899414, -0.4458008, -16.0975609, 146.9512177, 83.8414688, 0.2952468
0.1938477, 0.1928711, -0.387207, -15.3048782, 142.6829376, 84.5121994, 0.3420768
0.2041016, 0.1972656, -0.3457031, -14.2073174, 135, 85, 0.3979706
0.2456055, 0.1933594, -0.2958984, -13.9024391, 132.0731812, 83.1707306, 0.3912566
0.2626953, 0.1777344, -0.2583008, -13.5975609, 131.4024353, 81.646347, 0.4573892
0.3115234, 0.1660156, -0.3168945, -12.6829271, 130.9146423, 80, 0.5601129
0.3188477, 0.1586914, -0.324707, -13.7195129, 130.3048859, 79.3902435, 0.6440375
0.3110352, 0.1538086, -0.2880859, -14.2682934, 125.9756165, 79.5121994, 0.7041276
0.3217773, 0.1582031, -0.2705078, -13.2317076, 123.4756088, 80.8536606, 0.775967
0.3334961, 0.1787109, -0.2504883, -11.0975609, 121.7073212, 81.4634171, 0.8073548
0.3417969, 0.1972656, -0.25, -10.3048782, 121.7073212, 81.1585388, 0.8397498
0.3491211, 0.2163086, -0.2714844, -9.8780489, 121.4634171, 79.6341476, 0.9243458
0.3461914, 0.2348633, -0.3168945, -10.4878054, 120.6707382, 78.7195129, 0.9726864
0.3320312, 0.2348633, -0.3286133, -11.5853662, 117.9878082, 76.0975647, 1.0049134
0.3017578, 0.2333984, -0.3461914, -12.1951218, 112.2561035, 74.5731735, 1.0485542
0.2856445, 0.2270508, -0.3286133, -11.8292685, 108.9024429, 73.2317123, 1.0740673
0.2661133, 0.2138672, -0.2348633, -11.341464, 102.4390259, 70.5487823, 1.0270695
0.2768555, 0.2016602, -0.1787109, -10.6707315, 100.3658524, 68.3536606, 1.0334478
0.3266602, 0.1704102, -0.1220703, -10.1829271, 101.0365906, 62.9268303, 1.0619821
0.3530273, 0.1538086, -0.1323242, -10.3658543, 103.3536606, 60.8536606, 1.0975662
0.3823242, 0.1196289, -0.2202148, -10.7317076, 107.5, 58.4146347, 1.1156939
0.3623047, 0.1035156, -0.2734375, -10.7926836, 106.8902435, 59.1463432, 1.1405356
0.3515625, 0.1088867, -0.2763672, -9.0243902, 100.0609818, 62.9268303, 1.0995804
0.3354492, 0.1367188, -0.2348633, -7.8658538, 96.0975647, 64.6951218, 1.0324407
0.3393555, 0.1489258, -0.2197266, -6.4634147, 89.3292694, 65.9146347, 0.9846036
0.3417969, 0.1645508, -0.2177734, -6.6463418, 88.2317123, 62.9268303, 0.9152819
0.3374023, 0.1630859, -0.234375, -6.9512196, 88.1707306, 60.3048782, 0.8367285
0.3251953, 0.1547852, -0.2714844, -7.1951222, 85.6097565, 57.0731735, 0.7323262
0.3232422, 0.1533203, -0.2924805, -6.890244, 83.0487823, 56.7073174, 0.6510872
0.3300781, 0.1469727, -0.2993164, -5.9146342, 76.3414688, 57.2560997, 0.5842832
0.3349609, 0.1445312, -0.3022461, -5.3658538, 72.9878082, 57.68293, 0.5429923
0.3735352, 0.1376953, -0.2822266, -4.3292685, 66.7073212, 58.4756126, 0.4936446
0.3955078, 0.1318359, -0.2006836, -3.8414636, 63.841465, 58.1707344, 0.3382162
0.4145508, 0.1269531, -0.1455078, -2.7439024, 58.0487823, 56.2804909, 0.2489204
0.4838867, 0.1142578, -0.0771484, -2.195122, 56.4634171, 54.7560997, 0.1801022
0.5205078, 0.0986328, -0.0751953, -1.2195122, 57.2560997, 51.2804909, 0.121355
0.559082, 0.0874023, -0.1103516, 0.1219512, 59.5731735, 49.2073174, 0.0676432
0.5595703, 0.090332, -0.1323242, 0.3048781, 59.4512215, 49.9390259, 0.0387732
0.5566406, 0.1074219, -0.1411133, 1.4634147, 55.8536606, 52.9268303, -0.0448157
0.5634766, 0.1162109, -0.1357422, 1.8902439, 52.9268303, 54.1463432, -0.1451896
0.5722656, 0.1489258, -0.1137695, 2.6829269, 50, 55.3048782, -0.1928588
0.5766602, 0.1660156, -0.1157227, 3.1097562, 50.0609779, 54.8170738, -0.2485847
0.574707, 0.1879883, -0.1264648, 3.1097562, 49.6341476, 52.1951218, -0.3036393
0.5766602, 0.1850586, -0.0996094, 3.2317073, 48.4756126, 50.4268303, -0.3237812
0.5874023, 0.1699219, -0.0786133, 3.9024391, 44.4512215, 46.4634171, -0.3405661
0.6132812, 0.1274414, -0.0600586, 3.8414636, 42.9268303, 43.9634171, -0.420798
0.6240234, 0.1083984, -0.0585938, 4.0243902, 42.5609779, 39.1463432, -0.4406043
0.6259766, 0.0942383, -0.0883789, 4.6951222, 43.0487823, 37.8658562, -0.4147555
0.6259766, 0.0947266, -0.1245117, 4.8780489, 42.5, 38.7195129, -0.3716182
0.6142578, 0.1098633, -0.2075195, 6.1585369, 40, 42.0731735, -0.3304952
0.6005859, 0.1235352, -0.2250977, 5.2439027, 37.4390259, 44.0853653, -0.2652018
0.5961914, 0.1572266, -0.1923828, 4.5121951, 29.3902454, 46.7682953, -0.25832
0.6074219, 0.1748047, -0.1445312, 4.1463413, 25.8536587, 46.9512215, -0.2865187
0.6513672, 0.1826172, -0.0629883, 4.8170733, 21.3414631, 44.2073174, -0.2311284
0.7075195, 0.1621094, -0.0444336, 5.3658538, 20.6097565, 41.2195129, -0.1797665
0.7280273, 0.1450195, -0.0473633, 5.1829271, 21.7073174, 35.3048782, -0.1277333
0.7504883, 0.1035156, -0.0415039, 5.4268293, 22.3170738, 32.5609779, -0.0981918
0.7612305, 0.0859375, -0.0317383, 5.5487804, 19.2073174, 30.2439022, -0.0807355
0.7910156, 0.0703125, -0.0131836, 5.8536587, 14.3292685, 31.6463413, -0.0673075
0.8046875, 0.0766602, -0.0029297, 6.1585369, 12.560976, 32.8658562, -0.03122
0.8349609, 0.1005859, 0.0205078, 6.6463418, 11.5853662, 35.3048782, 0.0099031
0.8496094, 0.1157227, 0.0214844, 6.890244, 11.7682934, 36.5243912, -0.0236667
0.8754883, 0.152832, -0.0058594, 8.1097565, 11.7682934, 36.6463432, -0.0015106
0.8945312, 0.1699219, -0.0087891, 7.7439027, 11.5853662, 35.5487823, 0.0297093
0.9013672, 0.1811523, 0.0161133, 7.1341467, 8.780488, 33.1097565, 0.0394446
0.9316406, 0.1479492, 0.0703125, 6.9512196, 6.5243902, 31.8292694, 0.0466621
0.9526367, 0.1293945, 0.1005859, 8.0487804, 3.7804878, 27.4390259, 0.0941634
0.9868164, 0.0917969, 0.1303711, 9.6341467, 4.3292685, 23.1097565, 0.072343
0.9985352, 0.0776367, 0.1352539, 10.2439022, 5.0609756, 21.7073174, 0.0048676
1.0024414, 0.065918, 0.1254883, 11.0975609, 5.9146342, 21.6463413, -0.0360876
1.0102539, 0.0737305, 0.1108398, 11.4634151, 5.9756098, 22.8658543, -0.0773785
1.0224609, 0.097168, 0.0800781, 11.7682934, 5.7926831, 25.8536587, -0.093492
1.0283203, 0.112793, 0.059082, 12.1341467, 5.9146342, 27.1341476, -0.1012131
1.034668, 0.1435547, 0.0209961, 13.4146347, 5.1219511, 27.8048782, -0.1010452
1.0302734, 0.1547852, 0.0117188, 13.4146347, 2.7439024, 27.1341476, -0.1841306
1.0444336, 0.1762695, 0.0400391, 12.8658543, -1.5853659, 24.8780499, -0.2458991
1.0629883, 0.1655273, 0.090332, 12.5, -2.6219513, 22.8048782, -0.2754406
1.0751953, 0.1484375, 0.1157227, 12.0731707, -3.0487804, 18.5365849, -0.303975
1.0893555, 0.1083984, 0.1416016, 12.3170738, -0.9756098, 14.3292685, -0.3264668
1.0932617, 0.0864258, 0.1274414, 13.2317076, 0.3658537, 12.9268293, -0.3157244
1.0834961, 0.0546875, 0.043457, 17.0731716, 1.7073171, 12.7439032, -0.3447623
1.0649414, 0.0537109, -0.0058594, 18.1707325, -0.1219512, 14.2073174, -0.4120699
1.0361328, 0.0825195, -0.0361328, 17.9878044, -7.5, 17.3780499, -0.4261692
1.0390625, 0.1040039, -0.003418, 16.8902435, -11.8902445, 18.9634151, -0.4345617
1.0771484, 0.1352539, 0.1210938, 15.7926836, -17.5, 19.2682934, -0.4412757
1.112793, 0.1416016, 0.1694336, 16.4634151, -17.3780499, 17.2560978, -0.4647745
1.159668, 0.1313477, 0.1860352, 18.9024391, -13.4756098, 11.7073174, -0.4721599
1.1708984, 0.1230469, 0.1118164, 19.8170738, -12.0121956, 8.4756098, -0.4604105
1.1640625, 0.1240234, 0.0727539, 19.8170738, -12.8048782, 4.2682929, -0.434226
1.1333008, 0.1445312, 0.0488281, 16.8292694, -18.4756107, 4.390244, -0.3946136
1.1289062, 0.1542969, 0.0625, 15.060976, -21.6463413, 5.2439027, -0.4090486
1.1557617, 0.1679688, 0.1044922, 12.3780489, -25.060976, 6.0975609, -0.3447623
1.1723633, 0.1601562, 0.1289062, 11.9512196, -24.4512196, 5, -0.2878614
1.1835938, 0.1342773, 0.1513672, 11.7682934, -22.8048782, -0.2439024, -0.2566415
1.1777344, 0.1230469, 0.1518555, 11.8902445, -22.6829281, -3.4146342, -0.2292821
1.1459961, 0.1274414, 0.1386719, 11.1585369, -24.2073174, -7.8658538, -0.1713741
1.1298828, 0.1489258, 0.1347656, 10, -25.6707325, -7.9268293, -0.1334401
1.121582, 0.2036133, 0.1464844, 7.0731707, -27.6219521, -5.9146342, -0.1193408
1.1606445, 0.2382812, 0.1567383, 5.3658538, -28.1707325, -5.3658538, -0.0663005
1.1845703, 0.2348633, 0.1572266, 0.1829268, -27.8658543, -7.9878049, -0.0256809
1.2143555, 0.1977539, 0.1606445, -4.390244, -26.6463413, -15.1829271, 0.0077211
1.2099609, 0.1704102, 0.1650391, -6.280488, -26.4634151, -19.2073174, 0.0424659
1.1708984, 0.1381836, 0.1572266, -8.719512, -27.5, -24.0243912, 0.0810712
1.1513672, 0.1318359, 0.1479492, -9.2073174, -28.3536587, -25.2439022, 0.0508583
1.1157227, 0.1264648, 0.1088867, -9.6341467, -29.2682934, -25, 0.0505226
1.105957, 0.1225586, 0.0698242, -9.5731707, -29.6951218, -24.8170738, 0.0681468
1.0620117, 0.0932617, -0.0405273, -6.9512196, -29.8170738, -25.7926826, 0.0817426
1.0185547, 0.0771484, -0.0942383, -5.1219511, -31.9512196, -26.4634151, 0.0763714
0.9414062, 0.0498047, -0.1386719, -3.9634147, -43.5365868, -27.2560978, 0.0975204
0.9042969, 0.0366211, -0.0683594, -3.8414636, -50.3658562, -27.9268303, 0.066804
0.902832, 0.0371094, -0.0258789, -2.0731707, -59.5731735, -28.1707325, -0.0102388
0.909668, 0.0581055, 0.0024414, 3.3536587, -61.2195129, -27.3170738, -0.0386053
0.9150391, 0.0800781, -0.0117188, 6.8292685, -61.9512215, -26.5243912, -0.0990311
0.9243164, 0.1318359, -0.065918, 10.3048782, -64.8780518, -25, -0.1475395
0.9326172, 0.1591797, -0.0864258, 10.3658543, -68.1707306, -25, -0.1975586
0.9599609, 0.1992188, -0.0908203, 8.6585369, -74.0243912, -26.2195129, -0.2512703
0.9628906, 0.2055664, -0.0771484, 7.4390244, -76.1585388, -27.8048782, -0.2814832
0.9707031, 0.203125, -0.0512695, 5.7926831, -78.7804871, -32.1341476, -0.3093462
0.9604492, 0.1953125, -0.0380859, 5.3658538, -80.3658524, -34.0243912, -0.3565118
0.9477539, 0.1674805, -0.0200195, 4.5731707, -83.1097565, -37.9878044, -0.4526894
0.9428711, 0.1352539, -0.0014648, 4.2073174, -84.3292694, -39.2073174, -0.497673
0.9375, 0.1264648, 0.0043945, 3.7804878, -86.4634171, -40.6707344, -0.5335927
0.9321289, 0.1264648, -0.003418, 2.5609756, -88.1707306, -40.8536606, -0.5837797
0.9311523, 0.1342773, -0.0136719, 1.2195122, -89.2073212, -40.5487823, -0.6118105
0.9174805, 0.1645508, 0.0043945, -1.5853659, -90.9146347, -40.6097565, -0.6007324
0.9174805, 0.1826172, 0.0180664, -3.8414636, -91.7682953, -40.9756088, -0.6077821
0.9331055, 0.2207031, 0.0605469, -8.6585369, -93.1707306, -43.3536606, -0.6003967
0.9389648, 0.234375, 0.0786133, -11.7682934, -93.0487823, -45.3658562, -0.5211719
0.9599609, 0.2607422, 0.1030273, -18.1707325, -90.9146347, -50.4878044, -0.4333867
0.9667969, 0.265625, 0.1152344, -21.6463413, -89.5121994, -53.6585388, -0.3514763
0.96875, 0.2626953, 0.1269531, -29.1463413, -86.5853653, -59.8780518, -0.293904
0.9638672, 0.246582, 0.1201172, -32.9878044, -85.4878082, -62.6219521, -0.2532845
0.9516602, 0.2373047, 0.1098633, -39.6951218, -83.2317123, -67.5609741, -0.2757763
0.9257812, 0.2001953, 0.0615234, -43.2926826, -80.6097565, -70.9146347, -0.2472419
0.9091797, 0.1787109, 0.0429688, -43.6585388, -79.0243912, -72.3780518, -0.1801022
0.8598633, 0.1186523, 0.0185547, -41.2804871, -78.0487823, -74.5731735, -0.1273976
0.8334961, 0.0844727, 0.0097656, -39.6341476, -79.0243912, -75.18293, -0.0944991
0.7919922, 0.015625, -0.0048828, -35, -80.5487823, -75.3658524, -0.0240024
0.7744141, -0.0234375, -0.0161133, -31.8902454, -80.7926865, -75.18293, -0.0149386
0.7382812, -0.0825195, -0.0532227, -23.6585369, -81.3414688, -73.2926865, 0.0052033
0.7133789, -0.09375, -0.0908203, -19.0243912, -82.3780518, -71.3414688, 0.0897993
0.6625977, -0.0913086, -0.1713867, -12.3170738, -86.8292694, -66.2195129, 0.1455253
0.6210938, -0.0527344, -0.2407227, -10.3048782, -90.1219559, -63.0487823, 0.2173648
0.612793, -0.0200195, -0.2553711, -9.3292685, -96.8292694, -57.5, 0.2724193
0.5996094, 0.0498047, -0.2714844, -6.1585369, -101.9512253, -52.3780518, 0.3059892
0.5986328, 0.0854492, -0.2797852, -3.2926829, -104.4512253, -50.3048782, 0.3422446
0.59375, 0.1586914, -0.2758789, 1.2195122, -111.2804871, -48.2317085, 0.3892424
0.5932617, 0.1953125, -0.2651367, 2.5609756, -114.8780518, -47.8048782, 0.4261692
0.5737305, 0.2773438, -0.203125, 2.3170731, -121.8902435, -49.5121956, 0.3959564
0.5541992, 0.3271484, -0.1914062, 0.7926829, -123.6585388, -50.3658562, 0.4160983
0.5786133, 0.390625, -0.2070312, -5.1219511, -121.9512253, -51.9512215, 0.4265049
0.6098633, 0.3857422, -0.1884766, -9.3902445, -122.68293, -53.841465, 0.4254978
0.6845703, 0.340332, -0.1479492, -16.1585369, -125.0609818, -60.9756126, 0.4442969
0.7143555, 0.262207, -0.1044922, -18.9634151, -124.6341476, -65.9146347, 0.4691386
0.7172852, 0.2236328, -0.0610352, -22.3780499, -124.3902435, -73.6585388, 0.4305333
0.7207031, 0.1660156, -0.0078125, -22.560976, -126.8902435, -77.5609741, 0.3402304
0.7226562, 0.144043, -0.0024414, -22.1341476, -126.0975647, -78.1707306, 0.293904
0.7050781, 0.1196289, 0.0009766, -19.7560978, -121.5243912, -77.9268341, 0.2559701
0.6845703, 0.1152344, -0.0024414, -18.3536587, -119.5121994, -77.6219559, 0.2274357
0.6357422, 0.1196289, -0.0493164, -17.0121956, -117.3170776, -76.5853653, 0.2200504
0.6118164, 0.1376953, -0.074707, -17.3780499, -116.646347, -76.0975647, 0.2106508
0.5795898, 0.1806641, -0.1103516, -17.6219521, -116.646347, -74.8780518, 0.085771
0.5585938, 0.2045898, -0.1259766, -17.5, -117.0121994, -74.6341476, 0.0223239
0.5522461, 0.2124023, -0.1508789, -14.8780489, -117.0121994, -75.9756088, -0.0151064
0.5517578, 0.2216797, -0.2490234, -12.3780489, -115.36586, -76.8902435, -0.0572366
0.5512695, 0.2211914, -0.2929688, -6.7073174, -113.7195129, -77.1951218, -0.0971847
0.5527344, 0.1831055, -0.309082, -4.2073174, -119.4512253, -78.9024429, -0.0850996
0.5478516, 0.1489258, -0.3071289, -3.4756098, -123.4146347, -81.1585388, -0.1326009
0.5322266, 0.0844727, -0.3105469, -1.1585366, -127.1341476, -85.9756088, -0.2002441
0.5092773, 0.0615234, -0.3081055, 1.8902439, -127.5, -87.5, -0.2072938
0.4453125, 0.0585938, -0.3310547, 9.1463413, -128.8414612, -87.5609741, -0.2291142
0.4257812, 0.0688477, -0.371582, 12.0121956, -130.0609741, -86.0975647, -0.2234073
0.3847656, 0.1254883, -0.4863281, 15.6097565, -133.6585388, -80.9146347, -0.2284428
0.3378906, 0.2075195, -0.5922852, 16.8292694, -135.8536682, -77.3170776, -0.248249
0.3085938, 0.2651367, -0.6337891, 16.8292694, -142.2561035, -71.0365906, -0.2447242
0.246582, 0.3764648, -0.6694336, 15.9756098, -146.9512177, -68.4756088, -0.2116579
0.2207031, 0.4331055, -0.6679688, 12.9268293, -157.0121918, -65.9756088, -0.1537499
0.1904297, 0.5200195, -0.644043, 9.0853662, -164.6341553, -67.8048782, -0.1493858
0.1845703, 0.5473633, -0.6591797, 6.7682929, -167.5609741, -70.18293, -0.1079271
0.2143555, 0.5517578, -0.6723633, 2.195122, -171.7682953, -77.3170776, -0.0485084
0.2329102, 0.5332031, -0.6362305, 0.4268293, -174.2682953, -82.1341476, -0.0015106
0.2646484, 0.4633789, -0.5507812, -1.7682927, -180.9146423, -91.646347, 0.0421302
0.2875977, 0.4106445, -0.5195312, -2.0731707, -183.6585388, -95.5487823, 0.1418326
0.3427734, 0.2851562, -0.5068359, -0.6707317, -184.8170776, -100.8536606, 0.2022583
0.3242188, 0.1645508, -0.4189453, 2.9268293, -184.8780518, -102.3780518, 0.2173648
0.3056641, 0.1582031, -0.3779297, 17.9878044, -187.86586, -101.8292694, 0.2811475
0.328125, 0.2841797, -0.4853516, 26.8292694, -187.9878082, -98.5365906, 0.3335164
0.3862305, 0.3676758, -0.5605469, 33.841465, -182.5, -87.6219559, 0.3748074
0.5092773, 0.4584961, -0.5795898, 25.6707325, -181.8902435, -82.68293, 0.4174411
0.5581055, 0.465332, -0.574707, 18.4146347, -184.8170776, -84.0853653, 0.4718242
0.6132812, 0.4155273, -0.5385742, 3.3536587, -189.0243988, -91.8902435, 0.4355688
0.605957, 0.378418, -0.5073242, -2.6829269, -189.8170776, -96.2804871, 0.455375
0.5332031, 0.2919922, -0.4545898, -6.9512196, -187.4390259, -102.0121994, 0.5023728
0.4873047, 0.2524414, -0.4438477, -6.5243902, -185.6097565, -102.8048782, 0.5181506
0.4052734, 0.1811523, -0.440918, -1.9512196, -184.7561035, -100.6097565, 0.5302358
0.3583984, 0.1347656, -0.4394531, 0.6707317, -184.2073212, -99.146347, 0.5842832
0.3325195, 0.1308594, -0.4301758, 3.8414636, -181.7073212, -96.4024429, 0.557763
0.2973633, 0.1635742, -0.4541016, 4.6951222, -180.1829376, -95.3048782, 0.4978408
0.2861328, 0.1972656, -0.4926758, 6.0975609, -175.6707306, -91.0975647, 0.4595712
0.2612305, 0.2856445, -0.5566406, 9.8780489, -172.3170776, -86.4634171, 0.4120699
0.2495117, 0.340332, -0.5844727, 11.6463413, -172.3170776, -83.9024429, 0.4013275
0.2397461, 0.4516602, -0.628418, 12.3170738, -174.3292694, -80.7926865, 0.3694362
0.2421875, 0.4941406, -0.6376953, 9.6951218, -175.3048859, -80.0609741, 0.3259632
0.2587891, 0.5244141, -0.6313477, 1.2804878, -175.9146423, -82.7439041, 0.2949111
0.2700195, 0.5175781, -0.6123047, -3.4146342, -175.4878082, -85.7926865, 0.248249
0.2890625, 0.4511719, -0.5732422, -11.4634151, -174.2682953, -92.68293, 0.2180362
0.3051758, 0.340332, -0.5864258, -14.6951227, -173.9024506, -96.2195129, 0.1265583
0.3105469, 0.2822266, -0.609375, -18.9634151, -172.6829376, -100.7926865, 0.082414
0.2900391, 0.1948242, -0.625, -17.439024, -172.6219482, -99.3902435, 0.0555581
0.2695312, 0.184082, -0.6098633, -14.7560978, -173.7195129, -96.8902435, 0.0421302
0.2290039, 0.2143555, -0.6328125, -8.1707315, -175.7317047, -89.6341476, 0.0184634
0.2143555, 0.2421875, -0.6914062, -5.3048782, -175.6707306, -85.9146347, 0.0226596
0.1757812, 0.3203125, -0.7827148, -1.8292683, -175.5487823, -80.3658524, -0.012253
0.152832, 0.3598633, -0.7851562, -1.4634147, -177.1951294, -79.2682953, -0.0793927
0.1196289, 0.4331055, -0.7265625, -5.3048782, -183.1707306, -78.4756088, -0.0941634
0.1303711, 0.4506836, -0.6914062, -8.9634151, -184.5731812, -79.8170776, -0.0897993
0.1992188, 0.4326172, -0.671875, -15.3048782, -180.2439117, -85.0609741, -0.10692
0.2294922, 0.3652344, -0.7285156, -16.5243912, -176.5853729, -88.2317123, -0.0995346
0.2202148, 0.3305664, -0.7617188, -15.6707325, -173.6585388, -92.8658524, -0.0525368
0.1787109, 0.2856445, -0.7661133, -13.0487804, -179.2073212, -93.4756088, -0.0733501
0.1542969, 0.2739258, -0.7358398, -11.9512196, -182.7439117, -92.2561035, -0.0256809
0.1176758, 0.2724609, -0.7338867, -9.9390249, -185.36586, -89.2073212, 0.011078
0.1025391, 0.2773438, -0.7617188, -8.4146347, -183.7195129, -87.5609741, 0.0347448
0.0478516, 0.2978516, -0.7983398, -4.0243902, -181.2195129, -85.5487823, 0.0575723
0.0161133, 0.3256836, -0.7988281, -1.7073171, -182.5, -84.5731735, 0.1116197
-0.0126953, 0.4067383, -0.7817383, 0.8536586, -187.3780518, -83.2317123, 0.1473716
-0.0024414, 0.4448242, -0.7807617, -0.0609756, -188.9634247, -82.8048782, 0.1623102
0.0415039, 0.5078125, -0.7880859, -6.2195125, -187.9878082, -82.8048782, 0.2049439
0.0932617, 0.5356445, -0.7939453, -10, -186.4634247, -83.9634171, 0.2442206
0.1147461, 0.5366211, -0.8027344, -19.3292694, -186.0975647, -87.3780518, 0.2885328
0.1503906, 0.5102539, -0.84375, -26.8292694, -187.0731812, -91.0365906, 0.2912184
0.1557617, 0.4873047, -0.8623047, -30.2439022, -187.5609741, -92.5, 0.2979324
0.1416016, 0.4301758, -0.8256836, -33.7195129, -190.0609741, -95.4878082, 0.3261311
0.1206055, 0.4023438, -0.7924805, -34.1463432, -191.9512177, -96.8292694, 0.3513085
0.0766602, 0.3632812, -0.7504883, -31.7682934, -193.5975647, -98.5975647, 0.3771572
0.0512695, 0.3525391, -0.7543945, -29.5121956, -192.7439117, -99.5121994, 0.3351949
-0.0053711, 0.3481445, -0.7802734, -24.5121956, -191.0975647, -99.7561035, 0.3194171
-0.0341797, 0.3530273, -0.7983398, -22.0121956, -190.9756165, -98.9634171, 0.311696
-0.0556641, 0.355957, -0.8305664, -20, -192.5609741, -96.3414688, 0.3321736
-0.0556641, 0.3583984, -0.8354492, -19.939024, -193.6585388, -95.2439041, 0.3392233
-0.0444336, 0.3515625, -0.8427734, -21.4634151, -194.6951294, -93.9024429, 0.3637293
-0.0375977, 0.3486328, -0.8959961, -21.5853672, -194.9390259, -94.6951218, 0.3140459
-0.0537109, 0.3432617, -0.9291992, -20.1219521, -195.0609741, -95.18293, 0.2183719
-0.1245117, 0.3666992, -0.9614258, -14.3902445, -198.6585388, -95, 0.1891661
-0.1689453, 0.3935547, -0.9384766, -10.7317076, -201.4024506, -94.3902435, 0.1646601
-0.2250977, 0.46875, -0.8510742, -4.390244, -206.646347, -92.9268341, 0.1478752
-0.2236328, 0.5087891, -0.8227539, -2.6829269, -207.2561035, -92.5609741, 0.1441825
-0.1748047, 0.5581055, -0.8325195, -4.6341462, -203.4146423, -94.2682953, 0.1210193
-0.1381836, 0.5668945, -0.855957, -7.6829271, -200.9756165, -96.7682953, 0.0394446
-0.0791016, 0.5302734, -0.9033203, -14.8780489, -198.8414612, -101.4634171, -0.0095674
-0.0444336, 0.4604492, -0.9555664, -17.6829281, -199.8170776, -103.6585388, -0.0476692
-0.0439453, 0.4248047, -0.9760742, -19.8170738, -203.1097565, -105.2439041, -0.0955062
-0.0927734, 0.3686523, -0.9887695, -15.6097565, -205.6707306, -103.6585388, -0.1284047
-0.1411133, 0.3569336, -0.9760742, -11.8292685, -207.6829376, -102.3780518, -0.1300832
-0.2314453, 0.3681641, -0.9321289, -3.8414636, -211.1585388, -99.9390259, -0.1680171
-0.2641602, 0.3769531, -0.9243164, -0.3658537, -212.0731812, -99.5121994, -0.2358282
-0.309082, 0.3979492, -1.0224609, 3.2317073, -211.7073212, -99.0243912, -0.2500954
-0.3208008, 0.4003906, -1.1035156, 4.0243902, -210.8536682, -99.2682953, -0.251606
-0.3847656, 0.4038086, -1.2197266, 6.6463418, -212.86586, -97.9878082, -0.2386816
-0.4272461, 0.4091797, -1.2285156, 9.0243902, -216.8902435, -96.7073212, -0.2573129
-0.4853516, 0.4580078, -1.1674805, 14.2073174, -226.4634247, -93.3536606, -0.2814832
-0.472168, 0.5048828, -1.0522461, 16.5853653, -229.2073212, -92.2561035, -0.2630198
-0.4443359, 0.5253906, -0.9926758, 19.6951218, -228.7804871, -93.7195129, -0.233814
-0.3623047, 0.5483398, -0.8862305, 19.0853672, -223.0487823, -98.4756088, -0.1735561
-0.3183594, 0.5522461, -0.8603516, 17.6219521, -219.2682953, -101.5243912, -0.1869841
-0.2294922, 0.5307617, -0.934082, 13.2317076, -213.2317047, -105.4268341, -0.181445
-0.1923828, 0.5102539, -1.0126953, 11.7073174, -210.7926941, -105.7926865, -0.1616388
-0.1948242, 0.46875, -1.1166992, 11.5853662, -210.2439117, -103.5365906, -0.1488823
-0.2333984, 0.4609375, -1.1132812, 13.5975609, -212.5609741, -100.5487823, -0.1079271
-0.3051758, 0.4941406, -1.0175781, 19.6341476, -219.5731812, -94.5731735, -0.0216526
-0.324707, 0.5166016, -0.9638672, 21.5853672, -221.646347, -92.9268341, -0.0149386
-0.3286133, 0.5488281, -0.8945312, 21.7682934, -218.8414612, -94.146347, -0.0340734
-0.3168945, 0.5307617, -0.8920898, 19.0243912, -215.2439117, -96.5853653, -0.0125887
-0.309082, 0.5048828, -0.90625, 10.7317076, -207.9878082, -102.1951218, -0.0132601
-0.3007812, 0.4360352, -0.9365234, 4.3292685, -203.6585388, -104.2073212, -0.0041962
-0.3076172, 0.4091797, -0.9516602, 3.5365853, -202.7439117, -103.2317123, 0.0092317
-0.3276367, 0.3789062, -0.9912109, 7.8048782, -201.5853729, -98.5975647, 0.0280308
-0.3486328, 0.3769531, -1.0097656, 11.5243902, -201.646347, -95.3048782, -0.0256809
-0.3920898, 0.4018555, -1.0385742, 18.4756107, -203.1707306, -89.6341476, -0.0377661
-0.4135742, 0.4248047, -1.0522461, 20.9146347, -204.3902435, -87.8658524, -0.04448
-0.4516602, 0.4829102, -1.0625, 21.6463413, -205.4268341, -87.0731735, -0.0753643
-0.4707031, 0.5048828, -1.046875, 20.7317085, -205.4268341, -87.3780518, -0.0894636
-0.4848633, 0.5424805, -0.9633789, 16.5243912, -205.0609741, -89.7560959, -0.0780499
-0.4462891, 0.5488281, -0.8916016, 14.5121956, -204.146347, -91.1585388, -0.1337758
-0.4145508, 0.5395508, -0.9023438, 9.4512196, -198.7195129, -95.18293, -0.2354925
-0.3666992, 0.4946289, -1.0078125, 3.7804878, -191.9512177, -98.4756088, -0.2935683
-0.3706055, 0.4716797, -1.0595703, 2.3780489, -190.7317047, -98.5975647, -0.3499657
-0.421875, 0.456543, -1.0634766, 4.1463413, -193.7804871, -96.2195129, -0.3756466
-0.456543, 0.4633789, -1.019043, 7.3780489, -197.1341553, -94.2073212, -0.4157626
-0.4794922, 0.5014648, -0.9282227, 14.8780489, -200.4268341, -91.8292694, -0.4735027
-0.4663086, 0.5195312, -0.9213867, 16.6463413, -198.9024506, -92.6219559, -0.5392996
-0.4506836, 0.5327148, -1.0004883, 14.5731707, -192.5609741, -97.0121994, -0.574548
-0.4785156, 0.5302734, -1.0478516, 11.7682934, -190.3048859, -99.8170776, -0.6044251
-0.5029297, 0.5361328, -1.0292969, 8.2317076, -190.7317047, -103.3536606, -0.688014
-0.5112305, 0.5595703, -0.9082031, 8.2926826, -192.7439117, -103.6585388, -0.7219196
-0.5, 0.5776367, -0.8227539, 11.341464, -193.3536682, -103.6585388, -0.7241016
-0.4208984, 0.6020508, -0.7089844, 11.341464, -187.0731812, -105.6097565, -0.7373617
-0.3652344, 0.6030273, -0.7177734, 8.2926826, -181.9512177, -107.8048782, -0.7423972
-0.2719727, 0.5488281, -0.887207, -3.3536587, -172.6829376, -113.8414688, -0.7118486
-0.2685547, 0.5087891, -1.0014648, -9.0243902, -170.7317047, -116.0365906, -0.7427329
-0.3671875, 0.4399414, -1.1743164, -13.1707315, -175.1219482, -114.9390259, -0.7833524
-0.4584961, 0.4155273, -1.1982422, -11.0365858, -181.0365906, -111.2195129, -0.7635462
-0.6337891, 0.4145508, -1.1015625, 0.8536586, -195.9756165, -102.8048782, -0.7534752
-0.7021484, 0.4414062, -0.9106445, 6.5243902, -202.2561035, -99.6951218, -0.7326619
-0.6865234, 0.453125, -0.8242188, 10.2439022, -204.8780518, -100.1219559, -0.6883497
-0.5834961, 0.4384766, -0.8344727, 6.7073174, -201.1585388, -103.9024429, -0.6077821
-0.5302734, 0.4106445, -0.9580078, -7.1951222, -189.6341553, -113.7195129, -0.5805905
-0.5224609, 0.3378906, -1.2358398, -17.439024, -185.1219482, -118.5365906, -0.5309071
-0.5800781, 0.309082, -1.3046875, -16.3414631, -189.3902435, -116.646347, -0.4560464
-0.7446289, 0.3320312, -1.2387695, 0.5487805, -209.0853729, -105.7317123, -0.3976349
-0.8017578, 0.3818359, -1.1298828, 11.7073174, -219.2682953, -98.5975647, -0.3420768
-0.7910156, 0.4892578, -0.8774414, 27.3170738, -228.5975647, -91.2195129, -0.2324712
-0.7324219, 0.5327148, -0.7758789, 27.6829281, -226.3414612, -92.7439041, -0.1629816
-0.5571289, 0.5551758, -0.7050781, 13.5365858, -211.1585388, -104.9390259, -0.1384756
-0.425293, 0.487793, -0.7519531, 1.7682927, -202.4390259, -112.86586, -0.0565652
-0.394043, 0.4243164, -0.7929688, -15.4268293, -192.0731812, -124.2682953, 0.0159457
-0.3969727, 0.3085938, -0.8515625, -17.8048782, -191.2804871, -125.36586, 0.0783856
-0.4335938, 0.2773438, -0.8676758, -8.2317076, -194.7561035, -117.9268341, 0.103563
-0.5336914, 0.2841797, -0.9013672, 10.4878054, -200.3048859, -103.3536606, 0.1376364
-0.581543, 0.315918, -0.9130859, 18.8414631, -202.3780518, -96.8292694, 0.1777523
-0.684082, 0.4257812, -0.8886719, 26.8902454, -204.8780518, -89.8170776, 0.2455634
-0.7226562, 0.4799805, -0.8408203, 26.8292694, -205.1829376, -89.8780518, 0.3153887
-0.7348633, 0.5625, -0.71875, 20, -201.9512177, -96.4634171, 0.3066606
-0.7094727, 0.5776367, -0.6811523, 14.2073174, -197.9878082, -101.9512253, 0.325124
-0.6279297, 0.546875, -0.7290039, -0.4268293, -186.8902435, -112.5609818, 0.3560082
-0.5795898, 0.4472656, -0.8422852, -7.4390244, -181.9512177, -116.0975647, 0.3667506
-0.5751953, 0.3857422, -0.8862305, -16.2195129, -178.7195129, -116.4634171, 0.3597009
-0.5986328, 0.2705078, -0.9428711, -16.4024391, -180.5487823, -113.2926865, 0.3456016
-0.6303711, 0.2304688, -0.956543, -9.0243902, -186.0975647, -104.7561035, 0.2808118
-0.7216797, 0.2119141, -0.9370117, 3.1707318, -191.4024506, -96.8292694, 0.2163577
-0.78125, 0.2246094, -0.9248047, 8.9024391, -193.4756165, -93.6585388, 0.2009155
-0.8696289, 0.2739258, -0.9697266, 15.8536587, -195.6707306, -91.1585388, 0.1868162
-0.9038086, 0.3037109, -1.0161133, 17.0121956, -195.5487823, -91.0975647, 0.170367
-0.9775391, 0.3500977, -1.0415039, 16.3414631, -196.0975647, -92.1951218, 0.1292439
-1.0131836, 0.3769531, -1.0205078, 16.280489, -198.0487823, -92.1341476, 0.1109483
-1.0200195, 0.4355469, -0.9199219, 17.0731716, -201.646347, -91.7073212, 0.0320592
-0.9414062, 0.4882812, -0.8193359, 16.8292694, -200.9756165, -91.7682953, -0.0152743
-0.8828125, 0.4936523, -0.793457, 13.4146347, -196.2804871, -93.7195129, -0.0317235
-0.7709961, 0.4589844, -0.8476562, 3.4756098, -189.3902435, -98.4756088, -0.0438087
-0.7416992, 0.4243164, -0.8823242, -1.8292683, -187.1341553, -100.3658524, -0.0740215
-0.753418, 0.3320312, -0.9047852, -6.890244, -186.3414612, -101.646347, -0.057908
-0.7910156, 0.296875, -0.8867188, -5.3048782, -187.6829376, -100.3048782, -0.0862745
-0.8662109, 0.2895508, -0.8032227, 4.6951222, -190.4878082, -94.9390259, -0.1514
-0.8930664, 0.3188477, -0.7568359, 10.4268293, -190.3048859, -92.2561035, -0.1653315
-0.8955078, 0.4023438, -0.7172852, 16.280489, -186.4024506, -89.4512253, -0.1552605
-0.8745117, 0.4370117, -0.7211914, 15.3048782, -182.86586, -89.9390259, -0.1445182
-0.8364258, 0.4663086, -0.722168, 6.2195125, -176.2195129, -94.6341476, -0.1673457
-0.8173828, 0.4570312, -0.7070312, 0.6097561, -173.9634247, -97.5609741, -0.1646601
-0.8168945, 0.4487305, -0.7070312, -7.9878049, -170.0609741, -100.9146347, -0.1257191
-0.84375, 0.4375, -0.7080078, -10.8536587, -166.2804871, -100.4878082, -0.0542153
-0.8657227, 0.4458008, -0.7133789, -10.4268293, -165.4268341, -99.2682953, 0.0078889
-0.9165039, 0.4555664, -0.7583008, -8.841464, -164.6341553, -96.5243912, -0.002182
-0.9414062, 0.4545898, -0.8037109, -8.4146347, -164.0243988, -95.9146347, 0.0125887
-1.0019531, 0.4291992, -0.9267578, -10.4878054, -163.5975647, -97.3170776, 0.0451514
-1.0454102, 0.4067383, -0.9755859, -12.0121956, -164.4512177, -98.4146347, 0.0988632
-1.1484375, 0.3598633, -1.0180664, -13.6585369, -169.3292694, -100.3048782, 0.1727169
-1.1928711, 0.3383789, -1.0073242, -12.8658543, -172.2561035, -100.5487823, 0.2640269
-1.2319336, 0.3125, -0.9199219, -10.1219511, -178.0487823, -100.18293, 0.2925612
-1.190918, 0.300293, -0.847168, -8.9024391, -179.3902435, -100.3658524, 0.2876936
-1.1494141, 0.2871094, -0.84375, -9.3902445, -177.86586, -102.5, 0.3207599
-1.0874023, 0.2436523, -0.8632812, -13.4756098, -174.5731812, -104.5731735, 0.3516442
-1.0683594, 0.2231445, -0.8637695, -15.4878054, -174.146347, -104.5121994, 0.3761501
-1.0527344, 0.2099609, -0.8012695, -15.7926836, -176.9512177, -101.7073212, 0.4072023
-1.0463867, 0.2231445, -0.7460938, -14.1463413, -177.86586, -98.9024429, 0.4441291
-1.019043, 0.28125, -0.6430664, -9.6341467, -177.8048859, -94.0243912, 0.4167697
-0.9960938, 0.3208008, -0.6254883, -8.2926826, -176.1585388, -92.1951218, 0.413077
-0.940918, 0.3681641, -0.7128906, -10.3658543, -170.2439117, -91.2804871, 0.4221408
-0.9311523, 0.3623047, -0.7885742, -13.6585369, -168.1097565, -92.3780518, 0.4295262
-0.9785156, 0.3085938, -0.8930664, -20.9756107, -170.3048859, -94.3902435, 0.4369116
-1.0844727, 0.2670898, -0.8706055, -23.4146347, -174.3292694, -94.4512253, 0.4496681
-1.1376953, 0.2578125, -0.8208008, -22.0731716, -181.5853729, -91.9512253, 0.3912566
-1.1967773, 0.2807617, -0.6967773, -15.5487804, -183.2317047, -88.4756088, 0.2875257
-1.1948242, 0.3129883, -0.637207, -12.8658543, -182.2561035, -87.8048782, 0.2573129
-1.140625, 0.3764648, -0.5766602, -13.1097565, -176.5243988, -88.7195129, 0.2334783
-1.097168, 0.3950195, -0.6166992, -15.7926836, -172.9268341, -90.9146347, 0.2140078
-1.0307617, 0.375, -0.7514648, -25.4878063, -166.9512177, -95.5487823, 0.1700313
-1.043457, 0.3422852, -0.8129883, -29.4512196, -166.8902435, -97.0731735, 0.0983597
-1.1430664, 0.3183594, -0.8857422, -28.9024391, -172.0121918, -96.4634171, 0.0421302
-1.215332, 0.3286133, -0.8964844, -24.9390259, -175.36586, -93.9634171, 0.0125887
-1.3266602, 0.3862305, -0.8642578, -15.3048782, -181.5853729, -88.3536606, -0.008896
-1.3457031, 0.4277344, -0.7626953, -12.8658543, -184.4512177, -87.3170776, -0.0985275
-1.3193359, 0.4306641, -0.7094727, -16.5853653, -186.4024506, -90.6097565, -0.1223621
-1.2138672, 0.3603516, -0.6450195, -29.1463413, -181.1585388, -99.3292694, -0.149218
-1.1826172, 0.3017578, -0.6259766, -35.6707344, -177.1951294, -103.4756088, -0.1787594
-1.1630859, 0.1943359, -0.6191406, -41.1585388, -170.7926941, -105.6707306, -0.2005798
-1.175293, 0.1582031, -0.6323242, -39.0853653, -168.7804871, -103.2926865, -0.202594
-1.2080078, 0.1333008, -0.6606445, -28.1097565, -167.3780518, -94.6341476, -0.2512703
-1.2241211, 0.1430664, -0.6772461, -21.7682934, -167.0121918, -90.3658524, -0.3147173
-1.2548828, 0.1850586, -0.7080078, -13.841464, -167.7439117, -85.9146347, -0.3298238
-1.2675781, 0.2060547, -0.7055664, -12.9268293, -168.6585388, -85.7317123, -0.3331807
-1.2817383, 0.2392578, -0.6704102, -16.4024391, -169.0243988, -87.0731735, -0.2999466
-1.2739258, 0.2509766, -0.597168, -18.5365849, -168.1707306, -87.6219559, -0.2435492
-1.2587891, 0.2514648, -0.5610352, -22.560976, -164.8170776, -87.3170776, -0.1347829
-1.2128906, 0.2460938, -0.5249023, -24.2073174, -160.5487823, -85.7926865, -0.10692
-1.1958008, 0.2485352, -0.5205078, -24.4512196, -158.1097565, -84.8170776, -0.0678111
-1.1811523, 0.2626953, -0.5234375, -24.2073174, -154.0243988, -82.8658524, -0.0236667
-1.1831055, 0.269043, -0.5449219, -24.7560978, -152.7439117, -81.8902435, 0.0038605
-1.1894531, 0.2802734, -0.5878906, -27.1951218, -150.9756165, -81.7073212, 0.0575723
-1.206543, 0.277832, -0.5913086, -28.780489, -150.4268341, -81.7073212, 0.1668421
-1.2553711, 0.2866211, -0.5703125, -30.5487804, -150.1829376, -82.0121994, 0.2133364
-1.2749023, 0.2963867, -0.5581055, -30.6707325, -149.9390259, -81.646347, 0.2113222
-1.2866211, 0.2978516, -0.5585938, -29.6341476, -147.1341553, -81.2804871, 0.2680552
-1.2714844, 0.2646484, -0.574707, -28.7195129, -145.4878082, -81.5853653, 0.303975
-1.2709961, 0.2480469, -0.5839844, -27.3780499, -143.5975647, -83.1097565, 0.3244526
-1.2729492, 0.2294922, -0.5795898, -27.3170738, -142.1951294, -83.6585388, 0.3157244
-1.2744141, 0.2329102, -0.5673828, -26.6463413, -141.0975647, -82.68293, 0.2885328
-1.2568359, 0.2539062, -0.5390625, -26.0365868, -138.6585388, -80.1219559, 0.2845045
-1.2416992, 0.2592773, -0.5361328, -25.4878063, -137.6829376, -79.3902435, 0.3009537
-1.2148438, 0.2612305, -0.5546875, -25.3048782, -135.9146423, -79.0853653, 0.3378805
-1.2177734, 0.2524414, -0.5703125, -25.4878063, -135.6707306, -79.2073212, 0.3308309
-1.246582, 0.2216797, -0.6132812, -25.9756107, -135, -78.5365906, 0.3823606
-1.2661133, 0.2055664, -0.6328125, -26.5853672, -135.3048859, -77.6219559, 0.3966278
-1.3115234, 0.1616211, -0.637207, -25.5487804, -136.646347, -75, 0.3795071
-1.3344727, 0.1323242, -0.5942383, -24.3292694, -137.1341553, -73.7804871, 0.3012894
-1.3325195, 0.1210938, -0.5620117, -20.9756107, -136.9512177, -71.3414688, 0.2462348
-1.3022461, 0.0922852, -0.5029297, -17.439024, -134.8780518, -69.3292694, 0.1592889
-1.2792969, 0.0898438, -0.4707031, -16.0975609, -133.4756165, -68.4146347, 0.0605936
-1.2285156, 0.0869141, -0.4155273, -14.3292685, -128.9634247, -65.7926865, 0.0124208
-1.2006836, 0.0981445, -0.3979492, -13.3536587, -126.1585388, -64.0853653, -0.0372625
-1.1572266, 0.1479492, -0.3774414, -11.5243902, -120.36586, -60, -0.1223621
-1.1416016, 0.1787109, -0.3730469, -10.6097565, -117.9268341, -58.6585388, -0.1700313
-1.1152344, 0.2265625, -0.3691406, -8.780488, -114.0853653, -56.6463432, -0.191516
-1.1083984, 0.2373047, -0.3691406, -8.780488, -112.5, -56.341465, -0.286183
-1.0966797, 0.2558594, -0.3579102, -10.4878054, -109.3292694, -56.8902435, -0.3278096
-1.1113281, 0.2734375, -0.3574219, -12.0731707, -107.3780518, -57.1951218, -0.3247883
-1.1186523, 0.2827148, -0.3574219, -15.1829271, -102.3780518, -56.5243912, -0.3415732
-1.1274414, 0.300293, -0.3759766, -16.6463413, -99.146347, -54.9390259, -0.3533227
-1.1274414, 0.3051758, -0.3886719, -17.439024, -97.8048782, -54.6341476, -0.3392233
-1.1401367, 0.2919922, -0.4169922, -19.0243912, -95.6707306, -54.2682953, -0.3748074
-1.1430664, 0.2783203, -0.4257812, -20.5487804, -95.4268341, -54.5121956, -0.4379187
-1.1523438, 0.2319336, -0.4248047, -23.8414631, -93.7195129, -54.5731735, -0.4500038
-1.1591797, 0.2128906, -0.4169922, -25.1219521, -92.7439041, -54.5731735, -0.4657816
-1.1748047, 0.1850586, -0.390625, -25.1219521, -90.6097565, -53.6585388, -0.452018
-1.175293, 0.1831055, -0.3847656, -24.2073174, -89.0243912, -53.1097565, -0.4357366
-1.1723633, 0.1821289, -0.3828125, -22.0121956, -86.0365906, -51.7073174, -0.4011597
-1.1494141, 0.1850586, -0.3793945, -21.2195129, -84.8170776, -50.7926826, -0.3388876
-1.1337891, 0.1855469, -0.390625, -20.6097565, -83.1707306, -50.4878044, -0.2774548
-1.1098633, 0.1728516, -0.4174805, -21.6463413, -81.2804871, -49.3902435, -0.2291142
-1.1074219, 0.1699219, -0.4277344, -22.0731716, -80.7317123, -48.9634171, -0.244892
-1.1113281, 0.1650391, -0.4428711, -22.3780499, -80.3658524, -47.5609779, -0.2136721
-1.1225586, 0.1689453, -0.4536133, -22.3170738, -80.4268341, -46.7682953, -0.1586175
-1.1362305, 0.1777344, -0.4750977, -21.4634151, -81.0975647, -45.3658562, -0.103563
-1.1420898, 0.1723633, -0.4804688, -20.7926826, -81.3414688, -44.7560997, -0.0693217
-1.1357422, 0.1621094, -0.4819336, -19.939024, -82.6219559, -44.2682953, -0.0109102
-1.1254883, 0.1357422, -0.4487305, -19.4512196, -83.1707306, -43.7195129, -0.0075532
-1.1176758, 0.1303711, -0.4301758, -18.0487804, -83.0487823, -42.3780479, -0.0229953
-1.1020508, 0.1308594, -0.409668, -17.439024, -82.8658524, -41.7073174, 0.0035248
-1.090332, 0.140625, -0.4135742, -15.6097565, -81.0975647, -40.1829262, 0.0169528
-1.0849609, 0.168457, -0.4331055, -13.841464, -79.4512177, -38.9024391, 0.0290379
-1.0878906, 0.1875, -0.4477539, -12.7439032, -79.0243912, -38.4146347, 0.0666361
-1.0927734, 0.2182617, -0.4594727, -11.219512, -78.9634171, -37.8048782, 0.1082628
-1.0952148, 0.2304688, -0.4511719, -11.219512, -78.7804871, -37.6219521, 0.0508583
-1.0820312, 0.2382812, -0.3911133, -11.6463413, -78.2926865, -37.1341476, 0.0250095
-1.0678711, 0.2397461, -0.3515625, -12.1951218, -77.3780518, -37.0121956, 0.0394446
-1.0200195, 0.234375, -0.2807617, -12.4390249, -72.9878082, -36.4024391, 0.0350805
-0.9819336, 0.2109375, -0.2631836, -12.4390249, -70, -36.0365868, 0.0028534
-0.9726562, 0.1953125, -0.2661133, -12.7439032, -63.7195129, -35.1829262, -0.0135958
-0.9814453, 0.1606445, -0.2988281, -13.1097565, -60.9756126, -34.5731697, -0.090135
-0.9995117, 0.1450195, -0.3295898, -12.8048782, -55.9146347, -33.4146347, -0.1572747
-1.0576172, 0.1147461, -0.3740234, -12.1951218, -52.3170738, -31.8292694, -0.1680171
-1.0957031, 0.1020508, -0.3955078, -11.4024391, -50.6707344, -31.0975609, -0.1895018
-1.1425781, 0.0952148, -0.4555664, -9.3902445, -47.5, -29.6341476, -0.1989014
-1.1665039, 0.0981445, -0.4873047, -8.2317076, -46.2195129, -28.5975609, -0.2599985
-1.1806641, 0.1054688, -0.5258789, -5.4268293, -44.1463432, -26.9512196, -0.3291524
-1.171875, 0.1035156, -0.527832, -3.2926829, -44.2073174, -26.0365868, -0.364065
-1.1308594, 0.1020508, -0.5083008, 0.1829268, -44.2682953, -24.3292694, -0.3761501
-1.0839844, 0.1137695, -0.4785156, 1.9512196, -42.9268303, -23.5975609, -0.3878996
-1.0600586, 0.1210938, -0.465332, 5.9146342, -39.8780479, -22.1341476, -0.4540322
-1.0249023, 0.1293945, -0.4741211, 7.6219516, -38.3536606, -20.7317085, -0.4627604
-1.0170898, 0.1269531, -0.4804688, 10.5487804, -35.9146347, -18.0487804, -0.4567178
-1.0039062, 0.1069336, -0.4814453, 12.8658543, -34.6951218, -15.9756098, -0.458732
-1.003418, 0.0976562, -0.4746094, 14.6341467, -33.9634171, -15.1219511, -0.462089
-1.0385742, 0.0859375, -0.4335938, 20.1829281, -31.0365868, -13.4756098, -0.4432898
-1.0625, 0.0908203, -0.4140625, 23.9024391, -29.7560978, -12.1341467, -0.4476539
-1.0820312, 0.1147461, -0.4067383, 31.2195129, -26.5853672, -9.2682924, -0.4862593
-1.0825195, 0.1235352, -0.4165039, 33.2926826, -23.9024391, -8.4756098, -0.4610819
-1.081543, 0.1411133, -0.4101562, 34.5731697, -18.9024391, -6.5853658, -0.4244907
-1.0761719, 0.1542969, -0.3896484, 34.2073174, -16.4634151, -6.2195125, -0.3808499
-1.0688477, 0.1630859, -0.3857422, 33.841465, -10.6707315, -5.4878049, -0.2996109
-1.0415039, 0.1713867, -0.3984375, 35, -5.2439027, -3.5365853, -0.2197147
-1.027832, 0.1713867, -0.4140625, 35.8536606, -3.0487804, -2.1341465, -0.223743
-1.0146484, 0.1660156, -0.4711914, 36.8292694, -0.0609756, -0.0609756, -0.1972229
-1.0151367, 0.1621094, -0.487793, 37.1951218, 0.6707317, 0.7317073, -0.1532464
-1.019043, 0.1582031, -0.4946289, 38.0487823, 1.2804878, 1.6463414, -0.1049058
-1.0317383, 0.1611328, -0.4892578, 38.9024391, 1.2804878, 1.7682927, -0.0387732
-1.0400391, 0.1547852, -0.46875, 41.0975609, 2.0731707, 2.2560976, 0.0569009
-1.0419922, 0.1479492, -0.465332, 41.5243912, 2.5609756, 2.5, 0.0904707
-1.0307617, 0.1235352, -0.4560547, 42.1951218, 4.4512196, 4.2682929, 0.0904707
-1.0249023, 0.1142578, -0.4462891, 42.5, 5.8536587, 5.2439027, 0.1418326
-1.0234375, 0.1147461, -0.4438477, 43.6585388, 8.780488, 6.9512196, 0.1742275
-1.0336914, 0.1196289, -0.4692383, 46.5243912, 11.6463413, 8.9634151, 0.2166934
-1.0385742, 0.1269531, -0.4902344, 48.1707344, 12.6829271, 9.8170738, 0.2153506
-1.0600586, 0.1445312, -0.5219727, 50.2439041, 13.0487804, 11.4634151, 0.2213931
-1.0722656, 0.15625, -0.5258789, 50.4268303, 12.9268293, 11.8292685, 0.2529488
-1.0849609, 0.1748047, -0.4848633, 50.6707344, 12.7439032, 12.0731707, 0.2777905
-1.0917969, 0.1772461, -0.4521484, 50.6707344, 13.1707315, 12.560976, 0.2965896
-1.0693359, 0.1665039, -0.4311523, 51.5243912, 15.9146347, 13.5365858, 0.2811475
-1.0566406, 0.1577148, -0.4492188, 51.341465, 18.4146347, 14.5121956, 0.3180743
-1.0571289, 0.1381836, -0.4775391, 50.6707344, 21.7682934, 16.4024391, 0.3711147
-1.0771484, 0.1376953, -0.4799805, 50.7317085, 22.1951218, 17.5, 0.3831998
-1.0883789, 0.1416016, -0.4614258, 51.7682953, 22.9878063, 19.3902435, 0.3684291
-1.0927734, 0.1538086, -0.4223633, 53.9024391, 24.9390259, 20.1219521, 0.3865568
-1.0839844, 0.1513672, -0.4116211, 54.5121956, 26.4024391, 20.5487804, 0.3481193
-1.0727539, 0.1376953, -0.4282227, 53.1097565, 30.3048782, 21.3414631, 0.2630198
-1.0600586, 0.1313477, -0.4394531, 51.2804909, 31.5853672, 22.3780499, 0.2234073
-1.043457, 0.1123047, -0.453125, 48.4146347, 34.1463432, 25.3658543, 0.1435111
-1.0375977, 0.1030273, -0.4472656, 47.8658562, 34.8170738, 26.7682934, 0.0656291
-1.0366211, 0.1083984, -0.4306641, 48.9634171, 36.341465, 28.5975609, 0.0135958
-1.0444336, 0.121582, -0.4277344, 50.4268303, 37.3170738, 28.780489, -0.0193027
-1.0673828, 0.1606445, -0.4311523, 52.5609779, 39.4512215, 29.1463413, -0.1077592
-1.0942383, 0.1826172, -0.4360352, 52.5, 40.1829262, 29.2073174, -0.1143053
-1.0961914, 0.1894531, -0.4370117, 49.8170738, 41.7073174, 30.3048782, -0.0820783
-1.0927734, 0.1875, -0.434082, 45.4878044, 44.6951218, 31.5853672, -0.026688
-1.0961914, 0.1708984, -0.4296875, 43.7804871, 46.6463432, 31.9512196, 0.0374304
-1.1010742, 0.1542969, -0.434082, 42.9878044, 49.9390259, 32.9268303, 0.1092699
-1.1083984, 0.1538086, -0.4482422, 42.7439041, 51.2195129, 33.0487823, 0.1099413
-1.1245117, 0.1635742, -0.4746094, 43.1097565, 53.4146347, 34.1463432, 0.0829175
-1.1367188, 0.168457, -0.4750977, 43.1707344, 54.0243912, 34.8780479, 0.0842603
-1.144043, 0.1757812, -0.4462891, 42.5609779, 54.6341476, 35.3048782, 0.0669718
-1.1386719, 0.1821289, -0.4311523, 41.4024391, 55.6097565, 35.6707344, 0.0757
-1.1171875, 0.1831055, -0.4165039, 38.9024391, 59.6951218, 35, 0.0736858
-1.0976562, 0.1943359, -0.4511719, 37.7439041, 63.1097565, 34.8780479, 0.0970169
-1.0981445, 0.2006836, -0.4770508, 36.2804871, 68.1707306, 35.7317085, 0.1260548
-1.1118164, 0.2001953, -0.5356445, 37.1341476, 70, 37.5609779, 0.1545892
-1.1259766, 0.2021484, -0.5532227, 38.1097565, 69.3292694, 38.1097565, 0.1938659
-1.1484375, 0.2016602, -0.5483398, 39.1463432, 67.3170776, 39.6341476, 0.1690242
-1.1630859, 0.2021484, -0.527832, 38.5975609, 66.5853653, 39.6951218, 0.2079652
-1.1689453, 0.2006836, -0.4633789, 36.0975609, 67.5609741, 39.3902435, 0.2777905
-1.1630859, 0.1918945, -0.4321289, 34.6341476, 69.5731735, 39.3902435, 0.3351949
-1.1401367, 0.1552734, -0.4365234, 33.4146347, 75.3658524, 39.5121956, 0.3862211
-1.1274414, 0.1347656, -0.4614258, 32.9268303, 77.9878082, 40.4268303, 0.4503395
-1.1333008, 0.1181641, -0.503418, 32.9268303, 81.1585388, 42.4390259, 0.4540322
-1.1621094, 0.1523438, -0.5048828, 33.1707306, 81.7682953, 43.5975609, 0.4328832
-1.1669922, 0.1738281, -0.496582, 34.3292694, 82.0121994, 45.3048782, 0.4523537
-1.1821289, 0.2211914, -0.4956055, 33.9634171, 83.2317123, 45.1829262, 0.4718242
-1.1875, 0.2368164, -0.5068359, 32.9878044, 84.2682953, 44.8780479, 0.4899519
-1.1967773, 0.2509766, -0.5209961, 28.5365868, 86.646347, 44.8780479, 0.5201648
-1.1943359, 0.2524414, -0.5131836, 25.6097565, 87.5, 45.1829262, 0.5535668
-1.1777344, 0.2416992, -0.472168, 21.3414631, 89.5731735, 44.9390259, 0.5064012
-1.1630859, 0.2412109, -0.4467773, 20.2439022, 91.0975647, 44.8780479, 0.5018692
-1.1333008, 0.25, -0.4462891, 18.5975609, 95.9756088, 44.2073174, 0.5017014
-1.1240234, 0.2495117, -0.4716797, 17.7439022, 98.5365906, 44.0243912, 0.4855879
-1.1333008, 0.2402344, -0.5249023, 15.1219511, 101.5853653, 44.1463432, 0.4422827
-1.1416016, 0.2226562, -0.5219727, 13.841464, 101.0365906, 44.8170738, 0.4214694
-1.1425781, 0.2133789, -0.519043, 11.219512, 100.7317123, 45.6097565, 0.3734646
-1.1523438, 0.1953125, -0.5161133, 8.6585369, 103.1097565, 45.9146347, 0.303975
-1.1591797, 0.190918, -0.515625, 8.2317076, 104.5731735, 46.4024391, 0.2821546
-1.1796875, 0.1782227, -0.5302734, 8.3536587, 107.68293, 47.8658562, 0.2502632
-1.1938477, 0.1733398, -0.5400391, 8.3536587, 108.5365906, 48.841465, 0.1968872
-1.2158203, 0.168457, -0.546875, 8.4146347, 109.5121994, 51.0365868, 0.1310903
-1.2216797, 0.1733398, -0.5444336, 8.1707315, 110, 52.3780518, 0.0803998
-1.2192383, 0.1938477, -0.5336914, 7.0121951, 111.646347, 54.2682953, 0.0522011
-1.2128906, 0.2011719, -0.5263672, 5.609756, 112.7439041, 55.0609779, 0.0411231
-1.1943359, 0.2260742, -0.5336914, 2.1341465, 116.0365906, 55.5487823, 0.0414588
-1.1914062, 0.2470703, -0.5463867, 0.8536586, 117.8048782, 56.0365868, -0.0297093
-1.1938477, 0.2519531, -0.5444336, -1.402439, 120.3048782, 57.1951218, -0.0485084
-1.1796875, 0.2402344, -0.5390625, -2.3170731, 122.0731735, 58.3536606, -0.0515297
-1.1674805, 0.234375, -0.5444336, -3.1097562, 122.86586, 58.6585388, -0.0820783
-1.1474609, 0.2148438, -0.5678711, -5.4878049, 125.18293, 57.8048782, -0.1153124
-1.1547852, 0.2094727, -0.574707, -6.4634147, 126.0365906, 57.5609779, -0.1109483
-1.1801758, 0.2041016, -0.581543, -7.6829271, 126.5853653, 59.3292694, -0.1552605
-1.1992188, 0.2055664, -0.5766602, -7.6219516, 126.9512253, 60.9146347, -0.2183719
-1.2260742, 0.2172852, -0.5517578, -6.0365853, 127.4390259, 63.5365868, -0.2056153
-1.2304688, 0.2236328, -0.5375977, -5.1219511, 127.86586, 64.3292694, -0.170367
-1.2290039, 0.2407227, -0.5166016, -4.6951222, 130.7317047, 63.841465, -0.1290761
-1.2246094, 0.2553711, -0.5322266, -5.0609756, 133.1707306, 63.2317085, -0.0840925
-1.2270508, 0.2592773, -0.5419922, -6.4634147, 138.0487823, 63.2926826, -0.0406195
-1.2324219, 0.2475586, -0.5385742, -6.1585369, 140.8536682, 64.8780518, -0.0674754
-1.2226562, 0.2314453, -0.5317383, -5.5487804, 141.8292694, 65.5487823, -0.0720073
-1.2119141, 0.190918, -0.5361328, -4.2682929, 143.9024353, 65.7926865, -0.0485084
-1.2094727, 0.184082, -0.5351562, -3.9024391, 145, 65.5487823, -0.0119173
-1.2285156, 0.1992188, -0.519043, -3.5975611, 147.1341553, 65.7317123, 0.0070497
-1.2358398, 0.2231445, -0.5053711, -3.4146342, 148.9634247, 66.3414612, 0.0488441
-1.2319336, 0.2836914, -0.496582, -3.2926829, 153.7195129, 67.9268341, 0.0428016
-1.21875, 0.309082, -0.5546875, -3.2317073, 156.1585388, 67.9268341, 0.0030213
-1.2158203, 0.3076172, -0.5996094, -5.9146342, 160.36586, 66.2804871, 0.0092317
-1.2441406, 0.2910156, -0.6542969, -7.5609756, 162.0731812, 65.1219559, 0.0246738
-1.2758789, 0.2817383, -0.6645508, -9.5121956, 161.8292694, 64.5121994, 0.0303807
-1.3164062, 0.2773438, -0.6865234, -7.7439027, 159.8170776, 65.4268341, 0.0229953
-1.3339844, 0.2763672, -0.7001953, -7.0731707, 159.146347, 65.9756088, 0.0129244
-1.3544922, 0.2714844, -0.7036133, -8.5365858, 156.8902435, 66.0975647, -0.0112459
-1.3564453, 0.2631836, -0.6967773, -10.3048782, 155.36586, 65.8536606, -0.0263523
-1.3447266, 0.2675781, -0.6757812, -13.5365858, 154.6341553, 64.5121994, -0.0206455
-1.3354492, 0.2763672, -0.6816406, -13.9634151, 155.8536682, 64.2682953, -0.0991989
-1.3330078, 0.3037109, -0.7348633, -13.7195129, 158.9634247, 65.1219559, -0.142504
-1.3540039, 0.328125, -0.7851562, -13.841464, 159.146347, 66.3414612, -0.1921874
-1.3608398, 0.3320312, -0.78125, -14.2682934, 154.9390259, 68.1707306, -0.2640269
-1.3452148, 0.3398438, -0.7324219, -15.4878054, 151.5853729, 67.7439041, -0.3219348
-1.3242188, 0.3432617, -0.7158203, -17.1341476, 148.4146423, 65.3048782, -0.3390555
-1.3129883, 0.3364258, -0.7026367, -20, 151.2804871, 62.5, -0.403006
-1.3188477, 0.3334961, -0.6977539, -21.280489, 153.7195129, 62.1341476, -0.4783703
-1.3188477, 0.3134766, -0.675293, -23.1097565, 156.4634247, 61.8902435, -0.5409781
-1.3041992, 0.3012695, -0.65625, -23.5975609, 157.2561035, 61.5243912, -0.6071107
-1.2607422, 0.2958984, -0.6469727, -23.5975609, 159.6951294, 60.9756126, -0.6547799
-1.2338867, 0.2895508, -0.6640625, -23.780489, 162.4390259, 60.3658562, -0.6890211
-1.2138672, 0.2788086, -0.7104492, -25.2439022, 167.86586, 59.5121956, -0.7088273
-1.2358398, 0.2866211, -0.7319336, -26.3414631, 169.0243988, 60.0609779, -0.7779812
-1.2373047, 0.2949219, -0.7275391, -27.8658543, 167.6219482, 62.4390259, -0.8125582
-1.2192383, 0.3139648, -0.699707, -28.5365868, 166.8292694, 63.7804909, -0.8243076
-1.2045898, 0.3222656, -0.6850586, -29.8780499, 167.5, 64.1463394, -0.8340429
-1.1738281, 0.3300781, -0.7001953, -33.4146347, 172.2561035, 62.6219521, -0.870634
-1.1606445, 0.3203125, -0.7197266, -35.8536606, 175.1219482, 61.7073174, -0.8444495
-1.1621094, 0.3056641, -0.7504883, -39.8170738, 178.0487823, 61.1585388, -0.8358892
-1.1616211, 0.3012695, -0.7524414, -40.5487823, 178.1097565, 61.7073174, -0.8598917
-1.144043, 0.3022461, -0.746582, -40.4268303, 178.2926941, 63.5975609, -0.842771
-1.1289062, 0.2993164, -0.7539062, -40.0609779, 179.0243988, 64.1463394, -0.8155795
-1.0996094, 0.2749023, -0.8085938, -40.5487823, 181.2804871, 64.0853653, -0.7511254
-1.1289062, 0.2524414, -0.8291016, -41.7073174, 181.8902435, 64.2682953, -0.6651865
-1.1386719, 0.2548828, -0.8071289, -43.6585388, 179.4512177, 66.7073212, -0.5802548
-1.1181641, 0.28125, -0.7744141, -43.5975609, 177.4390259, 68.8414688, -0.4775311
-1.0810547, 0.3037109, -0.7836914, -42.6829262, 177.3780518, 72.3170776, -0.3691005
-1.0341797, 0.3291016, -0.8344727, -44.5121956, 182.1951294, 73.5365906, -0.2596628
-1.027832, 0.331543, -0.8549805, -46.4024391, 183.2317047, 73.8414688, -0.2210575
-1.0283203, 0.3139648, -0.8388672, -49.8780518, 181.0365906, 74.5731735, -0.1378042
-1.0200195, 0.2983398, -0.8100586, -49.8170738, 179.3292694, 75, -0.064622
-0.9814453, 0.2714844, -0.7539062, -48.0487823, 178.7804871, 74.9390259, -0.0196384
-0.9589844, 0.2612305, -0.7529297, -47.5609779, 180.4268341, 74.8170776, 0.030045
-0.9379883, 0.2587891, -0.7749023, -47.8048782, 185.8536682, 75.3048782, 0.1025559
-0.9443359, 0.2753906, -0.7993164, -48.9634171, 187.6829376, 76.7073212, 0.121355
-0.9345703, 0.2885742, -0.7954102, -52.0121956, 188.5365906, 80.9756088, 0.115816
-0.8847656, 0.3251953, -0.7817383, -54.2682953, 188.5975647, 84.5731735, 0.1628138
-0.8486328, 0.3364258, -0.7973633, -55.3658562, 189.146347, 85.1219559, 0.2098116
-0.8081055, 0.3393555, -0.8496094, -57.9268303, 192.8048859, 83.7195129, 0.249424
-0.8178711, 0.3271484, -0.8657227, -59.1463432, 193.5365906, 83.2926865, 0.298436
-0.8583984, 0.2827148, -0.8808594, -60.2439041, 190.6707306, 84.146347, 0.3456016
-0.8823242, 0.2631836, -0.8818359, -60.7317085, 188.6585388, 85, 0.3315023
-0.9248047, 0.2548828, -0.8666992, -61.0365868, 187.6219482, 89.146347, 0.3409018
-0.9291992, 0.2729492, -0.8588867, -60.8536606, 188.7195129, 91.9512253, 0.3442588
-0.9013672, 0.3105469, -0.8725586, -60.7317085, 191.3414612, 95.6097565, 0.3059892
-0.855957, 0.3325195, -0.9008789, -61.1585388, 192.5, 95.9146347, 0.2563058
-0.8388672, 0.3393555, -0.9086914, -63.1707344, 192.8048859, 94.5731735, 0.2589914
-0.8242188, 0.3378906, -0.9047852, -65.0609741, 192.3780518, 92.68293, 0.2217288
-0.8227539, 0.3354492, -0.9038086, -65.0609741, 192.6219482, 92.8048782, 0.1717098
