Application:, Trigno Discover (1.6.5)
Date/Time:, 04/02/2025 15:35:16
Collection Length (seconds):, 27.1215
wrist (81457), , , , , , bicep (81139)
sensor mode: 609, , , , , , sensor mode: 40
ACC X (G), ACC Y (G), ACC Z (G), GYRO X (deg/s), GYRO Y (deg/s), GYRO Z (deg/s), EMG 1 (mV)
370.3704 Hz, 370.3704 Hz, 370.3704 Hz, 370.3704 Hz, 370.3704 Hz, 370.3704 Hz, 2148.1481 Hz
-1.0273438, -0.0693359, -0.1894531, -39.5731735, -10.4878054, 2.9268293, -0.4919661
-1.0302734, -0.0766602, -0.184082, -38.841465, -11.0365858, 2.8658538, -0.4912947
-1.0273438, -0.0751953, -0.1582031, -36.8292694, -11.341464, 2.6219513, -0.5023728
-1.0234375, -0.0673828, -0.1455078, -35.6707344, -11.4634151, 2.7439024, -0.5047227
-1.0117188, -0.0395508, -0.1337891, -33.6585388, -10.1829271, 3.3536587, -0.4923018
-1.0039062, -0.0219727, -0.1381836, -32.3170738, -9.7560978, 3.1097562, -0.4825666
-0.9931641, 0.0024414, -0.1567383, -32.3170738, -9.5731707, 2.9268293, -0.5392996
-0.9858398, 0.0053711, -0.1738281, -33.4756088, -9.9390249, 2.9268293, -0.5461814
-0.9887695, -0.0029297, -0.1767578, -36.0365868, -10.6097565, 3.2926829, -0.5419852
-1.0029297, -0.012207, -0.1430664, -36.8292694, -10.8536587, 3.5365853, -0.56112
-1.0107422, -0.0180664, -0.1210938, -37.3170738, -10.9756098, 4.0243902, -0.5916686
-1.019043, -0.0458984, -0.1132812, -35.6097565, -10.6097565, 4.9390244, -0.595697
-1.0146484, -0.0629883, -0.1298828, -34.5731697, -9.7560978, 5.609756, -0.6551156
-1.027832, -0.1000977, -0.1694336, -33.9024391, -8.1707315, 6.7073174, -0.7219196
-1.0371094, -0.1181641, -0.1850586, -33.5365868, -7.9268293, 7.6219516, -0.7810025
-1.0527344, -0.144043, -0.190918, -32.0731697, -8.1097565, 8.841464, -0.8456245
-1.0546875, -0.1450195, -0.1884766, -30.6707325, -8.2317076, 9.4512196, -0.8954757
-1.0532227, -0.140625, -0.1772461, -25.5487804, -8.0487804, 10.4268293, -0.9327382
-1.0449219, -0.1074219, -0.1826172, -22.8048782, -8.1707315, 10.9146347, -0.9710079
-1.0371094, -0.0810547, -0.1879883, -17.9878044, -8.780488, 10.7926836, -1.067689
-1.0234375, -0.0273438, -0.1962891, -16.4024391, -9.3902445, 10.7926836, -1.1489281
-1.0141602, 0.0014648, -0.2006836, -16.2195129, -10.3048782, 10.4268293, -1.2110323
-0.9985352, 0.0400391, -0.1967773, -18.1097565, -11.7073174, 9.4512196, -1.2780041
-0.9951172, 0.0541992, -0.1899414, -19.939024, -12.7439032, 9.2073174, -1.3288624
-0.996582, 0.0629883, -0.1723633, -23.6585369, -13.9634151, 8.2926826, -1.3391012
-0.9980469, 0.0625, -0.1645508, -25.2439022, -14.2073174, 7.9268293, -1.3862669
-1.0024414, 0.0375977, -0.1611328, -27.8658543, -14.0853662, 7.7439027, -1.4594491
-1.0058594, 0.0253906, -0.1625977, -29.2682934, -14.0853662, 7.6829271, -1.4846265
-1.0136719, -0.0058594, -0.1630859, -30.7317085, -14.0853662, 7.5609756, -1.5087968
-1.0141602, -0.0366211, -0.1582031, -30.9146347, -14.1463413, 7.8048782, -1.5270924
-1.0175781, -0.046875, -0.1567383, -30.3658543, -13.9024391, 7.6829271, -1.5514305
-1.0205078, -0.0561523, -0.15625, -29.5731716, -13.7195129, 7.9878049, -1.5418631
-1.0180664, -0.0517578, -0.152832, -26.8902454, -13.780488, 8.0487804, -1.5114824
-1.0214844, -0.0458984, -0.1523438, -24.5731716, -13.9634151, 8.2317076, -1.4522316
-1.0161133, -0.0385742, -0.1538086, -24.0243912, -14.3292685, 8.1097565, -1.390631
-1.0092773, -0.0229492, -0.1474609, -23.7195129, -14.4512196, 7.6219516, -1.3711604
-1.0068359, -0.0161133, -0.1469727, -23.780489, -13.9024391, 7.3780489, -1.3030137
-1, -0.0009766, -0.1538086, -24.1463413, -13.3536587, 7.0121951, -1.2462806
-1.0009766, 0.0009766, -0.1552734, -25.060976, -13.4756098, 6.7073174, -1.2026398
-1.0087891, -0.0009766, -0.1660156, -26.4634151, -13.2317076, 6.2195125, -1.1633631
-1.0131836, -0.003418, -0.1733398, -26.8292694, -13.780488, 6.0975609, -1.1002518
-1.0131836, -0.0053711, -0.1723633, -27.9268303, -14.0853662, 6.4634147, -1.0495613
-1.0195312, -0.0126953, -0.1611328, -28.2926826, -14.5731707, 6.5243902, -0.9911498
-1.0195312, -0.0126953, -0.1572266, -27.9268303, -14.5731707, 5.9146342, -0.9072251
-1.0175781, -0.0107422, -0.1503906, -26.8292694, -14.2682934, 4.9390244, -0.8370642
-1.0151367, -0.012207, -0.1518555, -26.3414631, -14.1463413, 4.8780489, -0.7818418
-1.012207, -0.0083008, -0.1523438, -26.0365868, -13.9634151, 4.390244, -0.7215839
-1.0073242, -0.0087891, -0.1450195, -25.4878063, -14.0853662, 4.0243902, -0.6611582
-1, -0.0048828, -0.137207, -25.6097565, -13.5975609, 4.0243902, -0.6567941
-0.9990234, -0.0014648, -0.140625, -25.7926826, -13.1707315, 3.7804878, -0.6121462
-0.9926758, -0.0009766, -0.137207, -26.0975609, -12.5, 3.4146342, -0.5569238
-0.9897461, 0.0048828, -0.1459961, -26.6463413, -12.5, 3.7195122, -0.507744
-0.9887695, 0.003418, -0.1479492, -26.5243912, -12.1951218, 2.8658538, -0.4741741
-0.9941406, 0.0053711, -0.1582031, -26.8292694, -11.7682934, 2.6219513, -0.4179446
-0.9960938, -0.003418, -0.1572266, -26.8292694, -11.8292685, 2.3780489, -0.3957885
-1.0004883, -0.0166016, -0.1577148, -26.8292694, -12.4390249, 2.1341465, -0.4124056
-1.0019531, -0.0151367, -0.1567383, -26.7682934, -12.3170738, 2.195122, -0.4003204
-0.9995117, -0.0209961, -0.1435547, -26.4634151, -12.0121956, 2.0121951, -0.4251621
-0.9931641, -0.0234375, -0.140625, -26.1585369, -11.6463413, 1.6463414, -0.4347295
-0.9863281, -0.0141602, -0.1416016, -26.0365868, -10.6097565, 1.7073171, -0.4451362
-0.9799805, -0.015625, -0.1459961, -25.6707325, -10.060976, 1.5853659, -0.4530251
-0.9750977, -0.0078125, -0.1484375, -25.3658543, -9.6341467, 1.2195122, -0.4493324
-0.9741211, -0.0107422, -0.1552734, -25.3658543, -9.2682924, 1.3414634, -0.4439612
-0.9775391, -0.0102539, -0.1552734, -25.6707325, -9.3292685, 2.0121951, -0.4595712
-0.9736328, -0.0073242, -0.1508789, -25.9146347, -9.6341467, 1.8902439, -0.5104295
-0.9775391, -0.0078125, -0.1435547, -26.2195129, -9.8170738, 1.8902439, -0.5231861
-0.9790039, -0.0063477, -0.1367188, -26.4024391, -9.0853662, 1.5853659, -0.5114366
-0.9770508, -0.0053711, -0.1352539, -26.4024391, -8.9024391, 1.4634147, -0.50103
-0.9853516, 0.0043945, -0.1430664, -26.0365868, -8.1097565, 1.1585366, -0.4839094
-0.9907227, 0.0043945, -0.1503906, -26.1585369, -7.7439027, 1.1585366, -0.4395972
-1.0009766, 0.0043945, -0.1621094, -26.7073174, -7.5609756, 1.3414634, -0.4459754
-1.0029297, -0.0014648, -0.1791992, -26.7073174, -7.5609756, 1.5243902, -0.4677958
-1.0024414, -0.0009766, -0.1835938, -27.1341476, -7.5, 1.402439, -0.452018
-1.0039062, -0.0136719, -0.1899414, -27.1341476, -7.5, 1.0365853, -0.4365759
-1.003418, -0.0126953, -0.1904297, -26.7682934, -8.2926826, 0.9146342, -0.4140841
-0.9985352, -0.015625, -0.1923828, -26.4024391, -8.9634151, 0.9146342, -0.381857
-0.9956055, -0.0151367, -0.1914062, -25.6097565, -9.1463413, 1.5243902, -0.3346914
-0.9980469, -0.015625, -0.1894531, -24.6951218, -9.7560978, 1.7073171, -0.3241169
-0.9946289, -0.0112305, -0.1875, -24.6951218, -10.1829271, 1.7073171, -0.2620127
-0.9960938, -0.0166016, -0.1894531, -24.3902435, -10.6707315, 1.4634147, -0.1693599
-0.9946289, -0.0180664, -0.1860352, -24.0243912, -10.6707315, 1.3414634, -0.0961776
-0.9980469, -0.0205078, -0.171875, -23.9024391, -10.7926836, 1.8292683, -0.0354162
-0.9970703, -0.0239258, -0.1665039, -23.780489, -10.7317076, 1.7682927, 0.0493477
-0.9936523, -0.027832, -0.1674805, -22.9878063, -10.2439022, 1.9512196, 0.0882887
-0.9902344, -0.0341797, -0.1757812, -22.7439022, -9.8780489, 2.1341465, 0.1371328
-0.996582, -0.0351562, -0.1831055, -21.8292694, -10.060976, 2.6829269, 0.2422065
-0.996582, -0.0361328, -0.1860352, -21.5243912, -10, 3.1097562, 0.330663
-0.9960938, -0.0332031, -0.1899414, -20.060976, -10.2439022, 3.7195122, 0.4261692
-0.9951172, -0.0219727, -0.1904297, -19.0853672, -10.7317076, 3.9024391, 0.483238
-0.9946289, -0.019043, -0.1923828, -18.5975609, -10.7926836, 3.7804878, 0.5369497
-0.9921875, -0.0107422, -0.1860352, -18.1097565, -10.7317076, 3.7195122, 0.6108034
-0.9907227, -0.0043945, -0.184082, -17.7439022, -10.9756098, 3.6585367, 0.6819715
-0.9873047, 0.0083008, -0.1850586, -17.560976, -11.1585369, 3.9634147, 0.7435721
-0.9887695, 0.0151367, -0.1914062, -17.439024, -11.4634151, 3.9634147, 0.7632105
-0.9912109, 0.019043, -0.1982422, -17.5, -11.8902445, 4.0243902, 0.8058442
-0.9931641, 0.0249023, -0.1943359, -17.439024, -12.1951218, 4.0853658, 0.8397498
-0.9956055, 0.0292969, -0.190918, -17.6219521, -12.9878054, 3.6585367, 0.8833906
-1.0043945, 0.0195312, -0.1870117, -17.6829281, -13.3536587, 3.4146342, 0.919646
-1.0107422, 0.0195312, -0.1845703, -17.8658543, -13.6585369, 2.9268293, 0.9706722
-1.0131836, 0.0151367, -0.1762695, -17.560976, -13.4146347, 2.5, 0.9663081
-1.0141602, 0.0175781, -0.1801758, -17.6219521, -13.4756098, 2.3780489, 0.9035325
-1.0112305, 0.0146484, -0.1762695, -17.5, -13.1097565, 2.0731707, 0.8867475
-1.0058594, 0.0107422, -0.1728516, -17.0731716, -12.8658543, 2.0121951, 0.8914473
-1.0029297, 0.0136719, -0.1660156, -16.1585369, -12.8658543, 1.6463414, 0.8941329
-0.9912109, 0.0151367, -0.1640625, -15.7317076, -12.3780489, 1.3414634, 0.9068894
-0.9887695, 0.0146484, -0.1640625, -15.3658543, -11.9512196, 1.2804878, 0.9082322
-0.9873047, 0.0170898, -0.1625977, -15.3658543, -11.6463413, 0.7926829, 0.8337072
-0.9868164, 0.015625, -0.1621094, -15.4268293, -11.5243902, 1.097561, 0.7880522
-0.9907227, 0.0087891, -0.1640625, -15.3048782, -11.0365858, 1.2804878, 0.7571679
-0.9892578, 0.0087891, -0.1640625, -14.7560978, -11.0365858, 1.2195122, 0.737026
-0.9946289, 0.0043945, -0.1723633, -14.8170738, -10.8536587, 1.2804878, 0.737026
-0.9960938, 0.0019531, -0.1762695, -14.4512196, -10.4878054, 1.1585366, 0.7524681
-0.9985352, -0.0039062, -0.1757812, -14.6341467, -10.3658543, 1.3414634, 0.719234
-1.0009766, -0.0053711, -0.1728516, -15.060976, -10.060976, 1.097561, 0.6816358
-0.9980469, -0.0161133, -0.1669922, -14.5731707, -9.3292685, 1.1585366, 0.6752575
-0.9936523, -0.0209961, -0.1640625, -14.0853662, -9.2073174, 1.0365853, 0.6609903
-0.9902344, -0.0175781, -0.1640625, -13.1707315, -8.719512, 1.2804878, 0.6604868
-0.987793, -0.0058594, -0.1733398, -12.8048782, -8.6585369, 1.4634147, 0.662501
-0.9863281, -0.0019531, -0.1748047, -11.9512196, -8.780488, 1.7682927, 0.6443732
-0.9833984, 0.0019531, -0.1713867, -12.0121956, -9.0853662, 1.5853659, 0.6349737
-0.9863281, 0.0068359, -0.1699219, -12.4390249, -8.9634151, 1.3414634, 0.6645151
-0.9931641, 0.0146484, -0.1630859, -12.9878054, -8.9024391, 0.6707317, 0.7088273
-0.9956055, 0.015625, -0.1582031, -12.9878054, -8.780488, 0.6097561, 0.7155413
-1.0014648, 0.0249023, -0.1660156, -13.5365858, -8.5975609, 0.3048781, 0.7457542
-1.003418, 0.0244141, -0.1738281, -13.5975609, -8.1097565, 0.1219512, 0.779324
-1.0141602, 0.0234375, -0.1879883, -14.2073174, -8.4146347, -0.2439024, 0.7961089
-1.0205078, 0.0097656, -0.1928711, -15.060976, -8.841464, -0.0609756, 0.821622
-1.0166016, 0.0029297, -0.190918, -15.7926836, -9.3292685, -0.4268293, 0.8914473
-1.0175781, -0.0053711, -0.1899414, -15.9146347, -9.5731707, -0.5487805, 0.9209888
-1.0214844, -0.0126953, -0.1889648, -15.6097565, -9.8780489, -0.8536586, 0.9277028
-1.0209961, -0.0268555, -0.1826172, -14.8780489, -10, -0.4268293, 0.9570764
-1.0258789, -0.0307617, -0.1826172, -14.2682934, -10.3658543, -0.4878049, 0.9757076
-1.0263672, -0.0332031, -0.1835938, -12.9268293, -10.4878054, -0.1829268, 0.9881285
-1.0292969, -0.0322266, -0.1796875, -11.9512196, -10.7317076, 0.0609756, 1.0018921
-1.0200195, -0.0229492, -0.1669922, -10.6097565, -10.1829271, -0.2439024, 1.0163272
-1.0239258, -0.0209961, -0.1577148, -10.2439022, -10.1219511, -0.3048781, 0.9837644
-1.0112305, -0.0117188, -0.1469727, -9.5731707, -9.8780489, -0.6097561, 0.9867857
-0.9995117, -0.0039062, -0.1489258, -9.4512196, -9.4512196, -0.6707317, 0.9867857
-0.9916992, -0.0053711, -0.1542969, -9.6341467, -8.5975609, -0.7926829, 0.9632868
-0.9833984, 0.0019531, -0.159668, -9.8780489, -8.4756098, -0.5487805, 0.9532158
-0.9814453, -0.0004883, -0.1630859, -10.5487804, -8.4146347, -0.3658537, 0.9673152
-0.9775391, -0.0078125, -0.1625977, -10.5487804, -8.5975609, -0.0609756, 0.9183032
-0.9780273, -0.0087891, -0.1611328, -10.4268293, -8.4146347, -0.2439024, 0.8368963
-0.9814453, -0.0258789, -0.159668, -9.8170738, -8.3536587, -0.3658537, 0.7731136
-0.9853516, -0.0263672, -0.1606445, -9.2682924, -8.1097565, -0.4878049, 0.7165484
-0.9941406, -0.0366211, -0.1533203, -8.4146347, -8.2926826, 0.0609756, 0.6772717
-0.9985352, -0.0419922, -0.1538086, -7.7439027, -8.2317076, 0.3658537, 0.6208743
-1.0019531, -0.0380859, -0.1494141, -6.5243902, -7.7439027, 0.9146342, 0.5658198
-0.9990234, -0.0214844, -0.1494141, -6.1585369, -7.3780489, 1.1585366, 0.5074083
-0.9956055, -0.0170898, -0.1503906, -5.3658538, -6.6463418, 1.097561, 0.4372473
-0.9892578, -0.0048828, -0.144043, -5.609756, -6.7073174, 1.2195122, 0.3865568
-0.9882812, -0.0058594, -0.140625, -5.670732, -5.9756098, 0.6707317, 0.2798047
-0.9838867, 0.0004883, -0.1259766, -5.5487804, -5.4878049, 0.2439024, 0.2291142
-0.9780273, 0.0019531, -0.1186523, -5.2439027, -4.8170733, 0.3048781, 0.1958801
-0.9755859, 0.0073242, -0.1240234, -4.390244, -3.1707318, 0.4268293, 0.1582818
-0.9750977, 0.0068359, -0.1357422, -4.1463413, -2.7439024, 0.1829268, 0.1223621
-0.9711914, 0.0004883, -0.1401367, -3.8414636, -2.5, 0.1829268, 0.111284
-0.96875, -0.0014648, -0.1435547, -4.0243902, -2.3780489, 0.1829268, 0.0683146
-0.9702148, -0.0083008, -0.1411133, -3.5975611, -1.8292683, -0.0609756, 0.0085603
-0.9765625, -0.0170898, -0.1513672, -3.0487804, -1.402439, -0.1829268, 0.0025177
-0.980957, -0.0224609, -0.1606445, -1.8902439, -0.9756098, -0.0609756, 0.0031891
-0.9848633, -0.0302734, -0.1699219, -1.2804878, -1.0365853, 0.2439024, -0.0099031
-0.984375, -0.0341797, -0.1669922, -1.3414634, -1.8292683, 0.7926829, -0.0115816
-0.9824219, -0.03125, -0.1567383, -1.2195122, -1.4634147, 1.2804878, 0.0209812
-0.9775391, -0.03125, -0.1533203, -0.9146342, -1.2195122, 1.0365853, 0.0330663
-0.9731445, -0.0239258, -0.1469727, 0.1219512, -0.9146342, 0.7926829, 0.0923171
-0.9663086, -0.0214844, -0.1523438, 0.7317073, -0.7926829, 0.8536586, 0.156939
-0.9594727, -0.0126953, -0.1601562, 1.3414634, -0.7926829, 0.8536586, 0.1958801
-0.956543, -0.0073242, -0.1655273, 0.9756098, -1.097561, 1.3414634, 0.2341497
-0.9609375, 0.0004883, -0.1743164, 0.3048781, -1.5853659, 1.5853659, 0.297261
-0.9658203, -0.0004883, -0.1762695, -0.1829268, -1.6463414, 1.3414634, 0.3555047
-0.9672852, 0.0009766, -0.171875, -0.9146342, -2.3780489, 1.7073171, 0.3999847
-0.9770508, 0.0014648, -0.1621094, -1.402439, -2.8658538, 1.402439, 0.4745098
-0.9775391, 0.0048828, -0.1577148, -1.4634147, -3.3536587, 0.9756098, 0.5443351
-0.9765625, -0.0053711, -0.152832, -1.6463414, -3.4146342, 0.6707317, 0.6003967
-0.9736328, -0.0117188, -0.1513672, -1.6463414, -3.2317073, 0.5487805, 0.6373236
-0.9755859, -0.0239258, -0.1411133, -1.8902439, -2.8658538, 0.6707317, 0.680293
-0.9731445, -0.03125, -0.1367188, -1.5853659, -2.804878, 0.6707317, 0.7383688
-0.9667969, -0.0361328, -0.128418, -0.6707317, -1.8902439, 0.8536586, 0.7987945
-0.9692383, -0.0366211, -0.1318359, 0.4268293, -1.2195122, 1.097561, 0.8692912
-0.9697266, -0.0361328, -0.1347656, 2.3170731, -0.9756098, 1.5853659, 0.8766766
-0.9716797, -0.0356445, -0.1499023, 2.9878049, -1.097561, 1.7682927, 0.8948043
-0.9702148, -0.0297852, -0.1533203, 3.4756098, -1.402439, 1.8902439, 0.9317311
-0.9638672, -0.0268555, -0.1552734, 3.2926829, -1.402439, 1.7073171, 0.9700008
-0.9609375, -0.0244141, -0.1582031, 3.4756098, -0.9146342, 1.8292683, 0.9901427
-0.9692383, -0.0258789, -0.1655273, 4.0243902, -1.1585366, 1.8292683, 1.0082704
-0.972168, -0.019043, -0.1669922, 4.390244, -1.402439, 2.0121951, 0.9565728
-0.9677734, -0.0126953, -0.1660156, 4.0243902, -2.3170731, 2.0731707, 0.9038682
-0.9697266, -0.0102539, -0.1611328, 3.8414636, -2.3780489, 2.1341465, 0.9102464
-0.9658203, -0.0058594, -0.1513672, 2.5, -2.7439024, 1.6463414, 0.9068894
-0.9648438, -0.0014648, -0.1464844, 2.0121951, -2.8658538, 1.6463414, 0.9013504
-0.9633789, -0.0004883, -0.1503906, 1.0365853, -2.5609756, 1.5243902, 0.8921187
-0.9672852, 0.0004883, -0.1479492, 0.7317073, -2.5609756, 1.2804878, 0.877348
-0.9702148, 0.0004883, -0.1455078, 0.8536586, -2.6219513, 1.4634147, 0.8088655
-0.9760742, 0.0078125, -0.1494141, 0.7317073, -2.9268293, 1.097561, 0.7789883
-0.9755859, 0.0063477, -0.1513672, 0.7926829, -3.2317073, 0.7926829, 0.7585107
-0.9868164, 0.0024414, -0.1723633, 0.5487805, -3.2317073, 0.1219512, 0.7397116
-0.9912109, -0.0024414, -0.1791992, 0, -3.3536587, 0, 0.7195697
-0.9975586, -0.0175781, -0.1928711, -1.7682927, -4.6951222, -0.1829268, 0.7266194
-0.996582, -0.0249023, -0.1918945, -2.4390244, -5.4268293, -0.1219512, 0.6994278
-1.0029297, -0.0341797, -0.1806641, -2.8658538, -6.0365853, -0.2439024, 0.6285954
-1.003418, -0.0380859, -0.1655273, -2.1341465, -6.280488, -0.3658537, 0.6114748
-0.9980469, -0.0375977, -0.1665039, -0.6707317, -6.5243902, -0.8536586, 0.6087892
-0.9921875, -0.0297852, -0.1738281, 0.3048781, -6.890244, -0.7926829, 0.6054322
-0.9897461, -0.0273438, -0.1860352, 1.2195122, -7.7439027, -0.4878049, 0.5701839
-0.9838867, -0.0288086, -0.1938477, 0.7926829, -8.4146347, -0.4268293, 0.5473564
-0.9790039, -0.0258789, -0.1918945, -0.1829268, -9.6951218, -0.5487805, 0.5508812
-0.9775391, -0.0258789, -0.1791992, -0.3658537, -10.1829271, -0.4268293, 0.5785763
-0.9824219, -0.0292969, -0.1743164, -0.4268293, -10.3048782, -0.7926829, 0.5930114
-0.9780273, -0.0317383, -0.175293, 0.2439024, -11.341464, -0.7317073, 0.5352712
-0.9765625, -0.0336914, -0.1704102, 0.6097561, -11.7682934, -0.8536586, 0.4959945
-0.9702148, -0.0395508, -0.1621094, 1.402439, -12.3780489, -1.2804878, 0.4758526
-0.9716797, -0.0366211, -0.1572266, 1.7682927, -12.3170738, -1.5243902, 0.460914
-0.9741211, -0.0332031, -0.1630859, 3.5365853, -11.8902445, -1.1585366, 0.4671244
-0.9799805, -0.0224609, -0.168457, 4.1463413, -12.2560978, -1.1585366, 0.4758526
-0.9804688, -0.0200195, -0.1665039, 4.4512196, -13.4146347, -0.4268293, 0.4382544
-0.9677734, -0.0136719, -0.1572266, 4.2073174, -14.0853662, 0.1219512, 0.3727932
-0.9609375, -0.012207, -0.1459961, 2.6219513, -14.6341467, -0.6707317, 0.3318379
-0.9609375, -0.0214844, -0.128418, 1.6463414, -14.1463413, -1.3414634, 0.2787976
-0.9584961, -0.0224609, -0.1196289, 1.5243902, -13.9634151, -1.7682927, 0.2267643
-0.9628906, -0.0244141, -0.1240234, 1.9512196, -13.3536587, -1.6463414, 0.1764096
-0.9667969, -0.0268555, -0.1318359, 2.4390244, -13.2317076, -1.5243902, 0.1265583
-0.9770508, -0.0273438, -0.1499023, 2.3170731, -13.2926836, -0.6707317, 0.0340734
-0.980957, -0.0390625, -0.1679688, 1.9512196, -13.5975609, -0.6097561, -0.0412909
-0.9907227, -0.0429688, -0.171875, 0.6097561, -14.0243902, -0.0609756, -0.1277333
-1.0014648, -0.0576172, -0.1743164, 0.6097561, -14.2682934, 0.0609756, -0.2130007
-1.0058594, -0.0556641, -0.168457, 1.097561, -14.6341467, 0.3048781, -0.3123674
-1.0102539, -0.0625, -0.1669922, 1.4634147, -15.1219511, 0.4878049, -0.3922637
-1.0029297, -0.0605469, -0.1650391, 3.1097562, -15.4878054, 0.1829268, -0.5428244
-1.0039062, -0.0498047, -0.1572266, 4.390244, -15.7317076, 0.3048781, -0.7232624
-1, -0.043457, -0.1577148, 5.5487804, -15.9146347, -0.0609756, -0.8471351
-0.996582, -0.0292969, -0.1665039, 6.6463418, -16.0365849, -0.0609756, -0.9617762
-0.996582, -0.0229492, -0.1713867, 6.8292685, -16.4024391, 0.1219512, -1.0606394
-0.9956055, -0.0058594, -0.171875, 6.0975609, -16.8902435, -0.1829268, -1.180148
-0.9868164, 0.0087891, -0.168457, 5.9146342, -17.1951218, -0.3658537, -1.3122454
-0.987793, 0.0136719, -0.175293, 5.4878049, -17.2560978, -1.402439, -1.4453498
-0.996582, 0.0253906, -0.1904297, 5.2439027, -17.5, -1.3414634, -1.5578088
-0.9946289, 0.0317383, -0.2001953, 4.390244, -18.3536587, -2.1341465, -1.6521401
-0.9951172, 0.0141602, -0.215332, 3.5975611, -18.8414631, -2.2560976, -1.7867552
-0.9916992, 0.0009766, -0.2172852, 2.9268293, -19.8780499, -2.1341465, -1.8753796
-1, -0.0253906, -0.2070312, 2.9878049, -21.7073174, -1.4634147, -1.9438621
-1.0039062, -0.0400391, -0.2036133, 3.3536587, -22.8048782, -1.097561, -2.0239261
-1.0019531, -0.0517578, -0.199707, 4.8170733, -23.0487804, -0.6707317, -2.1070115
-1.0039062, -0.0556641, -0.1928711, 5.4878049, -23.2317085, -0.1219512, -2.1580377
-1.0117188, -0.0585938, -0.1728516, 7.6829271, -23.9634151, 0.1829268, -2.2391089
-1.0126953, -0.059082, -0.1733398, 8.4756098, -24.5121956, 0.0609756, -2.3196765
-1.0063477, -0.0605469, -0.1767578, 9.8170738, -24.0243912, 0.0609756, -2.3663386
-1.0107422, -0.0527344, -0.1938477, 10, -23.4146347, 0.1219512, -2.4091402
-1.015625, -0.0419922, -0.2133789, 10.4268293, -22.8658543, 0.9756098, -2.4232395
-1.0224609, -0.0239258, -0.2392578, 10.5487804, -23.1707325, 1.7682927, -2.4098116
-1.0302734, -0.0107422, -0.2368164, 10.7317076, -24.9390259, 3.1707318, -2.3567712
-1.0327148, -0.0029297, -0.2260742, 11.341464, -27.0121956, 4.8170733, -2.3611353
-1.0356445, 0.0019531, -0.21875, 11.5853662, -27.8658543, 4.7560978, -2.3460288
-1.0395508, 0.0009766, -0.2412109, 11.280488, -28.4146347, 5.0609756, -2.310277
-1.0400391, -0.0058594, -0.265625, 10.9146347, -28.1097565, 5.0609756, -2.2850996
-1.0620117, -0.019043, -0.3041992, 10.7926836, -28.9024391, 5.7926831, -2.2636149
-1.0869141, -0.0380859, -0.3164062, 11.4634151, -30.1829281, 6.1585369, -2.1914397
-1.1015625, -0.0444336, -0.3105469, 14.8170738, -33.2317085, 7.4390244, -2.1459525
-1.1230469, -0.0566406, -0.2885742, 17.439024, -34.8780479, 7.9878049, -2.123125
-1.1254883, -0.0649414, -0.2739258, 21.7682934, -38.2317085, 8.841464, -2.0668956
-1.1040039, -0.0791016, -0.2231445, 25, -40.0609779, 8.9024391, -2.0143587
-1.0917969, -0.0913086, -0.1899414, 26.4024391, -40.0609779, 8.9634151, -1.9502403
-1.0683594, -0.0986328, -0.1191406, 29.0243912, -38.1097565, 9.1463413, -1.9106279
-1.059082, -0.0932617, -0.0888672, 30.6097565, -36.2195129, 9.6951218, -1.8743725
-1.0532227, -0.0620117, -0.0654297, 34.6341476, -31.6463413, 11.0365858, -1.8310674
-1.043457, -0.0366211, -0.0786133, 36.7682953, -29.5121956, 11.8292685, -1.7951476
-1.043457, 0.0078125, -0.1411133, 39.8170738, -25.8536587, 13.9634151, -1.7293507
-1.0620117, 0.0478516, -0.1953125, 40.6707344, -25, 15.1829271, -1.6984665
-1.0727539, 0.0600586, -0.2114258, 40.7317085, -25.9756107, 16.280489, -1.6335088
-1.0917969, 0.0727539, -0.2192383, 40, -26.5853672, 16.3414631, -1.5779507
-1.1010742, 0.0693359, -0.21875, 38.7804871, -27.0731716, 15.4268293, -1.5265888
-1.1196289, 0.0424805, -0.2299805, 38.9634171, -25.8536587, 14.4512196, -1.4920119
-1.1308594, 0.0302734, -0.2456055, 39.3292694, -24.8780499, 14.5731707, -1.4557565
-1.152832, 0.0063477, -0.2802734, 41.5853653, -24.3292694, 16.1585369, -1.4423285
-1.1606445, -0.0014648, -0.2817383, 42.5, -24.7560978, 17.3170738, -1.4299077
-1.1630859, -0.0019531, -0.2475586, 45.2439041, -25.7317085, 19.8170738, -1.3691463
-1.1586914, 0.0043945, -0.2207031, 47.0731735, -24.6951218, 20.6097565, -1.3140917
-1.1430664, 0.0302734, -0.1782227, 51.2195129, -21.2195129, 21.5243912, -1.282536
-1.1132812, 0.0683594, -0.1806641, 53.1707344, -19.2073174, 21.8902435, -1.2439307
-1.0981445, 0.0820312, -0.1953125, 55.18293, -15.4268293, 22.8048782, -1.1898833
-1.0717773, 0.1000977, -0.2363281, 55.3658562, -13.841464, 23.1097565, -1.1806516
-1.0668945, 0.1118164, -0.2543945, 54.1463432, -12.0731707, 23.2317085, -1.1371786
-1.0776367, 0.1367188, -0.2714844, 52.6829262, -12.3780489, 24.3902435, -1.0680247
-1.0854492, 0.1547852, -0.2753906, 52.0731735, -12.8658543, 25.060976, -1.0139773
-1.0961914, 0.1630859, -0.2988281, 51.7682953, -12.8658543, 24.7560978, -0.9454948
-1.1035156, 0.1591797, -0.3212891, 51.9512215, -12.7439032, 24.5731716, -0.8437781
-1.1420898, 0.1542969, -0.359375, 52.2560997, -12.9878054, 24.1463413, -0.8051728
-1.1669922, 0.152832, -0.3691406, 52.6829262, -14.0853662, 23.9634151, -0.7595178
-1.2036133, 0.1582031, -0.3461914, 52.2560997, -16.4634151, 24.7560978, -0.6641794
-1.2041016, 0.1723633, -0.2915039, 52.0121956, -16.7073174, 24.8170738, -0.5909972
-1.2016602, 0.1894531, -0.2739258, 51.5853653, -13.4756098, 24.6341476, -0.4956588
-1.1889648, 0.2148438, -0.2626953, 51.5243912, -10.3658543, 24.5121956, -0.3979706
-1.1796875, 0.21875, -0.2744141, 50, -5.1219511, 25.1829281, -0.2996109
-1.1455078, 0.2041016, -0.2954102, 47.0121956, -2.2560976, 26.7073174, -0.1592889
-1.121582, 0.1943359, -0.2993164, 45.5487823, -1.5243902, 27.1341476, -0.0219883
-1.0834961, 0.1533203, -0.2836914, 44.1463432, 0.3658537, 27.4390259, 0.1017166
-1.0737305, 0.1391602, -0.2700195, 45, 1.7682927, 27.6829281, 0.1643244
-1.0644531, 0.1416016, -0.2519531, 48.7804871, 5.3658538, 28.2926826, 0.2633555
-1.0551758, 0.1513672, -0.2529297, 50.6707344, 7.1951222, 29.3292694, 0.3754788
-1.0356445, 0.1767578, -0.2734375, 52.1341476, 10, 31.6463413, 0.507744
-1.0200195, 0.1899414, -0.2822266, 51.9512215, 11.4024391, 32.8048782, 0.6390021
-1.0239258, 0.1923828, -0.2734375, 50.1219521, 13.2926836, 34.0243912, 0.7786526
-1.0288086, 0.1967773, -0.2792969, 49.2073174, 14.3902445, 34.7560997, 0.86392
-1.0424805, 0.1992188, -0.2915039, 48.7804871, 18.7195129, 35.6707344, 0.9156176
-1.0883789, 0.2265625, -0.331543, 48.6585388, 22.7439022, 37.1341476, 1.0203555
-1.1118164, 0.2412109, -0.3422852, 48.4756126, 23.780489, 38.1097565, 1.1120012
-1.1347656, 0.2719727, -0.328125, 47.1951218, 25.3048782, 39.0853653, 1.1908904
-1.1357422, 0.277832, -0.3076172, 46.5853653, 26.6463413, 38.9024391, 1.2764935
-1.1352539, 0.2924805, -0.2817383, 45.8536606, 32.4390259, 38.0487823, 1.366125
-1.1235352, 0.3056641, -0.309082, 45.3658562, 35.9756088, 38.2317085, 1.3748531
-1.1132812, 0.3037109, -0.3256836, 42.2560997, 42.0121956, 39.5731735, 1.3996948
-1.0839844, 0.2851562, -0.3662109, 40.4878044, 43.9634171, 40.6707344, 1.4550851
-1.0786133, 0.2719727, -0.3847656, 36.4024391, 46.8902435, 41.2804871, 1.4779126
-1.0961914, 0.2685547, -0.409668, 34.3902435, 47.8048782, 40.9756088, 1.4822766
-1.1162109, 0.277832, -0.4106445, 32.9268303, 49.3902435, 41.2804871, 1.493019
-1.1474609, 0.2890625, -0.3994141, 31.2195129, 50.1219521, 42.1341476, 1.4423285
-1.1538086, 0.2929688, -0.4013672, 30.1219521, 51.4024391, 42.2560997, 1.3667964
-1.1523438, 0.3017578, -0.3984375, 27.5, 54.4512215, 42.0731735, 1.3610895
-1.152832, 0.300293, -0.3916016, 25.9146347, 56.0975609, 42.1341476, 1.341619
-1.140625, 0.2885742, -0.3813477, 23.7195129, 60.2439041, 41.4024391, 1.331548
-1.1269531, 0.2651367, -0.394043, 23.3536587, 62.2560997, 41.0975609, 1.2728008
-1.1381836, 0.262207, -0.4130859, 22.3170738, 65.8536606, 40.9756088, 1.204654
-1.1469727, 0.2724609, -0.4316406, 21.5853672, 67.3170776, 42.0731735, 1.1653773
-1.1450195, 0.2714844, -0.4321289, 19.4512196, 69.5121994, 43.4756126, 1.1462425
-1.1474609, 0.2817383, -0.4208984, 18.4146347, 70.6707306, 43.4146347, 1.1240864
-1.1503906, 0.293457, -0.4204102, 17.6219521, 74.6341476, 43.1097565, 1.056611
-1.1474609, 0.3115234, -0.4321289, 16.280489, 79.6341476, 43.2926826, 1.0250553
-1.1416016, 0.3164062, -0.4438477, 15.1829271, 81.7682953, 43.1097565, 1.0039063
-1.1289062, 0.3120117, -0.4624023, 13.9024391, 85.3048782, 42.7439041, 0.9579156
-1.1254883, 0.3022461, -0.4755859, 13.2926836, 86.9512253, 42.6219521, 0.9156176
-1.1152344, 0.2832031, -0.4838867, 12.0121956, 89.6951218, 43.0487823, 0.8993362
-1.1166992, 0.2670898, -0.4824219, 11.8292685, 90.9146347, 43.2317085, 0.8558633
-1.1235352, 0.2670898, -0.4882812, 11.280488, 93.7195129, 43.9024391, 0.8041657
-1.1308594, 0.2714844, -0.4931641, 10.7926836, 95.6097565, 44.6341476, 0.7981231
-1.1367188, 0.2709961, -0.5024414, 9.5121956, 99.2073212, 45.7317085, 0.7934234
-1.1347656, 0.2724609, -0.5200195, 8.9634151, 100.8536606, 46.0365868, 0.7945983
-1.1347656, 0.2714844, -0.5302734, 7.8658538, 104.2073212, 46.0975609, 0.8330358
-1.1342773, 0.2739258, -0.546875, 6.890244, 106.9512253, 46.6463432, 0.873991
-1.1333008, 0.2651367, -0.5488281, 6.4634147, 107.68293, 46.9512215, 0.8363928
-1.1152344, 0.2451172, -0.5361328, 6.3414636, 108.7804871, 46.9512215, 0.8310216
-1.1074219, 0.2299805, -0.53125, 6.1585369, 109.5731735, 46.5243912, 0.8397498
-1.1137695, 0.2177734, -0.5073242, 5.0609756, 112.4390259, 47.0121956, 0.8588846
-1.1079102, 0.2319336, -0.5083008, 4.7560978, 114.5121994, 47.6219521, 0.9068894
-1.0996094, 0.2416992, -0.5229492, 4.1463413, 119.6341476, 48.9024391, 0.9592584
-1.0878906, 0.2548828, -0.5620117, 4.2073174, 121.5243912, 49.8170738, 0.9582513
-1.0927734, 0.265625, -0.574707, 4.0853658, 123.3536606, 50.6707344, 0.9214923
-1.0898438, 0.2651367, -0.5908203, 3.4756098, 123.2317123, 51.1585388, 0.9189746
-1.0825195, 0.2539062, -0.5976562, 1.7073171, 123.6585388, 50.7317085, 0.9134356
-1.081543, 0.2197266, -0.6035156, 0.2439024, 125.36586, 50, 0.916289
-1.090332, 0.2055664, -0.5981445, -0.3048781, 126.0975647, 50.1829262, 0.8978256
-1.0922852, 0.1875, -0.5952148, 0.4268293, 126.8292694, 52.0731735, 0.8860761
-1.0834961, 0.1821289, -0.5966797, 0.6707317, 127.2561035, 53.3536606, 0.8890974
-1.0708008, 0.1875, -0.5849609, 1.5853659, 128.4756165, 55.4878044, 0.8946365
-1.0639648, 0.2143555, -0.5600586, 2.3170731, 129.3292694, 56.2804909, 0.8874189
-1.0576172, 0.2285156, -0.5522461, 3.5975611, 131.7682953, 57.5609779, 0.8498207
-1.0371094, 0.2583008, -0.5668945, 3.6585367, 133.4146423, 57.5609779, 0.8256504
-1.0258789, 0.2709961, -0.5913086, 1.9512196, 136.9512177, 57.5, 0.7863737
-1.012207, 0.2792969, -0.6455078, 0.3658537, 138.5975647, 58.0487823, 0.7148699
-1.0112305, 0.2744141, -0.6611328, -2.4390244, 139.3902435, 58.3536606, 0.624567
-1.0234375, 0.2490234, -0.6586914, -2.9878049, 137.8048859, 58.7195129, 0.5664912
-1.0356445, 0.2319336, -0.6479492, -2.7439024, 136.8902435, 58.841465, 0.4906233
-1.0546875, 0.2143555, -0.6401367, -1.402439, 138.1707306, 58.6585388, 0.3944457
-1.0678711, 0.215332, -0.652832, -0.9756098, 139.3292694, 59.2073174, 0.3409018
-1.0883789, 0.2216797, -0.6606445, -0.4268293, 141.2195129, 61.0365868, 0.2492561
-1.0859375, 0.230957, -0.6586914, -0.0609756, 141.5243988, 62.2560997, 0.1576104
-1.0708008, 0.2329102, -0.6484375, -0.9146342, 142.2561035, 62.9878082, 0.0924849
-1.0366211, 0.2304688, -0.6337891, -1.1585366, 142.1951294, 62.8658562, 0.0374304
-1.0175781, 0.2382812, -0.6347656, -1.7682927, 144.2073212, 62.0731735, -0.0468299
-1.0024414, 0.2539062, -0.6557617, -1.9512196, 145.7926788, 61.7682953, -0.0793927
-1.0004883, 0.2592773, -0.6645508, -3.1707318, 147.7439117, 62.5609779, -0.1089342
-0.9912109, 0.2680664, -0.6899414, -4.2682929, 148.7195129, 63.9634171, -0.1411612
-0.984375, 0.2641602, -0.703125, -4.7560978, 149.146347, 64.2073212, -0.1675135
-0.9956055, 0.2446289, -0.7026367, -5.1219511, 149.2073212, 64.5121994, -0.1747311
-1.003418, 0.2260742, -0.6982422, -5.1829271, 148.2317047, 64.5121994, -0.2210575
-1.0219727, 0.206543, -0.6787109, -5.5487804, 149.0243988, 64.9390259, -0.2834974
-1.0498047, 0.2148438, -0.675293, -5.1829271, 150.2439117, 65.5487823, -0.2895399
-1.0605469, 0.2304688, -0.6904297, -4.6341462, 154.0853729, 68.0487823, -0.3049821
-1.065918, 0.2592773, -0.7358398, -4.8170733, 155.6097565, 69.3902435, -0.2918898
-1.0620117, 0.2729492, -0.762207, -5.0609756, 156.5243988, 71.7073212, -0.2747692
-1.0483398, 0.2758789, -0.8076172, -7.6219516, 154.8170776, 72.4390259, -0.2351568
-1.0449219, 0.2680664, -0.8125, -8.9024391, 153.4756165, 72.1951218, -0.1942016
-1.0566406, 0.237793, -0.7675781, -9.7560978, 150.6707306, 72.0121994, -0.1522393
-1.0654297, 0.230957, -0.7358398, -9.3292685, 149.3902435, 72.0121994, -0.1122911
-1.0595703, 0.2324219, -0.7006836, -8.2926826, 151.0365906, 72.7439041, -0.1294118
-1.046875, 0.2431641, -0.7192383, -7.9878049, 153.7195129, 73.4756088, -0.0834211
-1.0415039, 0.2539062, -0.8085938, -8.9024391, 158.1097565, 75.18293, -0.0077211
-1.0698242, 0.25, -0.8657227, -9.5731707, 157.1951294, 76.4024429, 0.0515297
-1.0878906, 0.2578125, -0.8564453, -10.2439022, 150.4268341, 78.5975647, 0.1018845
-1.097168, 0.2949219, -0.7788086, -10.5487804, 147.6829376, 79.8170776, 0.1502251
-1.0786133, 0.3105469, -0.7446289, -10.060976, 146.9512177, 80.2439041, 0.1592889
-1.0200195, 0.3217773, -0.7451172, -11.5243902, 151.0365906, 77.3170776, 0.1599603
-1.0019531, 0.3173828, -0.7744141, -13.5975609, 152.7439117, 75.7317123, 0.1895018
-0.9951172, 0.2851562, -0.8251953, -17.0121956, 153.6585388, 74.9390259, 0.2079652
-1.0009766, 0.2675781, -0.8256836, -17.2560978, 152.8048859, 75.7926865, 0.230457
-1.0229492, 0.2592773, -0.7905273, -15, 150.6097565, 78.4756088, 0.2586557
-1.0234375, 0.265625, -0.7670898, -13.5365858, 149.6951294, 79.8170776, 0.2747692
-1.0043945, 0.2851562, -0.7397461, -13.5365858, 150.6707306, 80.1219559, 0.2197147
-0.9853516, 0.3183594, -0.7724609, -14.6341467, 152.7439117, 79.5121994, 0.2205539
-0.9790039, 0.3276367, -0.7963867, -18.0487804, 156.2804871, 79.5121994, 0.216022
-0.96875, 0.3256836, -0.8491211, -19.4512196, 156.5243988, 79.6951218, 0.1864805
-0.9711914, 0.3251953, -0.8662109, -21.0975609, 154.3292694, 80.1219559, 0.1277333
-0.980957, 0.3310547, -0.855957, -21.3414631, 151.3414612, 80.7926865, 0.0844282
-0.9858398, 0.3408203, -0.8515625, -20.9756107, 150.5487823, 81.1585388, 0.0146029
-0.9824219, 0.3583984, -0.8588867, -22.1951218, 150.6707306, 80.7926865, -0.0746929
-0.9829102, 0.3637695, -0.8598633, -22.9268303, 150.7317047, 80.4878082, -0.0975204
-0.9736328, 0.3598633, -0.8413086, -24.3902435, 150, 79.8780518, -0.1401541
-0.9584961, 0.3388672, -0.8300781, -24.6341476, 149.6951294, 79.0853653, -0.2020905
-0.9375, 0.3129883, -0.7998047, -24.2073174, 150.4268341, 77.0731735, -0.2841688
-0.9213867, 0.2998047, -0.7880859, -23.5975609, 151.7073212, 77.0121994, -0.3506371
-0.9140625, 0.3056641, -0.8032227, -21.7682934, 153.7804871, 77.7439041, -0.3774929
-0.9165039, 0.3295898, -0.8339844, -20.9146347, 154.7561035, 78.6585388, -0.3808499
-0.9140625, 0.3476562, -0.8300781, -21.4024391, 154.9390259, 81.0365906, -0.3855497
-0.8950195, 0.3862305, -0.8076172, -21.7682934, 153.9024353, 81.5243912, -0.4459754
-0.8808594, 0.3994141, -0.8071289, -22.6829281, 154.5121918, 81.0365906, -0.4654459
-0.8496094, 0.4023438, -0.8369141, -25.7926826, 156.7682953, 78.1097565, -0.4865949
-0.8491211, 0.3886719, -0.8417969, -27.3170738, 157.0121918, 77.0731735, -0.5211719
-0.8447266, 0.3530273, -0.8374023, -28.4756107, 155.4268341, 75.8536606, -0.5403067
-0.8339844, 0.3344727, -0.8422852, -28.7195129, 155.3048859, 75.7926865, -0.5228504
-0.8442383, 0.3271484, -0.8823242, -28.841465, 156.2804871, 77.68293, -0.5580987
-0.862793, 0.3530273, -0.9140625, -29.5121956, 156.1585388, 78.9634171, -0.6044251
-0.8588867, 0.3515625, -0.921875, -30.6097565, 153.5975647, 81.5853653, -0.5963684
-0.8500977, 0.359375, -0.9135742, -31.0975609, 152.0121918, 81.7073212, -0.5725338
-0.8500977, 0.3676758, -0.9033203, -32.1341476, 150.2439117, 80.9756088, -0.5273823
-0.828125, 0.3950195, -0.8598633, -33.0487823, 149.7561035, 80.5487823, -0.4745098
-0.8056641, 0.3999023, -0.8491211, -33.7195129, 150.0609741, 80.4878082, -0.4171054
-0.7368164, 0.4013672, -0.8701172, -36.8902435, 152.5, 79.3902435, -0.4298619
-0.7192383, 0.3916016, -0.8925781, -38.6585388, 153.5975647, 79.0243912, -0.4060273
-0.7163086, 0.3588867, -0.9296875, -40.6097565, 153.7195129, 79.5731735, -0.3331807
-0.7265625, 0.3417969, -0.9423828, -40, 152.5, 80.5487823, -0.2626841
-0.7592773, 0.3330078, -0.9389648, -38.0487823, 149.146347, 84.0853653, -0.2052796
-0.7709961, 0.3266602, -0.8925781, -36.8292694, 147.0731812, 84.4512253, -0.1331044
-0.7729492, 0.34375, -0.8774414, -35.3048782, 147.0121918, 84.6951218, -0.1364614
-0.762207, 0.3671875, -0.8979492, -34.8780479, 148.9024353, 84.7560959, -0.1722133
-0.7602539, 0.3666992, -0.9140625, -35.3048782, 152.8048859, 85.3048782, -0.1505608
-0.7353516, 0.3686523, -0.9267578, -36.0975609, 151.4024353, 85.6097565, -0.1438468
-0.7211914, 0.3706055, -0.9165039, -36.0975609, 150.36586, 85.7926865, -0.1253834
-0.6723633, 0.390625, -0.8964844, -35.7926826, 150.5487823, 86.1585388, -0.1183337
-0.6557617, 0.4033203, -0.9023438, -36.2195129, 151.9512177, 85.9756088, -0.1203479
-0.6293945, 0.4150391, -0.9160156, -37.2560997, 153.5365906, 85.8536606, -0.1285725
-0.6210938, 0.3925781, -0.9267578, -37.9268303, 152.9268341, 85.5487823, -0.1257191
-0.6245117, 0.3837891, -0.9194336, -39.1463432, 152.1951294, 84.4512253, -0.1143053
-0.6484375, 0.3959961, -0.8901367, -39.2682953, 152.2561035, 84.6951218, -0.1733883
-0.6489258, 0.4091797, -0.8945312, -38.2926826, 153.5975647, 86.0365906, -0.2113222
-0.6274414, 0.4257812, -0.9287109, -38.4146347, 155.1829376, 86.8292694, -0.2633555
-0.6230469, 0.4204102, -0.9331055, -39.6951218, 156.5243988, 86.8902435, -0.3268025
-0.597168, 0.3945312, -0.9150391, -41.2804871, 155.4268341, 85.4268341, -0.3721218
-0.581543, 0.378418, -0.9160156, -41.5853653, 155.7317047, 84.2682953, -0.3838712
-0.5742188, 0.3662109, -0.9296875, -41.4634171, 158.4146423, 84.2682953, -0.4298619
-0.5854492, 0.3662109, -0.9414062, -40.6707344, 158.5975647, 85.4268341, -0.4931411
-0.5869141, 0.3847656, -0.9746094, -38.7804871, 157.5609741, 88.5365906, -0.5389639
-0.578125, 0.4023438, -1.0068359, -38.9024391, 157.6219482, 89.8780518, -0.5896544
-0.5703125, 0.4013672, -1.0136719, -39.7560997, 155.9146423, 91.2195129, -0.6529335
-0.546875, 0.3671875, -0.9819336, -40.4268303, 154.3292694, 90.8536606, -0.6987564
-0.5288086, 0.34375, -0.9560547, -40.9146347, 151.7073212, 88.3536606, -0.7272908
-0.5092773, 0.3208008, -0.9570312, -41.0365868, 152.6219482, 87.8048782, -0.8162509
-0.5063477, 0.3208008, -0.9824219, -39.1463432, 155.36586, 89.9390259, -0.8793622
-0.5078125, 0.3251953, -1.0322266, -38.1097565, 155.1829376, 95.18293, -0.9008469
-0.503418, 0.3325195, -1.0390625, -37.5609779, 153.4146423, 97.8048782, -0.905211
-0.4960938, 0.3476562, -1.0019531, -35.7317085, 148.8414612, 100.6707306, -0.8931258
-0.4780273, 0.3623047, -0.972168, -34.6341476, 148.2317047, 100.7926865, -0.8404211
-0.4550781, 0.3862305, -0.9506836, -33.5365868, 150.4268341, 99.4512253, -0.8125582
-0.4384766, 0.4003906, -0.9946289, -33.9024391, 152.2561035, 98.6585388, -0.8300145
-0.4316406, 0.40625, -1.0185547, -36.4024391, 153.6585388, 99.5731735, -0.7967803
-0.4101562, 0.4072266, -1.0390625, -37.1951218, 153.1097565, 100.6707306, -0.7709316
-0.3994141, 0.4018555, -1.0332031, -37.9878044, 150.9146423, 102.2561035, -0.7194018
-0.3925781, 0.3999023, -0.9931641, -37.6829262, 150.1219482, 102.9268341, -0.6708934
-0.3886719, 0.40625, -0.9643555, -36.0975609, 149.0853729, 102.3780518, -0.6319524
-0.3789062, 0.418457, -0.9570312, -35.8536606, 151.646347, 101.2195129, -0.6017395
-0.3754883, 0.4267578, -0.9731445, -36.5853653, 153.9024353, 100.7317123, -0.5671626
-0.3740234, 0.4443359, -0.9946289, -37.6219521, 156.2195129, 101.2195129, -0.5252003
-0.3691406, 0.4536133, -0.9926758, -38.0487823, 155.8536682, 101.9512253, -0.5037156
-0.3291016, 0.4506836, -0.9785156, -38.9024391, 155, 102.2561035, -0.4508431
-0.3061523, 0.4321289, -0.9555664, -39.2682953, 155.6097565, 101.7682953, -0.3783322
-0.3051758, 0.4179688, -0.9604492, -40.3048782, 157.8048859, 99.9390259, -0.3214313
-0.3256836, 0.3911133, -0.9848633, -40.8536606, 158.8414612, 99.7561035, -0.2915541
-0.3422852, 0.3876953, -0.9804688, -41.2195129, 160.1219482, 100.4878082, -0.2354925
-0.3510742, 0.3881836, -0.9619141, -40.3658562, 159.7561035, 101.646347, -0.2170291
-0.3364258, 0.3950195, -0.9936523, -38.6585388, 160.6097565, 103.9024429, -0.2252537
-0.3339844, 0.4003906, -1.0893555, -38.9024391, 163.4146423, 105.5487823, -0.2012512
-0.3520508, 0.3950195, -1.1147461, -39.8170738, 162.0731812, 106.5853653, -0.1770809
-0.3745117, 0.3891602, -1.0810547, -39.3292694, 154.6951294, 108.9024429, -0.1542535
-0.3740234, 0.3896484, -1.043457, -38.841465, 152.0121918, 109.3902435, -0.13579
-0.347168, 0.3989258, -0.9868164, -37.0731697, 152.6219482, 109.2073212, -0.1210193
-0.3203125, 0.4003906, -1.0175781, -37.0121956, 154.4512177, 108.9024429, -0.1613031
-0.3134766, 0.4038086, -1.0390625, -37.3170738, 156.7682953, 109.3902435, -0.1733883
-0.2958984, 0.4072266, -1.0410156, -38.0487823, 155.7926941, 110.4268341, -0.188159
-0.2836914, 0.4140625, -1.0234375, -36.7073174, 152.8048859, 112.5609818, -0.2435492
-0.2568359, 0.4350586, -1.0136719, -35.7926826, 152.3780518, 113.2317123, -0.2824903
-0.2475586, 0.4462891, -1.0224609, -34.5731697, 152.6219482, 113.8414688, -0.2885328
-0.2421875, 0.4516602, -1.0488281, -35.6707344, 152.6829376, 113.3536606, -0.3268025
-0.2460938, 0.4487305, -1.0415039, -36.1585388, 151.9512177, 113.1097565, -0.3889067
-0.2441406, 0.4165039, -0.9697266, -35.7317085, 149.6341553, 111.8902435, -0.4181125
-0.2353516, 0.4072266, -0.9228516, -34.5731697, 149.2682953, 111.1585388, -0.4775311
-0.2041016, 0.4243164, -0.8720703, -31.8292694, 153.7804871, 110.36586, -0.5171435
-0.1635742, 0.465332, -0.9404297, -31.4024391, 157.0121918, 110.36586, -0.5614557
-0.1469727, 0.4780273, -0.9980469, -32.8658562, 161.4634247, 111.8902435, -0.5967041
-0.1450195, 0.4912109, -1.0537109, -34.3902435, 161.7073212, 112.68293, -0.6061036
-0.1606445, 0.4936523, -1.0380859, -36.0975609, 157.1341553, 112.9268341, -0.5983825
-0.1933594, 0.5078125, -0.9609375, -35.9756088, 154.6341553, 112.0121994, -0.6019074
-0.206543, 0.5097656, -0.9282227, -35.4268303, 154.6951294, 107.9268341, -0.6487373
-0.2104492, 0.4980469, -0.9145508, -35.4268303, 158.9024353, 104.3292694, -0.662501
-0.2045898, 0.4882812, -0.9257812, -35.8536606, 160.8536682, 102.8048782, -0.66804
-0.199707, 0.4501953, -0.9599609, -37.3170738, 162.3170776, 101.646347, -0.6749218
-0.2016602, 0.4301758, -0.9731445, -37.8048782, 162.4390259, 102.3780518, -0.6648508
-0.2055664, 0.4326172, -0.9960938, -36.7073174, 162.3780518, 104.146347, -0.634638
-0.2363281, 0.4472656, -1.012207, -35.4878044, 162.1341553, 105.1219559, -0.6373236
-0.2480469, 0.4555664, -1.0043945, -34.4512215, 159.5121918, 105.7926865, -0.642359
-0.2661133, 0.4526367, -0.9853516, -34.5121956, 157.9878082, 104.7561035, -0.5859617
-0.2734375, 0.4379883, -0.9926758, -35.2439041, 157.0731812, 102.3170776, -0.5184863
-0.2939453, 0.4033203, -1.0395508, -36.0365868, 158.1097565, 100.7926865, -0.4508431
-0.3183594, 0.3969727, -1.0546875, -35, 157.0121918, 102.1951218, -0.3972992
-0.3496094, 0.4208984, -1.0385742, -32.3780479, 151.4634247, 106.2804871, -0.3479515
-0.3457031, 0.4389648, -1.0268555, -30.9756107, 149.0243988, 107.5, -0.3432517
-0.3120117, 0.4589844, -1.0288086, -30.2439022, 146.646347, 107.5609818, -0.2774548
-0.2998047, 0.4506836, -1.0400391, -30.5487804, 146.0975647, 106.0975647, -0.1905089
-0.3134766, 0.4277344, -1.0493164, -30.6707325, 142.86586, 103.3536606, -0.1216907
-0.3339844, 0.4165039, -1.0400391, -29.7560978, 140.2439117, 102.9268341, -0.0652934
-0.3427734, 0.4223633, -1.03125, -26.0365868, 135.4878082, 104.5731735, -0.0001678
-0.3354492, 0.440918, -0.9902344, -23.780489, 133.7195129, 105.1219559, 0.0119173
-0.3183594, 0.4458008, -0.953125, -21.5243912, 130.4878082, 105.0609818, 0.0072175
-0.2480469, 0.4335938, -0.8071289, -21.5243912, 129.6341553, 101.2195129, 0.0397803
-0.2041016, 0.4238281, -0.7226562, -21.8902435, 131.4024353, 97.8658524, 0.072343
-0.0932617, 0.4243164, -0.6767578, -21.8902435, 141.8292694, 92.0121994, 0.1122911
-0.0527344, 0.4277344, -0.7216797, -22.1951218, 147.9268341, 90.7317123, 0.1364614
-0.012207, 0.4306641, -0.8110352, -24.0243912, 152.7439117, 92.1341476, 0.1408255
-0.0063477, 0.4516602, -0.8168945, -24.5731716, 151.1585388, 93.8414688, 0.1519036
0.0166016, 0.5112305, -0.8173828, -24.8780499, 149.0853729, 95.9756088, 0.1787594
-0.0029297, 0.5341797, -0.8251953, -24.9390259, 150.4268341, 95.0609741, 0.1851377
-0.0317383, 0.5268555, -0.8520508, -26.7073174, 151.646347, 88.5975647, 0.1297475
-0.1142578, 0.4736328, -0.8828125, -28.5975609, 151.4634247, 85, 0.0958419
-0.1513672, 0.4399414, -0.8706055, -31.5853672, 149.6951294, 79.8170776, 0.0750286
-0.1982422, 0.362793, -0.8105469, -30.7926846, 148.4756165, 78.7195129, 0.0609293
-0.1958008, 0.3398438, -0.7939453, -29.2682934, 149.3292694, 79.146347, 0.0481727
-0.1699219, 0.3354492, -0.8320312, -25.7317085, 153.4146423, 81.5853653, 0.0599222
-0.1645508, 0.3452148, -0.855957, -24.5731716, 154.3292694, 82.8658524, 0.0146029
-0.1235352, 0.3662109, -0.8583984, -23.780489, 150.9756165, 85.6097565, -0.0726787
-0.0932617, 0.3745117, -0.8447266, -23.4146347, 149.0243988, 85.6097565, -0.1099413
-0.0463867, 0.3916016, -0.8232422, -23.5365868, 148.9634247, 84.0853653, -0.1445182
-0.0283203, 0.3979492, -0.8583984, -23.5975609, 150, 82.9878082, -0.1727169
-0.027832, 0.387207, -0.8793945, -23.9024391, 149.9390259, 82.2560959, -0.1760739
-0.0532227, 0.3740234, -0.8603516, -23.4146347, 148.6585388, 82.2560959, -0.1653315
-0.0566406, 0.3676758, -0.831543, -21.2195129, 143.9634247, 84.0853653, -0.2140078
-0.0356445, 0.3481445, -0.8037109, -19.1463413, 142.9268341, 84.4512253, -0.2190433
-0.0219727, 0.3300781, -0.8007812, -18.7195129, 143.4756165, 84.0853653, -0.2156863
-0.0146484, 0.3081055, -0.7705078, -18.1097565, 142.9268341, 82.8048782, -0.2150149
-0.0024414, 0.3007812, -0.7255859, -17.5, 141.646347, 83.1707306, -0.1972229
0.065918, 0.3095703, -0.6547852, -14.5121956, 141.9512177, 84.0243912, -0.1478752
0.1123047, 0.3212891, -0.6479492, -13.3536587, 144.4512177, 84.146347, -0.1520714
0.1762695, 0.3349609, -0.6713867, -13.780488, 149.8780518, 84.8780518, -0.1629816
0.1982422, 0.3369141, -0.6801758, -14.5121956, 150.9146423, 84.8170776, -0.111284
0.2006836, 0.3486328, -0.6699219, -14.0243902, 150.9146423, 84.5731735, -0.0424659
0.199707, 0.3789062, -0.6762695, -13.4146347, 151.2195129, 84.2682953, 0.0417945
0.2045898, 0.3886719, -0.7099609, -12.9878054, 152.9268341, 83.1097565, 0.0918135
0.1884766, 0.4047852, -0.753418, -14.3902445, 153.5365906, 81.7682953, 0.1297475
0.1762695, 0.4116211, -0.7412109, -15.7317076, 152.1341553, 81.0365906, 0.178088
0.1928711, 0.3930664, -0.6806641, -16.5243912, 150.4268341, 78.3536606, 0.2400244
0.2133789, 0.3720703, -0.6679688, -16.2195129, 151.5243988, 76.0365906, 0.3388876
0.2172852, 0.3261719, -0.7231445, -15.9146347, 155.6097565, 72.68293, 0.3748074
0.1826172, 0.3007812, -0.7802734, -15.9146347, 156.3414612, 72.3170776, 0.4442969
0.1689453, 0.2963867, -0.7661133, -14.6951227, 153.7195129, 75.1219559, 0.5164721
0.1821289, 0.3051758, -0.7109375, -12.6829271, 151.8902435, 76.5243912, 0.5671626
0.1894531, 0.3027344, -0.7016602, -9.0853662, 152.6219482, 77.1341476, 0.610132
0.1787109, 0.3125, -0.7319336, -7.9878049, 154.6341553, 75.9756088, 0.6816358
0.1694336, 0.3154297, -0.753418, -7.2560978, 157.3780518, 74.6951218, 0.701442
0.1518555, 0.3208008, -0.7612305, -6.0975609, 155.9756165, 75.18293, 0.7074846
0.1523438, 0.3222656, -0.7460938, -5.5487804, 154.5731812, 75.5487823, 0.7578393
0.1772461, 0.3051758, -0.7285156, -4.4512196, 153.8414612, 75.2439041, 0.7930877
0.1811523, 0.2993164, -0.730957, -4.3292685, 154.7561035, 74.9390259, 0.8162509
0.1728516, 0.3046875, -0.7485352, -3.5975611, 155.6097565, 74.1463394, 0.8572061
0.1606445, 0.3193359, -0.7441406, -2.5, 155.2439117, 74.5121994, 0.8954757
0.1577148, 0.3237305, -0.7426758, 0, 153.6585388, 74.8170776, 0.8504921
0.1743164, 0.3383789, -0.7548828, 0.1219512, 152.6219482, 74.6951218, 0.8363928
0.1821289, 0.3378906, -0.7587891, -2.5, 151.2804871, 73.5365906, 0.8115511
0.2080078, 0.3139648, -0.7260742, -4.2682929, 149.6341553, 72.68293, 0.7880522
0.21875, 0.3012695, -0.6831055, -6.8292685, 146.2804871, 70.6097565, 0.7813382
0.2397461, 0.2841797, -0.5854492, -6.3414636, 146.0975647, 67.9878082, 0.8008087
0.2509766, 0.2827148, -0.5561523, -5.3048782, 147.4390259, 67.0121994, 0.779324
0.2724609, 0.3017578, -0.5668945, -4.6341462, 151.7073212, 65.9146347, 0.7094987
0.2783203, 0.3061523, -0.5908203, -4.4512196, 153.0487823, 65.7926865, 0.6725719
0.2998047, 0.2993164, -0.6176758, -7.3780489, 152.0121918, 65.7317123, 0.642359
0.324707, 0.2592773, -0.5805664, -8.2317076, 150.4878082, 65, 0.6191958
0.3276367, 0.2470703, -0.5585938, -7.1341467, 149.3902435, 62.3780518, 0.5973754
0.324707, 0.2387695, -0.5581055, -5.670732, 149.8170776, 61.4634171, 0.5851225
0.3164062, 0.2387695, -0.5742188, -2.7439024, 150.9146423, 60.8536606, 0.5782406
0.2939453, 0.2456055, -0.6206055, -2.0121951, 150.7926788, 60.8536606, 0.5829404
0.2832031, 0.2451172, -0.6333008, -1.3414634, 148.4756165, 61.7073174, 0.600061
0.2700195, 0.2441406, -0.6113281, -0.4878049, 145, 62.3780518, 0.5648127
0.2729492, 0.2460938, -0.5913086, 0.4878049, 143.6585388, 62.0121956, 0.5580987
0.2890625, 0.2524414, -0.5600586, 2.2560976, 143.2317047, 60.3658562, 0.5580987
0.3007812, 0.2504883, -0.5620117, 3.1097562, 143.3536682, 59.2073174, 0.5727016
0.3076172, 0.2524414, -0.621582, 3.4146342, 143.4756165, 58.2926826, 0.5779049
0.2949219, 0.2753906, -0.652832, 2.7439024, 142.3170776, 58.6585388, 0.6205386
0.2895508, 0.2910156, -0.6357422, 2.0731707, 137.0121918, 60.4878044, 0.6292668
0.3046875, 0.3027344, -0.5820312, 2.2560976, 134.0853729, 60.9146347, 0.6514229
0.3212891, 0.3061523, -0.5629883, 1.6463414, 131.646347, 58.1707344, 0.7205768
0.3330078, 0.2822266, -0.5473633, 1.2195122, 131.2804871, 56.1585388, 0.7605249
0.3227539, 0.2719727, -0.5439453, 0.4268293, 130.4878082, 52.1341476, 0.7907378
0.3120117, 0.2490234, -0.515625, 0.1219512, 127.2561035, 51.0365868, 0.8269932
0.3120117, 0.2392578, -0.4916992, 0.2439024, 125.8536606, 51.1585388, 0.8796979
0.34375, 0.2109375, -0.4448242, 0, 123.9634171, 50.7926826, 0.9183032
0.3569336, 0.1967773, -0.4194336, -0.1829268, 123.7804871, 49.9390259, 0.9773861
0.375, 0.1723633, -0.3881836, 0, 123.7804871, 48.7195129, 1.0539254
0.3999023, 0.1582031, -0.4135742, 0.5487805, 123.4146347, 48.5975609, 1.1036088
0.4077148, 0.1577148, -0.4384766, 1.8292683, 122.68293, 50.1219521, 1.1475853
0.3999023, 0.1582031, -0.4941406, 2.2560976, 121.3414688, 51.0365868, 1.2043183
0.3857422, 0.1674805, -0.5087891, 2.5, 116.2195129, 52.5609779, 1.2157321
0.3549805, 0.1875, -0.4628906, 2.3780489, 112.86586, 53.0487823, 1.1947509
0.3515625, 0.1953125, -0.3959961, 2.6219513, 105.7317123, 52.0731735, 1.2164034
0.3916016, 0.2094727, -0.2988281, 3.0487804, 104.146347, 48.0487823, 1.225803
0.4282227, 0.2060547, -0.309082, 3.2317073, 105.6707306, 46.4634171, 1.2399023
0.4760742, 0.1787109, -0.3720703, 1.097561, 107.68293, 44.6951218, 1.2294957
0.4921875, 0.1582031, -0.394043, 0.1829268, 106.0365906, 45, 1.2043183
0.5268555, 0.140625, -0.3696289, 0.4268293, 99.7561035, 47.0731735, 1.1908904
0.5400391, 0.1479492, -0.3334961, 1.5243902, 97.5609741, 47.2560997, 1.16907
0.5341797, 0.1572266, -0.3256836, 3.4756098, 95.9756088, 46.341465, 1.1291218
0.5009766, 0.1899414, -0.3188477, 4.1463413, 96.0975647, 45.3658562, 1.0106203
0.4892578, 0.2026367, -0.3266602, 4.9390244, 94.5121994, 43.0487823, 0.9505303
0.4887695, 0.2202148, -0.3349609, 5.3048782, 93.1097565, 42.3170738, 0.9048753
0.4931641, 0.2163086, -0.3320312, 3.9024391, 90.18293, 40.3658562, 0.8514992
0.5185547, 0.1977539, -0.3183594, 3.4756098, 87.5, 38.1707344, 0.7930877
0.5229492, 0.1923828, -0.3041992, 3.8414636, 85.7926865, 37.1341476, 0.7256123
0.5366211, 0.1865234, -0.269043, 5.4878049, 82.3170776, 34.3292694, 0.5933471
0.5429688, 0.1899414, -0.2524414, 6.3414636, 81.2195129, 33.0487823, 0.4634318
0.5629883, 0.1884766, -0.2363281, 7.3780489, 79.6341476, 30.4878063, 0.3791714
0.5688477, 0.1889648, -0.2490234, 7.7439027, 78.9634171, 29.2073174, 0.3167315
0.5673828, 0.1938477, -0.2568359, 9.2682924, 76.646347, 27.5, 0.2717479
0.5605469, 0.2070312, -0.2539062, 10.060976, 75, 26.8292694, 0.2234073
0.5605469, 0.2104492, -0.2397461, 10.9146347, 70, 25.4878063, 0.1720455
0.5727539, 0.1962891, -0.2133789, 11.1585369, 67.8048782, 24.2073174, 0.0605936
0.581543, 0.1777344, -0.2158203, 12.0121956, 65.18293, 21.5853672, -0.0337377
0.5859375, 0.1328125, -0.2368164, 11.219512, 61.0975609, 19.3292694, -0.110277
0.5869141, 0.1079102, -0.2416992, 10.9146347, 58.1707344, 19.2073174, -0.1673457
0.5878906, 0.0654297, -0.2197266, 11.0365858, 51.0365868, 19.6951218, -0.1945373
0.590332, 0.0493164, -0.2075195, 11.7073174, 47.6829262, 20.4268303, -0.1686885
0.590332, 0.0483398, -0.190918, 13.3536587, 41.6463432, 21.8292694, -0.1965515
0.5922852, 0.0795898, -0.1743164, 14.2682934, 39.1463432, 22.6219521, -0.2106508
0.6005859, 0.1015625, -0.1660156, 14.7560978, 34.1463432, 23.7195129, -0.1334401
0.6367188, 0.1391602, -0.1865234, 14.8170738, 32.1341476, 24.0853672, -0.0807355
0.6494141, 0.1479492, -0.2055664, 13.7195129, 27.5, 24.5121956, -0.051194
0.6674805, 0.152832, -0.2260742, 11.4024391, 21.0975609, 23.5975609, -0.0673075
0.6733398, 0.1484375, -0.2265625, 10.4878054, 16.9512196, 22.8048782, -0.1159838
0.6777344, 0.1401367, -0.2124023, 10.060976, 9.2073174, 20.7926826, -0.1136339
0.6704102, 0.1386719, -0.2128906, 9.5731707, 5.1219511, 19.8780499, -0.057908
0.6586914, 0.1616211, -0.1933594, 8.2926826, -1.5853659, 18.7195129, -0.0340734
0.6606445, 0.1630859, -0.1621094, 7.2560978, -4.6341462, 18.1097565, -0.0762036
0.7011719, 0.1381836, -0.0810547, 7.1951222, -8.9024391, 16.4634151, -0.0810712
0.7387695, 0.1240234, -0.0581055, 8.1097565, -10.4878054, 14.6951227, -0.0827497
0.7460938, 0.1274414, -0.0644531, 10.1219511, -13.7195129, 11.8902445, -0.0891279
0.7553711, 0.1665039, -0.0551758, 10.3658543, -15.7926836, 11.7073174, -0.0929885
0.7680664, 0.1899414, -0.0429688, 10.1219511, -20.8536587, 12.3780489, -0.0928206
0.8286133, 0.21875, -0.0449219, 9.3902445, -23.2926826, 12.0121956, -0.1186694
0.8540039, 0.2299805, -0.0249023, 8.780488, -23.0487804, 10.4878054, -0.1562676
0.9199219, 0.2255859, 0.0224609, 6.1585369, -23.4146347, 5.7926831, -0.1790951
0.9521484, 0.1967773, 0.0317383, 4.6951222, -23.3536587, 2.4390244, -0.2066224
0.9555664, 0.1323242, -0.0009766, 3.1707318, -23.0487804, -3.1097562, -0.230457
0.9375, 0.1132812, -0.0253906, 3.0487804, -23.7195129, -4.3292685, -0.2593271
0.8706055, 0.1088867, -0.0493164, 4.1463413, -28.1707325, -3.2926829, -0.2962539
0.8305664, 0.1269531, -0.0400391, 4.0243902, -31.1585369, -2.1341465, -0.4144198
0.8300781, 0.1220703, -0.034668, 3.5365853, -36.341465, -1.8902439, -0.5107652
0.8183594, 0.09375, -0.027832, 3.1707318, -37.9268303, -3.3536587, -0.5768978
0.8027344, 0.090332, -0.0200195, 3.7804878, -40.4878044, -8.1707315, -0.6332952
0.7797852, 0.1074219, -0.0058594, 5.1829271, -45.7317085, -11.0365858, -0.6883497
0.7836914, 0.1308594, -0.0019531, 5.5487804, -48.2926826, -11.1585369, -0.7061418
0.8022461, 0.190918, -0.0224609, 4.390244, -51.0975609, -10.1219511, -0.7940948
0.8237305, 0.2104492, -0.0244141, 2.7439024, -52.5, -9.8780489, -0.9102464
0.8681641, 0.2348633, -0.0053711, -3.2926829, -55.7317085, -11.7073174, -0.9710079
0.8886719, 0.2426758, 0.0097656, -5.7317076, -57.1951218, -13.841464, -1.0307622
0.9057617, 0.2519531, 0.0249023, -9.9390249, -59.1463432, -19.3292694, -1.0639963
0.8847656, 0.2626953, 0.0019531, -11.7073174, -59.7560997, -21.8902435, -1.1012589
0.8720703, 0.2553711, -0.0126953, -14.7560978, -61.2804909, -25.4268303, -1.1448997
0.8457031, 0.2314453, -0.0332031, -16.8292694, -62.7439041, -26.9512196, -1.1704128
0.8344727, 0.2099609, -0.0385742, -21.280489, -65.9146347, -29.3902454, -1.1840085
0.8105469, 0.1713867, -0.0429688, -24.4512196, -67.68293, -31.4024391, -1.1959258
0.793457, 0.1508789, -0.0488281, -24.5731716, -69.2073212, -31.8292694, -1.2550088
0.7504883, 0.1386719, -0.0532227, -23.2317085, -71.4024429, -32.3170738, -1.262562
0.7314453, 0.1362305, -0.0664062, -21.6463413, -72.5, -32.3170738, -1.2618906
0.6977539, 0.1459961, -0.1376953, -18.0487804, -76.4024429, -31.8902454, -1.2590372
0.6831055, 0.1582031, -0.1821289, -17.560976, -78.7195129, -31.8902454, -1.2368811
0.6459961, 0.1787109, -0.246582, -18.0487804, -85, -31.4634151, -1.1764553
0.6269531, 0.1899414, -0.2236328, -18.6585369, -89.3902435, -31.280489, -1.1301289
0.6274414, 0.1938477, -0.203125, -19.4512196, -97.7439041, -32.3170738, -1.1109941
0.6464844, 0.2075195, -0.1665039, -19.3292694, -100, -33.4146347, -1.0530861
0.6538086, 0.2236328, -0.1479492, -18.0487804, -103.3536606, -35.6707344, -1.0025635
0.6674805, 0.2558594, -0.1274414, -17.3170738, -106.646347, -37.5609779, -0.9609369
0.6826172, 0.2592773, -0.1308594, -17.3170738, -107.8658524, -38.3536606, -0.8944686
0.7041016, 0.2666016, -0.1435547, -17.8048782, -110.0609818, -40.3048782, -0.7897307
0.7089844, 0.2685547, -0.1523438, -18.4146347, -111.0975647, -41.0975609, -0.7554894
0.7192383, 0.2768555, -0.1474609, -19.6341476, -114.3902435, -42.1951218, -0.6937209
0.7587891, 0.2856445, -0.1162109, -20.060976, -115.8536606, -42.4390259, -0.6339666
0.7763672, 0.2851562, -0.0859375, -23.5365868, -116.3414688, -44.9390259, -0.5920043
0.809082, 0.2236328, -0.0571289, -25.6097565, -115, -47.8658562, -0.5542382
0.7939453, 0.1801758, -0.0561523, -26.5853672, -111.4024429, -56.7073174, -0.4728313
0.6972656, 0.1484375, -0.0693359, -25.1829281, -110.9756088, -60.9756126, -0.4489967
0.6308594, 0.1621094, -0.0917969, -20.3658543, -112.0731735, -66.0365906, -0.4500038
0.527832, 0.2172852, -0.168457, -17.2560978, -113.8414688, -65.18293, -0.4050202
0.4980469, 0.2348633, -0.2358398, -16.0365849, -113.4146347, -63.9634171, -0.3734646
0.4506836, 0.2348633, -0.3588867, -12.8048782, -113.5975647, -62.0121956, -0.3439231
0.4267578, 0.2270508, -0.4047852, -11.5243902, -116.2195129, -61.7682953, -0.3325093
0.4077148, 0.1899414, -0.4316406, -11.341464, -125.9146347, -62.8658562, -0.3338521
0.4213867, 0.1376953, -0.3754883, -11.6463413, -130.7926788, -64.6951218, -0.3163958
0.4272461, 0.1113281, -0.3510742, -9.8780489, -136.8902435, -69.3902435, -0.3132067
0.4282227, 0.0844727, -0.3334961, -7.2560978, -138.4146423, -71.2195129, -0.3358663
0.4135742, 0.0878906, -0.3330078, -0.3658537, -141.646347, -71.5853653, -0.3828641
0.3896484, 0.1337891, -0.3408203, 3.0487804, -143.5975647, -70.4878082, -0.3848783
0.3852539, 0.1733398, -0.3564453, 8.4756098, -148.1707306, -67.1951218, -0.3774929
0.3901367, 0.2431641, -0.3652344, 11.1585369, -151.1585388, -63.9024391, -0.3828641
0.3974609, 0.2631836, -0.355957, 12.3170738, -152.1951294, -63.2317085, -0.4352331
0.4125977, 0.2753906, -0.3413086, 15.7317076, -155.4268341, -65.9756088, -0.4669566
0.4160156, 0.2695312, -0.3310547, 18.7195129, -156.9512177, -68.7195129, -0.5245289
0.387207, 0.2768555, -0.3305664, 23.6585369, -160.5487823, -74.0243912, -0.5826047
0.3466797, 0.3374023, -0.371582, 24.4512196, -162.0121918, -75.3048782, -0.5795834
0.3330078, 0.3579102, -0.3916016, 20.8536587, -161.8292694, -74.8780518, -0.5802548
0.3330078, 0.3530273, -0.4296875, 18.6585369, -162.2561035, -74.2073212, -0.5849546
0.3398438, 0.3374023, -0.4506836, 18.780489, -164.3902435, -74.7560959, -0.5634699
0.3344727, 0.3183594, -0.4858398, 19.4512196, -166.0365906, -75.6707306, -0.5322499
0.331543, 0.3232422, -0.5053711, 19.6341476, -171.2195129, -77.9268341, -0.5483635
0.3359375, 0.300293, -0.5063477, 17.0121956, -176.0365906, -81.0365906, -0.5297322
0.3374023, 0.2714844, -0.4814453, 15.9756098, -177.9878082, -83.2926865, -0.4738384
0.3330078, 0.2192383, -0.4125977, 17.3170738, -180.8536682, -87.5, -0.4201266
0.3334961, 0.2041016, -0.378418, 19.5121956, -181.5853729, -88.7195129, -0.3798428
0.3398438, 0.1958008, -0.340332, 26.7073174, -180.7317047, -89.8780518, -0.3044785
0.3598633, 0.2070312, -0.3422852, 30.1219521, -179.4512177, -90.0609741, -0.2646983
0.3598633, 0.2104492, -0.3789062, 33.7804871, -177.9878082, -90.5487823, -0.2151827
0.3525391, 0.2045898, -0.5288086, 34.0243912, -177.4390259, -90.3658524, -0.1351186
0.3354492, 0.1992188, -0.6020508, 33.2317085, -177.5, -89.3292694, -0.0693217
0.2363281, 0.2026367, -0.6894531, 33.9634171, -179.3902435, -88.4146347, -0.01561
0.1855469, 0.230957, -0.7280273, 38.2317085, -189.146347, -83.9634171, 0.0166171
0.1416016, 0.2890625, -0.7817383, 41.0975609, -197.3780518, -79.5731735, 0.0733501
0.1269531, 0.3076172, -0.7641602, 41.0365868, -200.4878082, -79.2073212, 0.1542535
0.1044922, 0.3012695, -0.6523438, 37.6829262, -207.7439117, -82.68293, 0.230457
0.1166992, 0.2783203, -0.6000977, 34.5731697, -210.2439117, -85.9756088, 0.3194171
0.1689453, 0.2099609, -0.4619141, 28.6585369, -208.7195129, -92.9878082, 0.3469444
0.2211914, 0.1538086, -0.3652344, 27.560976, -206.8292694, -95.7317123, 0.3855497
0.2485352, 0.1357422, -0.3969727, 30.2439022, -200.7317047, -96.2804871, 0.4295262
0.2807617, 0.1464844, -0.590332, 33.5975609, -197.1341553, -93.7804871, 0.479881
0.2666016, 0.184082, -0.7055664, 40.0609779, -193.9024506, -85, 0.5225147
0.1904297, 0.296875, -0.8525391, 42.8658562, -195.5487823, -80, 0.5946899
0.1425781, 0.3613281, -0.871582, 45.1829262, -205.7926941, -71.2195129, 0.6363165
0.0581055, 0.4609375, -0.8515625, 42.6219521, -217.1341553, -70.18293, 0.6386664
0.0297852, 0.4804688, -0.828125, 39.7560997, -220.6707306, -73.2317123, 0.6685435
-0.0053711, 0.4604492, -0.7817383, 32.7439041, -222.8048859, -83.5975647, 0.7021134
-0.0200195, 0.4267578, -0.7631836, 29.3902454, -222.8048859, -89.146347, 0.7131914
-0.0292969, 0.3398438, -0.7573242, 24.2073174, -221.7682953, -97.8658524, 0.7286336
0.0004883, 0.262207, -0.7836914, 23.5365868, -220.9756165, -100, 0.7235981
0.0166016, 0.2412109, -0.784668, 25.8536587, -220.4268341, -98.4146347, 0.6497444
0.043457, 0.2416992, -0.7939453, 28.2317085, -221.2195129, -95.4268341, 0.6326238
0.0629883, 0.2587891, -0.8129883, 31.2195129, -223.6585388, -87.68293, 0.6376593
0.1015625, 0.2963867, -0.8671875, 30.9756107, -224.6341553, -84.4512253, 0.627924
0.1064453, 0.3251953, -0.8925781, 29.6341476, -226.4024506, -81.0365906, 0.6155032
0.0683594, 0.359375, -0.9462891, 26.9512196, -230.4878082, -81.1585388, 0.6066072
0.0410156, 0.3745117, -0.9589844, 24.7560978, -233.5365906, -82.0731735, 0.5520562
-0.0273438, 0.3789062, -0.8989258, 20.2439022, -240.4878082, -84.146347, 0.4818952
-0.0449219, 0.3706055, -0.831543, 17.3170738, -243.4146423, -84.8780518, 0.4689708
-0.0444336, 0.3413086, -0.7294922, 11.219512, -245.36586, -86.7073212, 0.470985
0.0009766, 0.2983398, -0.7451172, 7.5, -243.1707306, -87.1341476, 0.4785382
0.0048828, 0.2841797, -0.7739258, 2.1341465, -235.0609741, -87.3170776, 0.4704814
-0.0297852, 0.2827148, -0.7880859, 0.8536586, -232.6219635, -86.2804871, 0.4523537
-0.0488281, 0.3027344, -0.7607422, -0.0609756, -234.2073212, -81.5243912, 0.44094
-0.0449219, 0.3476562, -0.7177734, -0.6707317, -236.3414764, -78.9634171, 0.4335546
-0.0136719, 0.3579102, -0.7456055, -5.7926831, -235.5487823, -76.7073212, 0.4476539
0.0219727, 0.3491211, -0.8999023, -16.1585369, -228.5365906, -78.0487823, 0.4268406
0.0136719, 0.3271484, -0.972168, -21.4024391, -226.5243988, -78.9634171, 0.434226
-0.0634766, 0.2788086, -0.9814453, -27.1951218, -231.3414612, -78.9634171, 0.4542
-0.0986328, 0.2646484, -0.9355469, -26.7073174, -236.8902435, -77.8048782, 0.4738384
-0.1352539, 0.2490234, -0.8486328, -20.4878044, -244.7561035, -76.2195129, 0.5097581
-0.1523438, 0.2319336, -0.9150391, -16.8292694, -244.146347, -76.3414688, 0.5997253
-0.1826172, 0.2250977, -0.9926758, -11.5853662, -239.2073212, -77.8048782, 0.6332952
-0.2998047, 0.2348633, -1.0859375, -10.060976, -237.8048859, -78.2317123, 0.642359
-0.3671875, 0.2592773, -1.0463867, -6.5853658, -242.4390259, -77.2560959, 0.6906996
-0.4370117, 0.3212891, -0.8505859, 0.2439024, -251.646347, -74.6341476, 0.7209125
-0.4169922, 0.3520508, -0.7822266, 2.9878049, -252.3780518, -74.8170776, 0.7756313
-0.2900391, 0.375, -0.8022461, 3.3536587, -242.5, -79.3902435, 0.8545205
-0.2211914, 0.3535156, -0.8632812, 0.0609756, -235.1219635, -82.8658524, 0.9310597
-0.1479492, 0.2919922, -0.9243164, -10, -228.5365906, -89.3902435, 0.9243458
-0.1259766, 0.2636719, -0.8852539, -13.9024391, -229.8780518, -90.6097565, 0.9424735
-0.0771484, 0.2285156, -0.7773438, -16.2195129, -234.3292694, -88.6585388, 0.9740291
-0.0317383, 0.2138672, -0.8085938, -15.1219511, -232.9268341, -85.7926865, 0.9921569
-0.0371094, 0.2158203, -0.8681641, -11.9512196, -224.4512177, -79.2682953, 1.0169986
-0.1132812, 0.2397461, -0.9760742, -11.0365858, -221.5853729, -75.8536606, 1.0331121
-0.1699219, 0.2587891, -1.0234375, -12.3170738, -223.1707306, -68.7804871, 1.0257267
-0.2646484, 0.2958984, -1.1435547, -15.2439032, -229.6951294, -63.5975609, 0.9921569
-0.3154297, 0.3085938, -1.1914062, -16.5853653, -231.4634247, -62.0121956, 0.9807431
-0.4365234, 0.3344727, -1.1743164, -16.5853653, -234.4512177, -59.8170738, 0.9706722
-0.4990234, 0.3452148, -1.1245117, -14.8780489, -238.1707306, -59.3292694, 0.9747005
-0.5649414, 0.3745117, -0.9345703, -9.7560978, -247.86586, -60.5487823, 0.9397879
-0.5439453, 0.3857422, -0.8432617, -7.2560978, -250.4268341, -62.5609779, 0.8833906
-0.4272461, 0.3955078, -0.8012695, -6.7073174, -242.0731812, -69.7560959, 0.8001373
-0.2910156, 0.3525391, -0.9609375, -10.1219511, -232.7439117, -74.0853653, 0.7188983
-0.2602539, 0.3188477, -1.0551758, -21.1585369, -216.646347, -79.8780518, 0.6618296
-0.2695312, 0.2456055, -1.1201172, -26.2195129, -214.512207, -80.4878082, 0.5617914
-0.2958984, 0.2148438, -1.0541992, -27.5, -221.5853729, -75.6707306, 0.4953231
-0.3339844, 0.2045898, -0.8339844, -15.6097565, -234.146347, -66.8292694, 0.4369116
-0.3344727, 0.2128906, -0.7617188, -7.6219516, -235.6707306, -62.9878082, 0.3405661
-0.3061523, 0.2519531, -0.8505859, 2.0731707, -224.8170776, -59.5121956, 0.2509346
-0.3188477, 0.2695312, -0.9731445, 1.2804878, -216.0975647, -60.0609779, 0.1831235
-0.4477539, 0.2905273, -1.1616211, -7.2560978, -207.2561035, -61.0975609, 0.0876173
-0.5292969, 0.3032227, -1.1542969, -11.341464, -210.2439117, -60.3658562, -0.0105745
-0.6274414, 0.3305664, -0.9672852, -11.4024391, -225.2439117, -57.2560997, -0.0760357
-0.5532227, 0.3579102, -0.8574219, -7.9268293, -230.8536682, -56.4634171, -0.1381399
-0.484375, 0.3759766, -0.9379883, -3.2926829, -225.73172, -58.3536606, -0.1921874
-0.4428711, 0.394043, -1.2036133, -5.0609756, -216.7682953, -60.7926826, -0.2418708
-0.487793, 0.4072266, -1.2841797, -13.6585369, -207.0731812, -63.3536606, -0.2969253
-0.621582, 0.4560547, -1.206543, -17.9878044, -220.6707306, -59.8780518, -0.4070344
-0.6489258, 0.4882812, -1.0644531, -15.7317076, -232.1341553, -56.8902435, -0.4614176
-0.5683594, 0.5473633, -0.7910156, -7.2560978, -244.3902435, -55.2439041, -0.5003586
-0.4672852, 0.550293, -0.7651367, -6.4024391, -240.1219635, -58.3536606, -0.5503777
-0.3164062, 0.4907227, -0.9453125, -18.780489, -217.1951294, -70.4878082, -0.585626
-0.3110352, 0.4262695, -1.0727539, -30.7317085, -207.0731812, -76.4634171, -0.5742123
-0.4477539, 0.2797852, -1.1430664, -50.5487823, -203.9024506, -80.7317123, -0.5768978
-0.6074219, 0.1523438, -0.9013672, -52.4390259, -210.6097565, -78.5365906, -0.6262455
-0.6401367, 0.1201172, -0.7441406, -36.7073174, -226.9512177, -68.1707306, -0.6359808
-0.5864258, 0.1137695, -0.628418, -23.9634151, -229.3292694, -62.8048782, -0.6527657
-0.5332031, 0.1186523, -0.7114258, -3.9634147, -215.1829376, -57.6219521, -0.6648508
-0.5239258, 0.1503906, -0.9838867, -3.0487804, -195.4268341, -58.7804909, -0.6650187
-0.5805664, 0.1796875, -1.0629883, -5.9146342, -192.9878082, -59.2073174, -0.6581369
-0.7226562, 0.2666016, -0.9819336, -5.1219511, -203.5975647, -56.0365868, -0.6460517
-0.7612305, 0.3334961, -0.8505859, -0.0609756, -211.5853729, -53.1707344, -0.6307774
-0.6967773, 0.4614258, -0.6137695, 14.1463413, -216.5853729, -51.0975609, -0.6208743
-0.5214844, 0.5429688, -0.7211914, 17.1951218, -210.5487823, -53.4756126, -0.6688792
-0.4580078, 0.550293, -0.9008789, 3.9634147, -187.9268341, -64.0853653, -0.6764324
-0.4916992, 0.4926758, -1.2333984, -10.3048782, -178.7804871, -69.5121994, -0.6876783
-0.5727539, 0.4467773, -1.296875, -36.0365868, -178.2317047, -74.0243912, -0.6917067
-0.777832, 0.3666992, -1.1835938, -40.7926826, -186.4634247, -71.7682953, -0.6964065
-0.8496094, 0.3515625, -1.0576172, -29.8780499, -209.2073212, -62.0731735, -0.6863355
-0.8803711, 0.3774414, -0.8857422, -8.4756098, -221.2195129, -54.3292694, -0.7232624
-0.8461914, 0.3989258, -0.9111328, -2.6829269, -218.9024506, -53.9024391, -0.780499
-0.7749023, 0.4145508, -1.1621094, -8.841464, -204.4512177, -59.9390259, -0.7843595
-0.7832031, 0.3945312, -1.284668, -18.6585369, -199.5731812, -65, -0.8175937
-0.9008789, 0.328125, -1.3212891, -33.3536606, -205.5487823, -70.1219559, -0.8649271
-0.9916992, 0.2719727, -1.065918, -33.0487823, -215.6707306, -69.4512177, -0.9253529
-0.9897461, 0.2612305, -0.890625, -16.9512196, -234.5731812, -65.3048782, -0.9743648
-0.8720703, 0.2807617, -0.6860352, -5.9756098, -237.9268341, -63.1097565, -1.0629892
-0.7788086, 0.2944336, -0.7138672, 5.9756098, -224.5731812, -63.9024391, -1.1079728
-0.6811523, 0.2929688, -0.9169922, 4.2073174, -211.7073212, -65.8536606, -1.1318074
-0.7001953, 0.2783203, -1.0097656, -9.4512196, -194.6951294, -68.8414688, -1.1720912
-0.7988281, 0.2602539, -1.0356445, -16.1585369, -199.0853729, -64.6951218, -1.2395666
-0.8530273, 0.2680664, -0.9707031, -11.9512196, -205.6097565, -60.3658562, -1.2790112
-0.9052734, 0.3427734, -0.7910156, 5.8536587, -215.4268341, -51.5243912, -1.338262
-0.8901367, 0.394043, -0.7480469, 14.2073174, -215.4878082, -49.2073174, -1.4067445
-0.8027344, 0.4731445, -0.7919922, 16.280489, -204.4512177, -52.3170738, -1.4238651
-0.7626953, 0.4785156, -0.8876953, 10.1219511, -197.86586, -56.8292694, -1.4500496
-0.7631836, 0.4560547, -0.9086914, -8.2317076, -189.8170776, -65.8536606, -1.4819409
-0.8007812, 0.3911133, -0.8574219, -15.3658543, -189.2682953, -68.8414688, -1.4967117
-0.8227539, 0.3637695, -0.7998047, -18.1097565, -191.0975647, -70.1219559, -1.5084611
-0.8427734, 0.3569336, -0.6850586, -14.0243902, -191.8292694, -68.1097565, -1.5202106
-0.8369141, 0.3779297, -0.65625, -3.9634147, -189.6951294, -63.4756126, -1.50309
-0.7875977, 0.4321289, -0.7246094, -2.5609756, -182.0121918, -62.68293, -1.4673381
-0.7700195, 0.4482422, -0.8261719, -7.0731707, -177.3170776, -63.7195129, -1.4812696
-0.8129883, 0.4448242, -1.0268555, -19.6951218, -171.1585388, -66.2804871, -1.4594491
-0.8774414, 0.4238281, -1.0952148, -23.9634151, -172.3780518, -66.6463394, -1.4007019
-1.0424805, 0.3759766, -1.1000977, -23.5975609, -183.5365906, -64.4512177, -1.3268482
-1.1665039, 0.3569336, -0.9824219, -19.0243912, -192.012207, -62.8048782, -1.2395666
-1.1801758, 0.3676758, -0.9384766, -7.7439027, -205.1829376, -61.1585388, -1.1425498
-1.1386719, 0.3847656, -0.9526367, -4.7560978, -206.0975647, -62.1341476, -1.0953841
-1.1171875, 0.3876953, -0.9873047, -9.8170738, -197.9268341, -66.7073212, -1.0629892
-1.0957031, 0.3652344, -1.0585938, -16.0365849, -193.7804871, -69.0243912, -0.993164
-1.0869141, 0.3369141, -1.0605469, -27.4390259, -192.6219482, -72.3170776, -0.8991684
-1.0893555, 0.2944336, -0.9609375, -26.280489, -199.9390259, -71.5243912, -0.7987945
-1.0786133, 0.2866211, -0.8891602, -20.7317085, -203.9024506, -69.8170776, -0.6985885
-1.0307617, 0.3208008, -0.7910156, -7.5609756, -206.0975647, -65.9756088, -0.6050965
-0.9995117, 0.3461914, -0.7705078, -3.1707318, -204.2682953, -65.3658524, -0.5716945
-0.9418945, 0.3823242, -0.7587891, -3.6585367, -198.1097565, -66.3414612, -0.5064012
-0.909668, 0.3798828, -0.7832031, -7.8048782, -195.2439117, -67.3780518, -0.4194553
-0.9018555, 0.3583984, -0.8061523, -17.8658543, -189.8170776, -69.1463394, -0.3580224
-0.9213867, 0.2895508, -0.8295898, -21.5243912, -187.6219482, -69.1463394, -0.2969253
-0.949707, 0.2583008, -0.8251953, -21.6463413, -187.6219482, -67.3170776, -0.2076295
-1.0097656, 0.2197266, -0.7729492, -18.780489, -189.2682953, -65.6097565, -0.1522393
-1.0288086, 0.2138672, -0.7368164, -10.4878054, -193.7804871, -61.6463432, -0.131426
-1.0522461, 0.2573242, -0.6328125, -4.3292685, -193.2317047, -58.6585388, -0.0800641
-1.0458984, 0.2944336, -0.5834961, -3.4756098, -190.7317047, -58.3536606, -0.0310521
-0.9960938, 0.3613281, -0.5849609, -5.7926831, -181.3414612, -59.5121956, 0.0124208
-0.9663086, 0.3798828, -0.6567383, -9.2073174, -174.2073212, -61.0975609, 0.011078
-0.9907227, 0.3833008, -0.8364258, -16.5243912, -164.3902435, -64.2073212, -0.0209812
-1.112793, 0.3789062, -0.921875, -18.0487804, -164.9390259, -64.1463394, -0.0203098
-1.1806641, 0.3803711, -0.9174805, -14.3292685, -174.5121918, -60.8536606, -0.0028534
-1.2587891, 0.394043, -0.840332, -9.8170738, -180.7926941, -59.0853691, 0.0223239
-1.2543945, 0.4033203, -0.7978516, -2.4390244, -189.0853729, -57.68293, -0.0112459
-1.2011719, 0.4047852, -0.7436523, -1.5853659, -189.3902435, -59.4512215, -0.0058747
-1.1679688, 0.3911133, -0.7368164, -8.2926826, -181.4634247, -67.3170776, -0.033402
-1.1308594, 0.3354492, -0.7133789, -20.3658543, -172.5, -75.2439041, -0.0491798
-1.1162109, 0.3085938, -0.6899414, -24.5121956, -170.3048859, -77.0731735, -0.0639506
-1.09375, 0.2719727, -0.6767578, -26.0975609, -168.0487823, -75.9756088, -0.0417945
-1.0805664, 0.2636719, -0.6982422, -23.9024391, -166.646347, -73.5365906, -0.0451514
-1.0834961, 0.2543945, -0.7768555, -17.9268303, -164.4512177, -66.8292694, -0.0736858
-1.1416016, 0.2573242, -0.8271484, -15, -165.1219482, -63.5365868, -0.0627756
-1.1699219, 0.2675781, -0.8125, -11.1585369, -171.0365906, -59.1463432, -0.0364233
-1.2094727, 0.2895508, -0.7470703, -9.5731707, -174.6341553, -58.2317085, -0.0339055
-1.2128906, 0.3061523, -0.7070312, -8.4756098, -176.5243988, -59.2073174, -0.0292058
-1.2021484, 0.3393555, -0.6474609, -8.4146347, -174.5121918, -60.9146347, -0.0018463
-1.1850586, 0.3510742, -0.6303711, -12.2560978, -169.3292694, -64.3902435, -0.002182
-1.1337891, 0.3442383, -0.6401367, -19.2073174, -163.4756165, -66.7073212, 0.0159457
-1.1083984, 0.3222656, -0.6484375, -22.6829281, -160.9146423, -67.4390259, 0.0574044
-1.0864258, 0.2661133, -0.6513672, -25.6707325, -157.7439117, -66.6463394, 0.1092699
-1.0898438, 0.2358398, -0.6445312, -24.5121956, -157.5609741, -65.5487823, 0.1861448
-1.1230469, 0.2016602, -0.6245117, -17.8048782, -157.86586, -62.5, 0.300618
-1.1582031, 0.2099609, -0.59375, -13.4146347, -158.1707306, -60.7926826, 0.3543297
-1.1757812, 0.2255859, -0.5820312, -6.4024391, -157.3170776, -59.0243912, 0.379675
-1.1855469, 0.2651367, -0.5932617, -4.9390244, -156.2195129, -58.2926826, 0.4523537
-1.1860352, 0.28125, -0.6142578, -5.7317076, -150.5487823, -58.6585388, 0.5215076
-1.1875, 0.2817383, -0.6474609, -10.3048782, -146.5243988, -59.3292694, 0.6202029
-1.1860352, 0.2685547, -0.6494141, -12.560976, -146.2804871, -59.9390259, 0.7034562
-1.1728516, 0.2290039, -0.6181641, -14.3902445, -146.5853729, -60.2439041, 0.7820096
-1.1640625, 0.2182617, -0.5854492, -14.2073174, -146.2195129, -60, 0.8598917
-1.1411133, 0.2011719, -0.4887695, -11.6463413, -145.0609741, -59.1463432, 0.9250172
-1.1157227, 0.2060547, -0.4716797, -10.7317076, -143.5365906, -58.9634171, 0.9846036
-1.0805664, 0.2456055, -0.4956055, -11.5243902, -135.9146423, -57.3780518, 0.9985351
-1.0849609, 0.2880859, -0.5532227, -13.0487804, -132.4390259, -56.4024391, 1.0351263
-1.0952148, 0.3007812, -0.5849609, -16.6463413, -129.8780518, -54.0853653, 1.0814527
-1.125, 0.3125, -0.6103516, -18.5365849, -130.7926788, -53.0487823, 1.1318074
-1.1401367, 0.3110352, -0.6088867, -21.5243912, -133.9024353, -52.6219521, 1.1794766
-1.1757812, 0.2993164, -0.5888672, -23.4146347, -135, -53.7195129, 1.2237888
-1.1904297, 0.2905273, -0.5698242, -23.6585369, -134.9390259, -54.5731735, 1.2182498
-1.2133789, 0.28125, -0.5512695, -24.2682934, -133.5975647, -55.9756126, 1.2120394
-1.2099609, 0.2724609, -0.565918, -24.4512196, -132.5609741, -56.6463432, 1.2184176
-1.1938477, 0.2270508, -0.6279297, -26.2195129, -130.7317047, -58.1097565, 1.1949187
-1.1972656, 0.1972656, -0.6499023, -26.8902454, -130.7317047, -58.2317085, 1.1438926
-1.222168, 0.1547852, -0.6474609, -25.8536587, -133.8414612, -56.7073174, 1.1083085
-1.2319336, 0.1435547, -0.5874023, -23.7195129, -136.4024353, -55.2439041, 1.0780957
-1.2236328, 0.1499023, -0.5463867, -17.0121956, -139.4512177, -52.6219521, 0.9948425
-1.1850586, 0.1748047, -0.4868164, -13.9024391, -139.2073212, -52.0731735, 0.958587
-1.159668, 0.1928711, -0.4755859, -10.1829271, -136.0365906, -52.7439041, 0.9183032
-1.1279297, 0.2226562, -0.5102539, -10.9756098, -130.2439117, -53.4756126, 0.8424353
-1.1220703, 0.2304688, -0.5302734, -12.1951218, -128.5975647, -53.2317085, 0.7783169
-1.1333008, 0.2485352, -0.5351562, -13.6585369, -128.6585388, -51.6463432, 0.7444114
-1.1455078, 0.2631836, -0.5092773, -12.9878054, -129.8170776, -50.1829262, 0.6682078
-1.1367188, 0.2890625, -0.4501953, -10.7926836, -130.7926788, -47.9878044, 0.5852903
-1.125, 0.3027344, -0.4306641, -10.7317076, -129.5121918, -47.8048782, 0.5549096
-1.1015625, 0.3203125, -0.4228516, -14.2073174, -124.4512253, -49.4512215, 0.5208362
-1.090332, 0.3007812, -0.4331055, -17.7439022, -121.7682953, -50.4268303, 0.5027085
-1.0874023, 0.2817383, -0.4511719, -25.3048782, -117.1341476, -52.1341476, 0.4614176
-1.1064453, 0.2250977, -0.4926758, -27.9268303, -115.2439041, -52.3780518, 0.4214694
-1.1328125, 0.1987305, -0.5014648, -28.2926826, -113.2926865, -50.9146347, 0.4117342
-1.1865234, 0.1591797, -0.5024414, -23.7195129, -114.6341476, -48.4146347, 0.4103914
-1.206543, 0.1464844, -0.4990234, -20.3048782, -115.7317123, -47.1341476, 0.4046845
-1.2353516, 0.1323242, -0.4785156, -15.3658543, -116.2195129, -45.4268303, 0.3590295
-1.2402344, 0.1342773, -0.4584961, -14.5731707, -115.4878082, -45, 0.357351
-1.2211914, 0.1459961, -0.4111328, -15.1219511, -112.3170776, -44.6951218, 0.3999847
-1.2045898, 0.1586914, -0.3911133, -16.2195129, -109.6341476, -44.3902435, 0.4456397
-1.1572266, 0.1826172, -0.3701172, -18.0487804, -103.0487823, -43.2317085, 0.476524
-1.1030273, 0.206543, -0.3793945, -19.0243912, -99.8780518, -42.5609779, 0.5127794
-1.0830078, 0.2177734, -0.3989258, -20.1829281, -95.3658524, -40.8536606, 0.5147936
-1.0649414, 0.2456055, -0.4477539, -20.5487804, -94.0243912, -39.9390259, 0.5085832
-1.0620117, 0.2490234, -0.4736328, -21.5853672, -92.5, -37.9878044, 0.5685054
-1.0908203, 0.2558594, -0.4980469, -22.9268303, -93.1707306, -36.7682953, 0.6215457
-1.1083984, 0.2583008, -0.4946289, -23.8414631, -94.2073212, -36.7073174, 0.6698863
-1.1342773, 0.2539062, -0.4672852, -25.3048782, -96.0365906, -36.6463432, 0.7061418
-1.1420898, 0.2470703, -0.4492188, -25.9146347, -95.6707306, -37.5, 0.7356832
-1.1357422, 0.2275391, -0.3955078, -26.5243912, -93.6585388, -38.5365868, 0.694728
-1.1225586, 0.2119141, -0.3535156, -27.0731716, -92.1341476, -39.3292694, 0.7041276
-1.1098633, 0.2109375, -0.3330078, -27.1951218, -88.4756088, -40.3048782, 0.7235981
-1.0805664, 0.2207031, -0.3022461, -27.3170738, -86.1585388, -39.9390259, 0.7249409
-1.0581055, 0.2241211, -0.2983398, -27.3170738, -81.3414688, -39.0853653, 0.734844
-1.0195312, 0.2299805, -0.3037109, -27.1951218, -79.3292694, -38.7804871, 0.7630426
-1.0068359, 0.2285156, -0.3056641, -28.4146347, -75.7317123, -38.9634171, 0.7457542
-0.9912109, 0.230957, -0.2998047, -30.3048782, -72.8658524, -39.3902435, 0.7084916
-0.9916992, 0.2338867, -0.2949219, -31.4634151, -71.8292694, -39.4512215, 0.7044633
-0.9897461, 0.2490234, -0.2978516, -33.5365868, -68.2317123, -39.9390259, 0.6631724
-0.9926758, 0.2529297, -0.3071289, -33.841465, -66.3414612, -39.8780479, 0.6074464
-1.0063477, 0.2636719, -0.3383789, -34.8170738, -63.5975609, -40.4268303, 0.515465
-1.0253906, 0.265625, -0.3745117, -35.4268303, -63.0487823, -40.5487823, 0.4327153
-1.0361328, 0.2587891, -0.3876953, -36.7073174, -62.68293, -40.3048782, 0.3825284
-1.0512695, 0.237793, -0.3916016, -37.6829262, -63.1097565, -39.9390259, 0.3516442
-1.0512695, 0.2197266, -0.3833008, -39.2682953, -64.0243912, -39.5731735, 0.3076677
-1.0483398, 0.1796875, -0.3706055, -40.2439041, -63.7804909, -39.8780479, 0.1928588
-1.0424805, 0.1582031, -0.3647461, -40.4878044, -62.5609779, -39.6951218, 0.0931563
-1.0297852, 0.1137695, -0.3608398, -40.2439041, -60.8536606, -38.7804871, 0.0041962
-1.0224609, 0.0966797, -0.355957, -39.9390259, -60.2439041, -38.1707344, -0.0797284
-1.0117188, 0.090332, -0.3413086, -37.8048782, -59.5121956, -35.7317085, -0.1364614
-1.0068359, 0.09375, -0.3310547, -36.341465, -59.3902435, -34.2073174, -0.1545892
-0.9858398, 0.1020508, -0.3227539, -32.9268303, -58.7195129, -31.2195129, -0.1968872
-0.9736328, 0.1293945, -0.3208008, -31.7682934, -57.8048782, -30.3048782, -0.2556344
-0.9677734, 0.1445312, -0.3256836, -30.3048782, -57.0731735, -29.6951218, -0.2673838
-0.9702148, 0.1728516, -0.3481445, -30.3658543, -56.5853653, -29.5121956, -0.2955825
-0.9770508, 0.1772461, -0.359375, -34.0243912, -56.0365868, -28.7195129, -0.3358663
-0.9814453, 0.1767578, -0.3588867, -36.341465, -55.5487823, -28.1097565, -0.3519799
-0.9829102, 0.1679688, -0.3549805, -40.3048782, -54.8170738, -26.7073174, -0.3560082
-0.980957, 0.15625, -0.3398438, -40.3048782, -55.0609779, -25.2439022, -0.4258335
-0.9790039, 0.1484375, -0.3364258, -39.4512215, -55.7926826, -25.1219521, -0.4459754
-0.9804688, 0.1542969, -0.3300781, -37.2560997, -56.341465, -24.9390259, -0.448661
-0.9794922, 0.1621094, -0.3325195, -36.8902435, -56.0975609, -24.8170738, -0.4078737
-0.9799805, 0.1826172, -0.3276367, -37.5, -55.4878044, -24.5731716, -0.3667506
-0.9804688, 0.2006836, -0.3164062, -38.2926826, -55.4268303, -24.3902435, -0.3157244
-0.9804688, 0.2026367, -0.3051758, -39.5121956, -54.7560997, -23.4756107, -0.3177386
-0.9775391, 0.1948242, -0.2802734, -40.1219521, -54.5731735, -23.0487804, -0.339559
-0.9755859, 0.1918945, -0.2700195, -41.2195129, -53.7195129, -22.0121956, -0.3053178
-0.9711914, 0.1816406, -0.2602539, -41.7073174, -52.5609779, -21.5853672, -0.254963
-0.9775391, 0.1689453, -0.2573242, -43.4756126, -49.8170738, -20.8536587, -0.1995727
-1.0019531, 0.1489258, -0.2470703, -44.1463432, -47.9878044, -19.8170738, -0.1629816
-1.0141602, 0.1455078, -0.2353516, -43.4756126, -47.2560997, -19.2073174, -0.1465324
-1.0336914, 0.1464844, -0.2104492, -41.5243912, -45.6097565, -18.1707325, -0.1304189
-1.0419922, 0.1489258, -0.1987305, -40.3658562, -44.0243912, -17.9268303, -0.1038987
-1.043457, 0.1508789, -0.1953125, -39.0243912, -40.5487823, -18.1097565, -0.0726787
-1.0400391, 0.1508789, -0.206543, -38.841465, -38.9634171, -18.1707325, -0.1099413
-1.0361328, 0.1420898, -0.2128906, -39.1463432, -35.3658562, -17.6219521, -0.0963455
-1.0351562, 0.1328125, -0.2172852, -39.2682953, -34.1463432, -17.560976, -0.0728466
-1.0322266, 0.1367188, -0.2265625, -38.841465, -32.6829262, -16.2195129, -0.0733501
-1.0288086, 0.1484375, -0.2783203, -38.7195129, -30.9146347, -15.1829271, -0.0874495
-1.0249023, 0.1420898, -0.315918, -38.9024391, -27.5, -12.8048782, -0.0830854
-1.0283203, 0.1049805, -0.3730469, -39.6951218, -28.0487804, -11.7073174, -0.1089342
-1.0371094, 0.081543, -0.375, -39.6951218, -29.8170738, -11.6463413, -0.1646601
-1.0668945, 0.0517578, -0.3574219, -37.3170738, -33.4756088, -10.9756098, -0.2096437
-1.0761719, 0.0444336, -0.3491211, -35.3048782, -34.0243912, -10, -0.2757763
-1.1025391, 0.0463867, -0.3579102, -30.4878063, -32.8658562, -7.3780489, -0.3367056
-1.1181641, 0.0546875, -0.3720703, -28.2926826, -32.8658562, -5.7926831, -0.3620508
-1.1245117, 0.0620117, -0.3686523, -24.6951218, -34.0853653, -3.2926829, -0.3915923
-1.1240234, 0.090332, -0.3447266, -23.2317085, -35.4268303, -2.3170731, -0.4694743
-1.1118164, 0.1054688, -0.3393555, -20.1219521, -36.4634171, -1.2804878, -0.5245289
-1.1020508, 0.1254883, -0.328125, -18.780489, -35.8536606, -1.097561, -0.5909972
-1.0927734, 0.1323242, -0.3266602, -17.8048782, -34.0243912, -0.9756098, -0.655787
-1.0849609, 0.1337891, -0.3325195, -17.8658543, -32.6219521, -0.5487805, -0.7105058
-1.0795898, 0.1293945, -0.3261719, -17.8658543, -32.0121956, 0, -0.724773
-1.0727539, 0.1230469, -0.3081055, -16.0975609, -31.4634151, 1.0365853, -0.7689174
-1.0673828, 0.1254883, -0.293457, -15, -31.0975609, 2.0121951, -0.8323644
-1.0541992, 0.1386719, -0.2675781, -12.5, -29.2073174, 3.4146342, -0.8509957
-1.0375977, 0.1582031, -0.2456055, -11.5853662, -28.3536587, 4.0243902, -0.8702983
-1.0268555, 0.1650391, -0.2333984, -11.7073174, -25.4878063, 4.390244, -0.888426
-1.003418, 0.1748047, -0.237793, -12.6219511, -23.4756107, 4.0243902, -0.9092393
-1.0029297, 0.1796875, -0.2553711, -14.3902445, -18.4146347, 3.7195122, -0.9139391
-1.0170898, 0.1708984, -0.2944336, -15.6707325, -16.1585369, 3.7804878, -0.9172961
-1.034668, 0.1586914, -0.3022461, -16.8292694, -13.2926836, 4.5121951, -0.9065537
-1.0571289, 0.1455078, -0.293457, -15.1219511, -13.4756098, 5.9146342, -0.8736553
-1.0668945, 0.1357422, -0.2763672, -13.7195129, -13.7195129, 6.2195125, -0.8897688
-1.0639648, 0.1289062, -0.2685547, -10, -11.7682934, 5.7317076, -0.8330358
-1.0605469, 0.1245117, -0.2792969, -8.841464, -9.6951218, 5.3658538, -0.75935
-1.0698242, 0.1245117, -0.3164062, -8.5365858, -6.2195125, 5.1829271, -0.7131914
-1.0932617, 0.1206055, -0.3320312, -8.719512, -5, 5.5487804, -0.6762646
-1.097168, 0.1279297, -0.3261719, -8.1707315, -4.0243902, 7.3170733, -0.6306096
-1.1000977, 0.1225586, -0.3173828, -7.0731707, -3.6585367, 8.2926826, -0.6032502
-1.0996094, 0.1171875, -0.3110352, -3.5365853, -2.804878, 9.5731707, -0.5574273
-1.0932617, 0.1108398, -0.3027344, -0.7317073, -1.0365853, 10.3048782, -0.4839094
-1.0859375, 0.1108398, -0.2973633, 0.1829268, 0.3658537, 10.5487804, -0.4258335
-1.0654297, 0.1220703, -0.3007812, 0.7317073, 3.1707318, 11.6463413, -0.3848783
-1.0571289, 0.1269531, -0.3115234, 0.9146342, 4.6341462, 12.4390249, -0.3435874
-1.0375977, 0.1386719, -0.3642578, 0.8536586, 7.9268293, 14.8780489, -0.2897078
-1.0371094, 0.1376953, -0.4018555, 1.1585366, 8.2926826, 15.9756098, -0.2975967
-1.0493164, 0.1220703, -0.4794922, 2.1341465, 6.890244, 18.2317085, -0.2784619
-1.1010742, 0.0927734, -0.4912109, 3.1707318, 4.390244, 19.2682934, -0.2391852
-1.128418, 0.081543, -0.46875, 6.5243902, -2.5, 20.9756107, -0.2032654
-1.1660156, 0.0688477, -0.3886719, 8.719512, -5.3658538, 21.4024391, -0.1760739
-1.1669922, 0.0727539, -0.3554688, 13.1097565, -7.3170733, 22.5, -0.1438468
-1.1416016, 0.0932617, -0.3056641, 15.1829271, -3.6585367, 23.8414631, -0.1404898
-1.1289062, 0.1044922, -0.293457, 15, -0.7926829, 24.5121956, -0.170367
-1.09375, 0.1303711, -0.2768555, 14.6951227, 4.8170733, 27.0121956, -0.1693599
-1.0791016, 0.144043, -0.2705078, 14.2682934, 7.0731707, 29.0243912, -0.1997406
-1.0537109, 0.1728516, -0.2661133, 15.4878054, 11.5243902, 31.7682934, -0.2415351
-1.043457, 0.1787109, -0.2714844, 16.5853653, 13.3536587, 32.3780479, -0.2881971
-1.0488281, 0.1889648, -0.2817383, 16.7682934, 15.7317076, 33.0487823, -0.321767
-1.074707, 0.1894531, -0.2597656, 16.3414631, 16.9512196, 33.4146347, -0.3318379
-1.0859375, 0.1904297, -0.2416992, 14.9390249, 20.4268303, 33.1707306, -0.3294881
-1.0834961, 0.1918945, -0.2382812, 14.8780489, 22.9878063, 33.4146347, -0.3524834
-1.0878906, 0.1835938, -0.2578125, 15.060976, 30.3658543, 33.3536606, -0.4338903
-1.109375, 0.1845703, -0.331543, 15.1829271, 37.1951218, 34.8780479, -0.4882734
-1.1328125, 0.1875, -0.3701172, 15.6707325, 38.841465, 35.6097565, -0.5084154
-1.1806641, 0.1870117, -0.40625, 17.3170738, 38.841465, 38.3536606, -0.5241932
-1.2001953, 0.1904297, -0.4106445, 18.5365849, 37.9878044, 39.6341476, -0.5325856
-1.2275391, 0.2045898, -0.3793945, 20.3658543, 36.9512215, 40.2439041, -0.5193256
-1.2333984, 0.2241211, -0.3500977, 21.0365868, 37.1951218, 40.3658562, -0.5429923
-1.2119141, 0.2602539, -0.2958984, 21.0975609, 41.341465, 38.841465, -0.5859617
-1.1503906, 0.28125, -0.293457, 20.3048782, 45.0609779, 38.3536606, -0.5883116
-1.1289062, 0.2792969, -0.3183594, 16.280489, 53.841465, 37.0121956, -0.5920043
-1.1088867, 0.2504883, -0.3813477, 14.0243902, 57.6219521, 36.6463432, -0.5721981
-1.1220703, 0.2338867, -0.4052734, 10.9756098, 61.8292694, 36.4024391, -0.5481956
-1.1860352, 0.2207031, -0.4155273, 12.7439032, 62.4390259, 38.0487823, -0.5161364
-1.2216797, 0.2255859, -0.40625, 15.3658543, 61.6463432, 39.0853653, -0.5278859
-1.2514648, 0.2324219, -0.3862305, 19.939024, 61.2804909, 39.5121956, -0.4946517
-1.2490234, 0.2299805, -0.3740234, 20.2439022, 62.8658562, 38.4146347, -0.4110628
-1.21875, 0.2260742, -0.3647461, 17.439024, 68.2317123, 36.0975609, -0.342916
-1.2021484, 0.2177734, -0.3701172, 14.8170738, 72.1951218, 35.1829262, -0.2856794
-1.1757812, 0.1938477, -0.3955078, 11.0975609, 79.8170776, 35.5487823, -0.2133364
-1.1704102, 0.1787109, -0.4345703, 10.3048782, 82.8658524, 36.8902435, -0.197055
-1.1699219, 0.1835938, -0.4594727, 10.9756098, 85.0609741, 41.4024391, -0.1750668
-1.1879883, 0.2021484, -0.4863281, 11.9512196, 85, 43.5365868, -0.0773785
-1.1972656, 0.2119141, -0.4897461, 12.7439032, 83.5975647, 46.2195129, -0.0028534
-1.2207031, 0.2368164, -0.4863281, 13.2317076, 83.2317123, 46.7682953, 0.0659648
-1.2304688, 0.2504883, -0.4838867, 12.5, 83.8414688, 46.7682953, 0.1032273
-1.2480469, 0.2700195, -0.4697266, 10.8536587, 85.9756088, 46.4634171, 0.1351186
-1.2529297, 0.2768555, -0.4594727, 9.7560978, 86.9512253, 46.5243912, 0.1817807
-1.2324219, 0.2636719, -0.4492188, 7.6219516, 89.5121994, 45.7317085, 0.2321355
-1.237793, 0.2480469, -0.4487305, 7.1341467, 91.4024429, 44.9390259, 0.2925612
-1.2490234, 0.2416992, -0.4462891, 7.1951222, 94.8780518, 44.4512215, 0.2903792
-1.2646484, 0.2382812, -0.4301758, 7.3780489, 95.8536606, 45.0609779, 0.3281453
-1.262207, 0.2402344, -0.4243164, 7.8048782, 96.7073212, 45.7926826, 0.3603723
-1.2519531, 0.2602539, -0.4257812, 8.1707315, 98.4756088, 45.7317085, 0.3687648
-1.2446289, 0.269043, -0.4350586, 8.0487804, 102.8658524, 46.0975609, 0.3889067
-1.2368164, 0.2944336, -0.4672852, 7.3780489, 106.7682953, 46.5853653, 0.406363
-1.2333984, 0.3027344, -0.4897461, 6.4024391, 108.2926865, 46.4634171, 0.3731289
-1.2299805, 0.2929688, -0.5073242, 4.6341462, 110.2439041, 45.3658562, 0.3160601
-1.2421875, 0.2856445, -0.4902344, 4.0853658, 109.2073212, 43.9024391, 0.2781262
-1.2421875, 0.2836914, -0.4526367, 3.0487804, 109.0853653, 42.3170738, 0.2465705
-1.2294922, 0.2749023, -0.4360352, 3.2926829, 110.9146347, 41.6463432, 0.2254215
-1.2250977, 0.2714844, -0.4477539, 3.8414636, 116.5243912, 40.7926826, 0.2210575
-1.2138672, 0.2666016, -0.4941406, 3.9024391, 119.5121994, 40.2439041, 0.2187076
-1.2231445, 0.2607422, -0.5214844, 2.6829269, 124.2073212, 40.4878044, 0.1361257
-1.2431641, 0.2495117, -0.5517578, 2.195122, 124.9390259, 40.9146347, 0.0746929
-1.2490234, 0.2451172, -0.5517578, 2.2560976, 124.6341476, 41.7073174, 0.0391089
-1.2548828, 0.2456055, -0.5439453, 3.2926829, 123.4756088, 41.8902435, 0.0025177
-1.2543945, 0.2509766, -0.5332031, 3.7804878, 123.7195129, 41.5853653, -0.0203098
-1.2460938, 0.2636719, -0.5239258, 4.2682929, 126.4634171, 40.4878044, -0.0095674
-1.2363281, 0.2753906, -0.5366211, 4.390244, 129.0243988, 40, -0.0505226
-1.2197266, 0.2685547, -0.5615234, 4.2682929, 133.2926788, 39.5121956, -0.103563
-1.2080078, 0.2485352, -0.5566406, 4.3292685, 133.9634247, 39.1463432, -0.0971847
-1.2026367, 0.2446289, -0.5419922, 5.1829271, 134.0243988, 37.9878044, -0.1075914
-1.1762695, 0.2333984, -0.5117188, 6.280488, 134.5731812, 37.2560997, -0.1097734
-1.1630859, 0.237793, -0.5141602, 8.5975609, 137.8048859, 36.8292694, -0.1143053
-1.1464844, 0.2573242, -0.543457, 9.0243902, 140.4268341, 37.1341476, -0.1119554
-1.1362305, 0.2568359, -0.5722656, 7.9878049, 145.5487823, 38.0487823, -0.0978561
-1.1445312, 0.2431641, -0.6240234, 7.8048782, 148.6585388, 38.7195129, -0.0753643
-1.1669922, 0.2387695, -0.6352539, 7.4390244, 148.1097565, 39.2682953, -0.0283665
-1.1977539, 0.2236328, -0.621582, 8.4146347, 145.1829376, 39.3902435, 0.0018463
-1.2104492, 0.2236328, -0.6010742, 9.2073174, 144.3902435, 39.1463432, 0.0572366
-1.1962891, 0.222168, -0.5717773, 10.6707315, 146.0975647, 38.2926826, 0.1092699
-1.1630859, 0.2270508, -0.5805664, 10.7926836, 148.9024353, 38.0487823, 0.1515679
-1.1499023, 0.2290039, -0.5893555, 9.8780489, 154.0243988, 38.2317085, 0.1931945
-1.1176758, 0.2255859, -0.6181641, 9.5731707, 155.7926941, 39.0853653, 0.2751049
-1.1083984, 0.2211914, -0.6420898, 9.6951218, 158.1097565, 40.3048782, 0.3355306
-1.1308594, 0.2143555, -0.6635742, 10.2439022, 158.5975647, 41.0365868, 0.3774929
-1.1430664, 0.2158203, -0.65625, 10.7317076, 157.3170776, 42.3780479, 0.4449683
-1.1430664, 0.2265625, -0.6269531, 12.3780489, 156.0975647, 43.5975609, 0.4936446
-1.1274414, 0.2338867, -0.6118164, 12.8658543, 157.1341553, 43.7804871, 0.5423209
-1.0986328, 0.2421875, -0.6269531, 13.0487804, 161.0365906, 42.9878044, 0.5963684
-1.0888672, 0.2382812, -0.6513672, 12.8048782, 163.4756165, 42.6829262, 0.6514229
-1.0996094, 0.2182617, -0.6831055, 11.8292685, 165.7317047, 43.2317085, 0.6484016
-1.1157227, 0.2246094, -0.6743164, 11.5853662, 164.6951294, 44.0243912, 0.6843214
-1.1040039, 0.2329102, -0.6660156, 11.6463413, 163.2317047, 46.6463432, 0.737026
-1.0791016, 0.2436523, -0.6577148, 11.8902445, 164.0853729, 47.2560997, 0.7605249
-1.0664062, 0.2456055, -0.6606445, 13.3536587, 168.0487823, 47.8658562, 0.7766384
-1.0493164, 0.2192383, -0.6933594, 13.6585369, 169.4512177, 47.4390259, 0.8219577
-1.059082, 0.2026367, -0.7070312, 13.5975609, 170.0609741, 45.7317085, 0.8108797
-1.0898438, 0.2036133, -0.7226562, 13.5365858, 169.7561035, 47.8048782, 0.7705959
-1.1035156, 0.2192383, -0.7226562, 13.9634151, 169.6341553, 49.8780518, 0.7262837
-1.1030273, 0.2617188, -0.7246094, 14.5121956, 168.9024506, 54.0243912, 0.6678721
-1.0854492, 0.2773438, -0.730957, 14.3292685, 169.0853729, 54.3292694, 0.6494087
-1.0585938, 0.2832031, -0.715332, 13.2317076, 170.6097565, 52.5, 0.6220493
-1.0415039, 0.2885742, -0.6787109, 13.1707315, 171.0975647, 51.1585388, 0.5859617
-1.027832, 0.2949219, -0.6665039, 13.5975609, 172.4390259, 48.4146347, 0.5715267
-0.9863281, 0.296875, -0.6865234, 14.1463413, 173.7804871, 47.9878044, 0.5228504
-0.9692383, 0.2885742, -0.7124023, 12.560976, 177.6829376, 47.7439041, 0.4745098
-0.9873047, 0.2597656, -0.7475586, 11.0365858, 179.6951294, 48.2926826, 0.391928
-1.0053711, 0.2509766, -0.7402344, 9.2073174, 179.4512177, 50.1219521, 0.3617151
-1.0317383, 0.2421875, -0.7036133, 10.5487804, 178.5365906, 52.0121956, 0.3644007
-1.03125, 0.2373047, -0.7021484, 12.0731707, 179.3292694, 52.2560997, 0.3811856
-1.0219727, 0.2260742, -0.7358398, 13.3536587, 183.4756165, 51.0365868, 0.3979706
-1.0268555, 0.222168, -0.7607422, 12.8048782, 185, 50.7317085, 0.4278477
-1.0561523, 0.2338867, -0.7875977, 10.3048782, 185.6707306, 52.3780518, 0.4160983
-1.046875, 0.2597656, -0.7817383, 9.6341467, 185.4268341, 54.5731735, 0.3808499
-1.0205078, 0.2695312, -0.7875977, 9.7560978, 185.8536682, 58.1707344, 0.3791714
-0.9853516, 0.269043, -0.8178711, 9.7560978, 186.5853729, 58.7804909, 0.3878996
-0.9814453, 0.2631836, -0.8320312, 8.3536587, 187.0731812, 57.9268303, 0.3803464
-0.9951172, 0.2373047, -0.8120117, 7.1951222, 185.9146423, 56.8902435, 0.3932708
-1.003418, 0.2304688, -0.7851562, 6.7073174, 183.5975647, 56.2804909, 0.4318761
-0.980957, 0.2211914, -0.7548828, 7.4390244, 184.6951294, 57.0731735, 0.4166018
-0.9633789, 0.2207031, -0.7724609, 7.4390244, 187.3170776, 57.8658562, 0.4530251
-0.9692383, 0.2236328, -0.8295898, 6.2195125, 192.1341553, 60.3048782, 0.4951553
-0.9833984, 0.2329102, -0.8500977, 5.4878049, 192.2561035, 62.1341476, 0.5287251
-0.9863281, 0.2724609, -0.8852539, 4.3292685, 190.36586, 66.1585388, 0.5674983
-0.9746094, 0.3012695, -0.8916016, 3.7804878, 188.9024506, 67.5, 0.6302739
-0.965332, 0.3051758, -0.887207, 2.6829269, 187.4390259, 67.3170776, 0.6658579
-0.9467773, 0.3076172, -0.8383789, 2.0731707, 187.1341553, 65.5487823, 0.7000992
-0.940918, 0.3134766, -0.8071289, 0.7317073, 187.1341553, 61.5853691, 0.7642176
-0.8876953, 0.3139648, -0.78125, -0.1219512, 190.7317047, 58.7804909, 0.8155795
-0.8662109, 0.3085938, -0.7983398, -1.0365853, 193.7195129, 57.8048782, 0.8598917
-0.8613281, 0.2919922, -0.8730469, -3.4146342, 199.146347, 58.1707344, 0.8724804
-0.8720703, 0.2890625, -0.8955078, -4.5731707, 199.8780518, 59.4512215, 0.8954757
-0.8950195, 0.2792969, -0.8603516, -5.4268293, 196.3414612, 62.6219521, 0.912932
-0.8886719, 0.2792969, -0.8320312, -4.6951222, 194.4512177, 63.4146347, 0.9327382
-0.8671875, 0.2924805, -0.8046875, -3.7195122, 196.8292694, 61.5853691, 0.9710079
-0.8647461, 0.3149414, -0.8378906, -4.0243902, 199.6341553, 60.9146347, 0.9612726
-0.8745117, 0.3183594, -0.8608398, -6.7073174, 205.6707306, 60.5487823, 0.9555657
-0.8925781, 0.3208008, -0.8999023, -8.5975609, 206.8292694, 61.0365868, 0.9532158
-0.8969727, 0.3105469, -0.9130859, -11.1585369, 207.012207, 62.1341476, 0.9532158
-0.8994141, 0.2929688, -0.9160156, -12.0731707, 206.8902435, 62.6219521, 0.9371023
-0.9072266, 0.2841797, -0.9106445, -11.9512196, 206.2804871, 62.8048782, 0.9300526
-0.9023438, 0.2739258, -0.9008789, -11.5853662, 205.36586, 62.2560997, 0.8733196
-0.8994141, 0.2724609, -0.8911133, -11.8292685, 205.9146423, 62.6219521, 0.7806668
-0.8847656, 0.2729492, -0.8808594, -12.1341467, 207.6829376, 63.4756126, 0.7326619
-0.8710938, 0.2709961, -0.8837891, -12.2560978, 208.9634247, 63.9024391, 0.6967422
-0.8427734, 0.2705078, -0.9204102, -12.8048782, 211.4634247, 64.9390259, 0.6645151
-0.8398438, 0.269043, -1.0136719, -12.4390249, 212.86586, 65.8536606, 0.6232242
-0.8608398, 0.2592773, -1.0488281, -12.8658543, 213.2926941, 68.9024429, 0.5597772
-0.9106445, 0.2573242, -1.0292969, -12.6219511, 210.6097565, 70.8536606, 0.4526894
-0.9150391, 0.2675781, -0.980957, -11.7682934, 201.1585388, 74.5121994, 0.3714504
-0.8583984, 0.2944336, -0.8798828, -9.8170738, 198.7195129, 74.8780518, 0.3194171
-0.8032227, 0.3105469, -0.8657227, -9.6951218, 201.646347, 73.2317123, 0.2737621
-0.7138672, 0.3261719, -0.8999023, -12.4390249, 210.4878082, 68.6585388, 0.2311284
-0.6928711, 0.3251953, -0.9365234, -15, 213.0487823, 67.68293, 0.2010834
-0.6772461, 0.3022461, -0.9824219, -18.4146347, 212.2561035, 68.8414688, 0.1473716
-0.6831055, 0.3022461, -0.9926758, -18.5975609, 210.3048859, 70.9756088, 0.0730144
-0.699707, 0.3081055, -0.9833984, -17.0121956, 207.1951294, 75.7317123, 0.0347448
-0.7099609, 0.3286133, -0.9555664, -16.1585369, 206.4024506, 77.3780518, 0.012253
-0.7163086, 0.3374023, -0.9404297, -15.9756098, 206.0365906, 78.2317123, 0.0038605
-0.6914062, 0.3520508, -0.9257812, -17.0121956, 206.7682953, 77.1951218, -0.0290379
-0.6772461, 0.3496094, -0.9233398, -20.060976, 210.4268341, 74.2682953, -0.0471656
-0.6606445, 0.3237305, -0.940918, -22.8658543, 214.8170776, 71.4024429, -0.0384375
-0.659668, 0.3144531, -0.9433594, -23.780489, 215.5487823, 71.3414688, -0.0142672
-0.6606445, 0.3310547, -0.9331055, -24.1463413, 216.2195129, 73.9024429, 0.0352483
-0.6425781, 0.3422852, -0.9365234, -23.780489, 216.8292694, 75.8536606, 0.0240024
-0.6030273, 0.3369141, -0.9682617, -24.5121956, 219.7561035, 77.8048782, 0.0374304
-0.6005859, 0.3183594, -0.9804688, -25.7317085, 220.8536682, 77.68293, 0.0508583
-0.6040039, 0.2568359, -0.9482422, -27.3170738, 219.8780518, 75.9146347, 0.0508583
-0.6064453, 0.2211914, -0.9287109, -26.8292694, 219.3292694, 75.4878082, 0.0736858
-0.6069336, 0.2358398, -0.9560547, -25.1829281, 221.646347, 78.1097565, 0.1367971
-0.6210938, 0.2573242, -1.0244141, -24.5121956, 223.8414612, 81.0975647, 0.1582818
-0.6357422, 0.2695312, -1.0449219, -23.780489, 223.7195129, 87.8658524, 0.1485466
-0.6401367, 0.2919922, -1.0610352, -24.2073174, 218.3536682, 92.68293, 0.1764096
-0.6308594, 0.3037109, -1.0737305, -24.7560978, 216.9512177, 93.5365906, 0.1831235
-0.6264648, 0.3149414, -1.1210938, -25.7317085, 217.1341553, 93.8414688, 0.1888304
-0.644043, 0.3125, -1.1318359, -26.2195129, 216.5243988, 93.5975647, 0.2005798
-0.6518555, 0.3125, -1.1274414, -25.4268303, 211.2195129, 93.6585388, 0.2066224
-0.6240234, 0.3120117, -1.1186523, -24.8780499, 208.2317047, 93.7195129, 0.1722133
-0.6015625, 0.3168945, -1.1166992, -24.6341476, 205.1219635, 93.4756088, 0.1686885
-0.5615234, 0.3300781, -1.0966797, -25.1219521, 204.8170776, 93.5365906, 0.1482109
-0.5498047, 0.3310547, -1.0600586, -26.280489, 202.9268341, 93.6585388, 0.1190051
-0.4760742, 0.3442383, -0.9995117, -26.280489, 201.2195129, 93.2317123, 0.1017166
-0.4208984, 0.3427734, -0.9995117, -27.4390259, 200.8536682, 91.5853653, 0.0817426
-0.362793, 0.3481445, -0.9951172, -30.2439022, 204.8170776, 88.9634171, 0.0139315
-0.3515625, 0.3535156, -0.9780273, -31.1585369, 205.1219635, 89.0243912, -0.0882887
-0.3227539, 0.3598633, -0.9736328, -30.7926846, 204.6951294, 89.5121994, -0.1566033
-0.3027344, 0.3618164, -0.9995117, -30.5487804, 205.4268341, 89.6341476, -0.2056153
-0.3105469, 0.3657227, -1.0634766, -31.7682934, 206.9512177, 90.1219559, -0.233814
-0.371582, 0.3642578, -1.0844727, -32.4390259, 206.1585388, 90.7926865, -0.2865187
-0.3994141, 0.3588867, -1.0649414, -34.1463432, 201.7682953, 91.5243912, -0.3590295
-0.4150391, 0.3520508, -1.0268555, -34.4512215, 200.6097565, 91.0975647, -0.4394293
-0.4047852, 0.3525391, -1.0322266, -34.5121956, 202.2561035, 88.8414688, -0.5040513
-0.3862305, 0.3491211, -1.0766602, -35.4878044, 204.512207, 87.0731735, -0.5718624
-0.3847656, 0.3452148, -1.0942383, -37.6219521, 206.0975647, 84.8170776, -0.6762646
-0.3662109, 0.3325195, -1.1147461, -39.0243912, 203.3536682, 85, -0.7346761
-0.359375, 0.3295898, -1.1083984, -38.9634171, 201.8292694, 85.7317123, -0.7729458
-0.3354492, 0.3276367, -1.1118164, -37.8658562, 199.6951294, 87.3780518, -0.8363928
-0.3217773, 0.3286133, -1.1142578, -37.6219521, 199.3292694, 87.9268341, -0.8676127
-0.2978516, 0.3232422, -1.0761719, -38.4146347, 197.0731812, 87.9878082, -0.8874189
-0.2607422, 0.3071289, -1.0644531, -38.841465, 196.0365906, 87.4390259, -0.9384451
-0.2509766, 0.2988281, -1.0712891, -39.9390259, 196.3414612, 86.5243912, -0.9965209
-0.2607422, 0.2993164, -1.0898438, -40.2439041, 197.3780518, 86.7073212, -1.0005493
-0.269043, 0.300293, -1.0986328, -39.3292694, 197.012207, 89.3902435, -1.0055848
-0.2631836, 0.3095703, -1.0825195, -38.1707344, 195.8536682, 90.7317123, -1.0032349
-0.2548828, 0.3188477, -1.0610352, -35.8536606, 193.1097565, 92.9268341, -0.9817502
-0.2104492, 0.3354492, -1.0322266, -35.6097565, 193.6585388, 92.1341476, -0.9381094
-0.1835938, 0.3388672, -1.0400391, -36.341465, 195.2439117, 91.1585388, -0.9360952
-0.1660156, 0.3295898, -1.0737305, -39.0243912, 197.2561035, 89.2073212, -0.9172961
-0.1748047, 0.3251953, -1.0795898, -40.0609779, 196.9512177, 88.9024429, -0.8901045
-0.1835938, 0.3266602, -1.0556641, -40.5487823, 193.7195129, 90.6707306, -0.8726482
-0.159668, 0.340332, -0.9765625, -39.8780479, 192.2561035, 91.7073212, -0.8535134
-0.1298828, 0.3393555, -0.9487305, -37.6219521, 193.3536682, 91.8292694, -0.780499
-0.074707, 0.3383789, -0.9414062, -37.6219521, 195.4268341, 90, -0.7420615
-0.0634766, 0.3364258, -0.9638672, -39.8780479, 199.6951294, 85.8536606, -0.733669
-0.0615234, 0.3291016, -1.0092773, -41.8292694, 200.8536682, 84.8170776, -0.6917067
-0.074707, 0.3300781, -1.0180664, -43.5365868, 200.7317047, 86.0975647, -0.6771038
-0.0942383, 0.3530273, -1.0268555, -43.2926826, 198.2317047, 90.0609741, -0.6589761
-0.1005859, 0.3647461, -1.0234375, -42.9268303, 197.5, 91.7073212, -0.6536049
-0.0898438, 0.3666992, -0.9833984, -42.8658562, 196.4024506, 91.2195129, -0.6510872
-0.081543, 0.3652344, -0.9580078, -43.4756126, 196.1585388, 89.3292694, -0.6648508
-0.0429688, 0.3349609, -0.9306641, -45.0609779, 198.9634247, 83.9024429, -0.6719005
-0.0273438, 0.2910156, -0.9643555, -46.0975609, 201.0365906, 81.7073212, -0.6661936
-0.0268555, 0.2744141, -0.9926758, -46.2195129, 204.3902435, 81.0975647, -0.7051347
-0.0561523, 0.2607422, -1.0371094, -45.3658562, 204.5731812, 82.68293, -0.6905318
-0.0742188, 0.262207, -1.0244141, -42.5609779, 201.8292694, 89.2073212, -0.6309453
-0.0766602, 0.2817383, -0.9912109, -41.0365868, 200.2439117, 91.9512253, -0.5668269
-0.065918, 0.2954102, -0.9790039, -39.3902435, 200.36586, 93.6585388, -0.4973373
-0.0512695, 0.3071289, -0.9829102, -40.5487823, 202.9268341, 91.7073212, -0.4412757
-0.0498047, 0.3100586, -0.9853516, -41.6463432, 203.5975647, 90.2439041, -0.4312047
-0.0341797, 0.296875, -0.9624023, -41.7682953, 202.3780518, 88.5365906, -0.4540322
-0.0234375, 0.2915039, -0.9389648, -41.2195129, 201.5853729, 88.2317123, -0.4523537
0.0170898, 0.2866211, -0.9140625, -39.2073174, 201.646347, 88.6585388, -0.4657816
0.0317383, 0.2929688, -0.9462891, -38.841465, 202.9268341, 89.2073212, -0.4963302
0.0292969, 0.3012695, -0.9624023, -39.3902435, 204.2073212, 90.3048782, -0.550042
0.0004883, 0.3208008, -0.9560547, -40.0609779, 203.3536682, 91.0975647, -0.5884794
-0.0014648, 0.3369141, -0.9599609, -40.7317085, 199.2073212, 92.6219559, -0.6771038
0, 0.3549805, -0.9492188, -41.2804871, 197.6219482, 92.7439041, -0.7185626
0.0058594, 0.3603516, -0.9213867, -42.8048782, 195.3048859, 91.646347, -0.7341726
0.0356445, 0.3388672, -0.8193359, -43.7804871, 193.4756165, 87.6219559, -0.7554894
0.0625, 0.3237305, -0.7729492, -43.6585388, 194.0243988, 84.9390259, -0.7679103
0.1176758, 0.3022461, -0.7543945, -43.2317085, 198.4756165, 80.18293, -0.7390402
0.1357422, 0.2929688, -0.796875, -44.0243912, 201.2804871, 78.9024429, -0.7632105
0.1274414, 0.2871094, -0.8754883, -45.9756126, 202.3170776, 81.2195129, -0.8031586
0.1000977, 0.2929688, -0.8408203, -46.6463432, 200.0609741, 83.7195129, -0.8058442
0.1083984, 0.2924805, -0.7963867, -45.5487823, 194.8170776, 87.8048782, -0.8066835
0.1367188, 0.2900391, -0.7666016, -44.4512215, 194.7561035, 87.4390259, -0.8065156
0.1333008, 0.2861328, -0.7817383, -43.1097565, 198.5975647, 82.7439041, -0.8045014
0.0952148, 0.2714844, -0.8349609, -42.6219521, 200.4268341, 80.6707306, -0.7717708
0.0708008, 0.2573242, -0.847168, -41.2804871, 199.9390259, 79.5121994, -0.6957351
0.0541992, 0.2387695, -0.8261719, -39.1463432, 195.7926941, 81.3414688, -0.5963684
0.0576172, 0.234375, -0.8032227, -38.3536606, 194.6341553, 82.1951218, -0.5134508
0.0742188, 0.2348633, -0.7822266, -37.6829262, 196.4024506, 83.2926865, -0.4782025
0.0786133, 0.2426758, -0.7841797, -37.3780479, 197.3780518, 83.7195129, -0.4305333
0.0927734, 0.2558594, -0.7788086, -35.9756088, 197.3170776, 84.0243912, -0.3831998
0.1049805, 0.2460938, -0.7724609, -35.0609779, 195.9146423, 83.8414688, -0.3083391
0.1030273, 0.2441406, -0.7592773, -33.1707306, 194.0853729, 82.6219559, -0.233814
0.0952148, 0.2402344, -0.7373047, -32.3780479, 193.2926941, 82.0731735, -0.1522393
0.0869141, 0.2504883, -0.7280273, -29.9390259, 193.8414612, 82.0121994, -0.1216907
0.0722656, 0.269043, -0.715332, -28.2926826, 193.7804871, 82.1341476, -0.10692
0.0722656, 0.2734375, -0.7197266, -27.8658543, 192.86586, 81.8902435, -0.0740215
0.059082, 0.2802734, -0.7480469, -28.5975609, 190.9146423, 81.1585388, -0.0347448
0.0400391, 0.2880859, -0.7299805, -29.0853672, 189.3902435, 80.6097565, 0.0035248
0.0415039, 0.3037109, -0.628418, -28.9024391, 185.2439117, 79.3902435, 0.0431373
0.0693359, 0.3100586, -0.5893555, -28.841465, 184.6341553, 78.0487823, 0.1008774
0.1411133, 0.3081055, -0.5581055, -30.3048782, 189.0243988, 73.7804871, 0.0904707
0.175293, 0.2841797, -0.5654297, -31.7682934, 190.9146423, 71.6463394, 0.0911421
0.1831055, 0.2636719, -0.590332, -34.6341476, 191.4024506, 69.2073212, 0.1149767
0.1625977, 0.2231445, -0.6362305, -35.4268303, 190.36586, 69.5121994, 0.115816
0.1342773, 0.2114258, -0.6357422, -35.6707344, 186.2195129, 71.6463394, 0.0896315
0.0751953, 0.2036133, -0.6015625, -35.3658562, 180.8536682, 74.3902435, 0.076875
0.0625, 0.2016602, -0.5800781, -34.8170738, 179.5731812, 74.5731735, -0.0146029
0.0537109, 0.1958008, -0.5751953, -33.9634171, 179.9390259, 73.7195129, -0.124712
0.0507812, 0.1967773, -0.5927734, -33.1707306, 179.8780518, 72.6219559, -0.1331044
0.0463867, 0.2011719, -0.6015625, -32.8048782, 176.8292694, 71.6463394, -0.121355
0.0556641, 0.2055664, -0.5859375, -32.4390259, 173.7804871, 71.9512177, -0.0785534
0.1123047, 0.2006836, -0.5395508, -32.3170738, 170.1829376, 72.1341476, -0.0666361
0.1601562, 0.175293, -0.5175781, -32.7439041, 170.1219482, 72.0121994, -0.0814069
0.1738281, 0.159668, -0.5117188, -33.3536606, 170.3048859, 70.7926865, -0.0891279
0.1757812, 0.1269531, -0.5092773, -32.9878044, 169.5121918, 70.3048782, -0.1015488
0.175293, 0.1240234, -0.5058594, -31.9512196, 165.7926941, 71.5853653, -0.119173
0.1743164, 0.1303711, -0.484375, -31.6463413, 162.3170776, 74.5121994, -0.191516
0.1748047, 0.1381836, -0.4736328, -31.6463413, 161.4634247, 75.8536606, -0.2467384
0.1816406, 0.1665039, -0.4643555, -31.8292694, 160.7926941, 77.5609741, -0.315053
0.1865234, 0.1782227, -0.4550781, -31.9512196, 160.36586, 77.5609741, -0.3848783
0.2075195, 0.2026367, -0.4384766, -32.1341476, 157.8048859, 76.1585388, -0.4688029
0.2192383, 0.2045898, -0.4306641, -32.1951218, 156.0365906, 74.7560959, -0.533257
0.2387695, 0.1992188, -0.4121094, -33.1707306, 152.5609741, 71.5853653, -0.5913329
0.2421875, 0.1879883, -0.3974609, -33.5365868, 151.0975647, 69.9390259, -0.5873045
0.2485352, 0.1806641, -0.3813477, -33.0487823, 148.2317047, 68.5365906, -0.4862593
0.2558594, 0.1547852, -0.3359375, -32.1951218, 146.1585388, 67.8658524, -0.3185779
0.2700195, 0.144043, -0.3134766, -31.0975609, 141.4634247, 65.9756088, -0.1294118
0.2900391, 0.128418, -0.2514648, -29.7560978, 139.8170776, 63.2926826, 0.0626078
0.296875, 0.1264648, -0.2319336, -29.1463413, 139.5121918, 62.0121956, 0.2153506
0.3242188, 0.1308594, -0.230957, -27.5, 139.6951294, 61.2195129, 0.235996
0.3339844, 0.137207, -0.2446289, -26.280489, 139.7561035, 61.341465, 0.219379
0.34375, 0.1586914, -0.2866211, -24.6951218, 137.1951294, 62.2560997, 0.1676814
0.3491211, 0.1650391, -0.3134766, -24.7560978, 134.8170776, 62.3170738, 0.085771
0.3393555, 0.1601562, -0.3325195, -26.1585369, 128.7195129, 61.5243912, 0.0407874
0.3188477, 0.1357422, -0.3022461, -27.1951218, 125.4878082, 60.3048782, 0.0387732
0.3056641, 0.1206055, -0.2709961, -27.3170738, 119.7561035, 56.7682953, -0.0035248
0.2915039, 0.0922852, -0.2241211, -26.4024391, 117.7439041, 55.1219521, -0.0005035
0.2944336, 0.081543, -0.2163086, -23.5975609, 114.8170776, 52.3170738, 0.0891279
0.3173828, 0.0771484, -0.2304688, -21.9512196, 112.0731735, 51.8292694, 0.2187076
0.3354492, 0.0717773, -0.2514648, -21.5243912, 110.36586, 52.5, 0.4013275
0.3769531, 0.0708008, -0.2670898, -21.9512196, 105.1219559, 54.4512215, 0.5668269
0.3925781, 0.0751953, -0.2661133, -22.2560978, 101.7073212, 55.3658562, 0.7111772
0.4238281, 0.081543, -0.230957, -22.6219521, 95.6097565, 55.7926826, 0.8241398
0.449707, 0.078125, -0.2011719, -22.560976, 93.2926865, 55.3048782, 0.8696269
0.4541016, 0.0800781, -0.1889648, -21.6463413, 89.5731735, 52.9268303, 0.8565347
0.4750977, 0.0805664, -0.1508789, -21.7073174, 87.1951218, 51.6463432, 0.7900664
0.4921875, 0.0751953, -0.1328125, -21.8292694, 83.4146347, 49.0243912, 0.7665675
0.5341797, 0.0625, -0.1142578, -21.7073174, 82.6219559, 47.8658562, 0.7410544
0.5473633, 0.0561523, -0.1142578, -20.7926826, 80.1219559, 46.2195129, 0.6819715
0.5771484, 0.0415039, -0.0922852, -20.6097565, 76.4634171, 44.8170738, 0.6014038
0.5898438, 0.0380859, -0.0810547, -20.2439022, 75, 44.1463432, 0.5493706
0.5976562, 0.0537109, -0.0688477, -19.2682934, 71.8902435, 42.8658562, 0.4778668
0.6000977, 0.0678711, -0.0688477, -18.9634151, 70.6097565, 42.4390259, 0.3890745
0.6113281, 0.0800781, -0.0800781, -19.5121956, 68.9634171, 41.4024391, 0.3409018
0.6240234, 0.0786133, -0.0864258, -19.5121956, 67.5609741, 40.2439041, 0.2630198
0.6313477, 0.0688477, -0.0800781, -20.3658543, 63.9634171, 36.5853653, 0.1656672
0.6396484, 0.0419922, -0.0517578, -20.3048782, 62.1341476, 34.2073174, 0.1010452
0.6381836, 0.0273438, -0.0395508, -19.0243912, 59.2073174, 30.4878063, 0.0446479
0.6435547, 0.0273438, -0.0302734, -18.4146347, 57.3780518, 29.6341476, -0.0522011
0.6494141, 0.0351562, -0.0307617, -17.2560978, 53.6585388, 29.3292694, -0.1190051
0.6611328, 0.0610352, -0.0454102, -17.1951218, 51.4024391, 30.1219521, -0.178088
0.6733398, 0.0722656, -0.0517578, -17.439024, 49.8170738, 30.1219521, -0.2458991
0.7006836, 0.0751953, -0.0595703, -18.5975609, 45.6097565, 28.2317085, -0.3002823
0.7119141, 0.0673828, -0.0507812, -19.1463413, 43.2926826, 26.4024391, -0.2969253
0.7241211, 0.034668, -0.0263672, -19.1463413, 39.0243912, 21.8292694, -0.3063249
0.7290039, 0.0136719, -0.0048828, -18.7195129, 36.8902435, 19.8170738, -0.3192493
0.7373047, 0.0097656, 0.0112305, -17.9878044, 32.2560997, 18.3536587, -0.2845045
0.7592773, 0.0048828, 0.0200195, -17.8048782, 30.7317085, 18.5365849, -0.2715801
0.7768555, 0.0058594, 0.0083008, -16.7073174, 28.841465, 19.4512196, -0.2546273
0.7919922, 0.0175781, -0.0551758, -16.2195129, 27.3780499, 19.8170738, -0.2536202
0.7910156, 0.0214844, -0.0874023, -17.0121956, 21.0975609, 19.5121956, -0.2311284
0.78125, 0.0292969, -0.0683594, -19.3902435, 12.560976, 18.0487804, -0.1827878
0.7851562, 0.0219727, -0.0258789, -20.6707325, 8.3536587, 16.7073174, -0.1361257
0.8149414, -0.0126953, 0.0678711, -19.6951218, 5, 13.1097565, -0.0820783
0.8295898, -0.0327148, 0.0805664, -17.560976, 4.8780489, 11.280488, -0.0639506
0.8291016, -0.0473633, 0.0610352, -13.9634151, 1.7073171, 9.4512196, -0.0250095
0.8310547, -0.0170898, 0.0112305, -13.0487804, -1.2195122, 9.7560978, 0.0602579
0.8422852, 0.0039062, -0.0009766, -13.9024391, -6.5243902, 12.4390249, 0.1220264
0.8662109, 0.0263672, 0.0141602, -14.9390249, -8.780488, 13.7195129, 0.1522393
0.875, 0.0395508, 0.0307617, -16.7073174, -13.0487804, 13.0487804, 0.1539178
0.8886719, 0.0571289, 0.043457, -16.9512196, -14.7560978, 11.280488, 0.0582437
0.8862305, 0.0620117, 0.0478516, -15.6097565, -18.1707325, 6.5243902, -0.061265
0.8823242, 0.0708008, 0.0439453, -14.3292685, -20.9756107, 2.3170731, -0.0854353
0.8808594, 0.0664062, 0.0400391, -14.2073174, -22.439024, 0.6707317, -0.0290379
0.8876953, 0.0454102, 0.03125, -15.1219511, -25.9146347, -2.1341465, 0.1465324
0.8916016, 0.03125, 0.0273438, -15.9146347, -27.8658543, -2.9878049, 0.4332189
0.8911133, 0.0175781, 0.0507812, -17.3170738, -32.0121956, -4.5121951, 0.7054704
0.8867188, 0.027832, 0.059082, -17.1951218, -33.7804871, -4.8780489, 0.7883879
0.8798828, 0.0405273, 0.0395508, -15.7926836, -35.7926826, -5.4268293, 0.7663996
0.8583984, 0.0585938, -0.012207, -14.6341467, -36.6463432, -6.3414636, 0.6739147
0.8388672, 0.0668945, -0.0410156, -13.4146347, -41.5853653, -8.9024391, 0.6121462
0.8056641, 0.0708008, -0.0600586, -13.9024391, -45.1219521, -10.6707315, 0.6630045
0.7963867, 0.0688477, -0.0449219, -16.0365849, -51.341465, -13.4146347, 0.8175937
0.7832031, 0.0698242, 0, -16.2195129, -56.0975609, -16.0365849, 1.0039063
0.7851562, 0.0805664, 0.0151367, -16.280489, -57.68293, -16.6463413, 1.1633631
0.8007812, 0.1015625, 0.0102539, -16.1585369, -60.3048782, -18.4756107, 1.3117418
0.8149414, 0.1118164, -0.0053711, -16.7682934, -61.5243912, -19.0853672, 1.3698177
0.828125, 0.1181641, -0.046875, -18.5975609, -63.5365868, -21.7073174, 1.3053635
0.8173828, 0.0932617, -0.1025391, -19.5731716, -65.18293, -23.0487804, 1.131136
0.8017578, 0.074707, -0.1210938, -20.7926826, -71.4024429, -26.1585369, 0.9270314
0.7646484, 0.0415039, -0.1235352, -20.9146347, -75.6097565, -27.3170738, 0.782681
0.7485352, 0.0244141, -0.1044922, -21.9512196, -83.7804871, -29.1463413, 0.7296407
0.7202148, 0.0185547, -0.0688477, -22.3780499, -87.0731735, -29.7560978, 0.7464256
0.7089844, 0.0244141, -0.0649414, -21.8902435, -91.4634171, -30.1219521, 0.7561608
0.706543, 0.0522461, -0.0957031, -20.5487804, -94.3902435, -29.0853672, 0.7904021
0.7041016, 0.0668945, -0.1206055, -19.8780499, -95.9146347, -28.3536587, 0.797116
0.6982422, 0.1000977, -0.1660156, -19.0243912, -101.1585388, -28.5975609, 0.7423972
0.6987305, 0.1147461, -0.1821289, -19.2682934, -104.6951218, -29.2682934, 0.6665293
0.7045898, 0.1220703, -0.1674805, -21.0975609, -110.9756088, -32.3170738, 0.6010681
0.7114258, 0.1103516, -0.1152344, -21.8902435, -113.8414688, -34.2682953, 0.518822
0.7177734, 0.1088867, -0.0942383, -22.0121956, -117.9878082, -37.9878044, 0.4172732
0.7265625, 0.1098633, -0.0698242, -22.1341476, -118.9634171, -39.2682953, 0.3791714
0.7319336, 0.112793, -0.0722656, -22.0121956, -120.5487823, -41.1585388, 0.3617151
0.7329102, 0.128418, -0.0703125, -22.0121956, -120.8536606, -41.5243912, 0.3680934
0.7363281, 0.1469727, -0.0664062, -23.7195129, -122.6219559, -42.2560997, 0.3858854
0.7475586, 0.1689453, -0.0751953, -26.0365868, -123.9024429, -43.4756126, 0.3905852
0.7563477, 0.1777344, -0.0957031, -27.0731716, -123.6585388, -44.5731735, 0.3210956
0.7543945, 0.1669922, -0.1938477, -27.1951218, -121.4634171, -47.9268303, 0.2573129
0.7280273, 0.144043, -0.2456055, -25.7317085, -121.7073212, -49.5731735, 0.2240787
0.6445312, 0.0952148, -0.2871094, -23.5365868, -128.7804871, -53.1097565, 0.2210575
0.5742188, 0.0766602, -0.2421875, -22.5, -134.3292694, -54.0853653, 0.2267643
0.546875, 0.0795898, -0.2128906, -20.2439022, -141.1585388, -55, 0.2881971
0.5253906, 0.1162109, -0.2094727, -18.780489, -141.9512177, -55, 0.3315023
0.5273438, 0.1411133, -0.234375, -16.5853653, -140.5487823, -53.6585388, 0.3432517
0.5444336, 0.1845703, -0.2949219, -15.5487804, -140.9756165, -53.4756126, 0.3664149
0.5541992, 0.2021484, -0.3217773, -15.8536587, -143.1707306, -53.841465, 0.3546654
0.5708008, 0.2124023, -0.3432617, -16.9512196, -149.2073212, -56.0975609, 0.3261311
0.5756836, 0.2119141, -0.3540039, -18.5975609, -152.4390259, -58.1097565, 0.2710765
0.5688477, 0.1992188, -0.3725586, -20.3658543, -157.3170776, -62.3780518, 0.2166934
0.5527344, 0.1928711, -0.3662109, -21.5243912, -159.4512177, -64.2073212, 0.1666743
0.5126953, 0.1713867, -0.3466797, -21.9512196, -164.8170776, -66.5853653, 0.1190051
0.4794922, 0.1821289, -0.3208008, -21.4024391, -167.0731812, -67.3170776, 0.0975204
0.4746094, 0.1914062, -0.3164062, -20.1829281, -170.3048859, -67.1951218, 0.0428016
0.4790039, 0.2124023, -0.3295898, -19.939024, -170.9756165, -67.5, 0.0265202
0.4814453, 0.2119141, -0.3427734, -21.0975609, -172.5609741, -68.4146347, 0.0152743
0.4985352, 0.2143555, -0.362793, -23.5975609, -175.1829376, -70.1219559, -0.0347448
0.5087891, 0.2163086, -0.3666992, -24.6951218, -176.646347, -70.9146347, -0.0740215
0.5058594, 0.222168, -0.3510742, -25.4268303, -179.146347, -72.2560959, -0.0758679
0.5004883, 0.234375, -0.3359375, -25.2439022, -180.8536682, -73.0487823, -0.1220264
0.5029297, 0.2680664, -0.3198242, -26.2195129, -183.1707306, -74.1463394, -0.2029297
0.512207, 0.2797852, -0.3310547, -27.2560978, -183.2317047, -74.8170776, -0.2975967
0.527832, 0.2729492, -0.4238281, -30.2439022, -181.1585388, -77.1341476, -0.4036774
0.4858398, 0.2436523, -0.5273438, -31.0365868, -181.2195129, -78.1707306, -0.4849165
0.4462891, 0.2280273, -0.5693359, -31.0975609, -185.2439117, -78.7804871, -0.5376211
0.3642578, 0.2084961, -0.5898438, -30.1219521, -189.2682953, -78.6585388, -0.546685
0.3227539, 0.2089844, -0.5771484, -26.9512196, -198.1097565, -78.2926865, -0.6091249
0.269043, 0.2202148, -0.5673828, -24.2073174, -203.4756165, -77.9268341, -0.6762646
0.262207, 0.2226562, -0.5859375, -22.6829281, -203.6585388, -77.9878082, -0.7878843
0.25, 0.2158203, -0.6582031, -19.6341476, -202.9878082, -78.1097565, -0.9562371
0.2397461, 0.2089844, -0.6777344, -18.2926826, -204.4512177, -77.8048782, -1.1177081
