Application:, Trigno Discover (1.6.5)
Date/Time:, 29/01/2025 16:14:55
Collection Length (seconds):, 39.555
wrist (81457), , , , , , bicep (81139)
sensor mode: 609, , , , , , sensor mode: 40
ACC X (G), ACC Y (G), ACC Z (G), GYRO X (deg/s), GYRO Y (deg/s), GYRO Z (deg/s), EMG 1 (mV)
370.3704 Hz, 370.3704 Hz, 370.3704 Hz, 370.3704 Hz, 370.3704 Hz, 370.3704 Hz, 2148.1481 Hz
0.9848633, -0.0673828, -0.1083984, -3.6585367, -9.5121956, 8.3536587, -0.0409552
0.9863281, -0.0566406, -0.1186523, -3.1097562, -9.1463413, 8.1707315, -0.0386053
0.9858398, -0.0561523, -0.1240234, -3.4756098, -9.0853662, 7.8658538, -0.0419623
0.984375, -0.0512695, -0.1337891, -3.7804878, -9.2073174, 7.6829271, -0.0433051
0.9819336, -0.050293, -0.1362305, -5.2439027, -10, 7.0731707, -0.0419623
0.9794922, -0.0595703, -0.1333008, -6.890244, -10.9146347, 6.6463418, -0.0433051
0.9814453, -0.0610352, -0.1313477, -7.5, -11.8292685, 6.4634147, -0.0412909
0.9741211, -0.0712891, -0.1191406, -8.6585369, -12.7439032, 6.280488, -0.0406195
0.9790039, -0.0791016, -0.1108398, -8.9024391, -12.9878054, 6.5243902, -0.0392767
0.9819336, -0.081543, -0.1005859, -8.4756098, -13.2926836, 6.9512196, -0.0426337
0.9868164, -0.0849609, -0.090332, -8.2926826, -13.1097565, 7.1951222, -0.0446479
0.9892578, -0.0859375, -0.0908203, -6.7073174, -12.4390249, 7.0731707, -0.0446479
0.9995117, -0.0834961, -0.097168, -6.0975609, -11.8292685, 7.0731707, -0.0500191
1.0019531, -0.0830078, -0.1064453, -4.7560978, -10.8536587, 7.3170733, -0.0540475
1.0117188, -0.0825195, -0.1206055, -4.5121951, -10.6097565, 7.3780489, -0.0520333
1.0141602, -0.0795898, -0.1269531, -4.9390244, -10.1829271, 7.7439027, -0.0486763
1.0141602, -0.0712891, -0.1386719, -5.8536587, -10.1829271, 8.0487804, -0.0513619
1.0107422, -0.0649414, -0.1367188, -6.2195125, -10.4878054, 7.8658538, -0.0513619
1.0097656, -0.0600586, -0.1386719, -7.1341467, -10.9146347, 7.8658538, -0.0469978
1.0068359, -0.0625, -0.1337891, -7.3780489, -10.9146347, 7.5, -0.0473335
1.0043945, -0.0673828, -0.1318359, -7.7439027, -10.8536587, 6.5243902, -0.0493477
0.9975586, -0.0766602, -0.1318359, -8.1707315, -11.0975609, 6.4024391, -0.0496834
0.9956055, -0.0839844, -0.1289062, -8.1707315, -10.8536587, 5.9146342, -0.0453193
0.9912109, -0.0898438, -0.1264648, -7.9878049, -10.9146347, 5.670732, -0.0459907
0.9873047, -0.0922852, -0.1225586, -8.4146347, -10.7317076, 5.609756, -0.0446479
0.9819336, -0.1025391, -0.1206055, -7.9878049, -10.6707315, 5.7926831, -0.0473335
0.9804688, -0.105957, -0.1176758, -7.3780489, -10.6707315, 6.1585369, -0.0506905
0.9804688, -0.1123047, -0.1147461, -6.0365853, -10.5487804, 6.2195125, -0.0500191
0.9848633, -0.1088867, -0.1157227, -5.2439027, -10.3048782, 6.2195125, -0.0473335
0.9882812, -0.109375, -0.1210938, -3.4756098, -9.5121956, 6.0975609, -0.0500191
0.9946289, -0.1103516, -0.1337891, -2.6219513, -9.1463413, 6.4024391, -0.0493477
0.9985352, -0.1069336, -0.1401367, -1.2804878, -8.6585369, 6.4024391, -0.0459907
1.0063477, -0.0996094, -0.1538086, -0.6707317, -7.8658538, 6.6463418, -0.0466621
1.0063477, -0.0913086, -0.1538086, -1.402439, -7.9878049, 7.1341467, -0.0500191
1.0078125, -0.0810547, -0.1479492, -1.8292683, -8.1097565, 7.2560978, -0.0500191
1.0102539, -0.0776367, -0.1420898, -3.3536587, -8.9024391, 7.7439027, -0.0486763
1.0073242, -0.0722656, -0.1333008, -4.0243902, -9.2073174, 7.5609756, -0.0433051
1.012207, -0.0708008, -0.1259766, -4.2682929, -9.5731707, 7.2560978, -0.0463264
1.0146484, -0.0761719, -0.1181641, -3.7804878, -9.5731707, 6.3414636, -0.0486763
1.0092773, -0.0869141, -0.1098633, -3.5365853, -9.2682924, 5.8536587, -0.0486763
1.012207, -0.0991211, -0.1123047, -2.195122, -8.5975609, 4.8780489, -0.0530404
1.003418, -0.1162109, -0.1157227, -1.0365853, -8.3536587, 4.9390244, -0.0513619
0.9980469, -0.1210938, -0.1152344, 0.9756098, -7.7439027, 5, -0.0513619
0.9902344, -0.1269531, -0.1152344, 1.5853659, -7.7439027, 5.2439027, -0.0486763
0.9868164, -0.1259766, -0.1098633, 2.6219513, -7.6219516, 6.0365853, -0.0560616
0.9868164, -0.1313477, -0.1064453, 3.3536587, -8.0487804, 6.280488, -0.0594186
0.9863281, -0.1289062, -0.1025391, 4.8170733, -7.9878049, 6.8292685, -0.0540475
0.9951172, -0.1206055, -0.0927734, 5.7926831, -8.1097565, 7.5, -0.056733
0.9936523, -0.121582, -0.0864258, 8.5365858, -7.1341467, 7.6829271, -0.0597543
1.0009766, -0.1171875, -0.0883789, 10.8536587, -5.8536587, 7.6829271, -0.0594186
1.0009766, -0.1162109, -0.0947266, 12.1951218, -5.609756, 7.6829271, -0.056733
1.0029297, -0.1123047, -0.1054688, 14.2073174, -5.1829271, 7.2560978, -0.0493477
1.0029297, -0.1123047, -0.121582, 14.3902445, -5.0609756, 7.3170733, -0.0513619
0.9975586, -0.1123047, -0.1298828, 14.6341467, -5.1219511, 7.1951222, -0.0459907
1, -0.1069336, -0.1352539, 14.2073174, -5.2439027, 7.7439027, -0.0419623
0.996582, -0.0991211, -0.1342773, 12.560976, -5.8536587, 7.8658538, -0.0439765
0.9931641, -0.0869141, -0.1342773, 11.7682934, -6.2195125, 7.8658538, -0.0406195
0.9921875, -0.0825195, -0.1328125, 10.3048782, -6.0975609, 8.2317076, -0.0433051
0.9921875, -0.0698242, -0.1303711, 9.3902445, -6.1585369, 8.3536587, -0.0412909
0.9897461, -0.0664062, -0.1342773, 8.2317076, -6.4024391, 7.8658538, -0.0352483
0.9995117, -0.0668945, -0.1401367, 7.5609756, -6.7073174, 7.1951222, -0.0409552
1, -0.0795898, -0.1538086, 6.890244, -6.9512196, 6.7682929, -0.0392767
0.9960938, -0.0791016, -0.1645508, 4.8780489, -8.1097565, 5.9756098, -0.0409552
1, -0.0834961, -0.171875, 3.4756098, -8.719512, 6.4634147, -0.0406195
0.9956055, -0.0839844, -0.1708984, 0.7317073, -9.3902445, 6.890244, -0.0352483
0.9951172, -0.081543, -0.1611328, -0.3658537, -8.9634151, 7.3780489, -0.0365911
0.9995117, -0.0805664, -0.1538086, -1.8292683, -9.0243902, 7.5609756, -0.0412909
1.0039062, -0.0825195, -0.1542969, -2.195122, -9.2682924, 7.6219516, -0.0473335
1.0068359, -0.0825195, -0.1572266, -3.1097562, -10.1219511, 7.0121951, -0.0433051
1.0161133, -0.0864258, -0.1606445, -3.5975611, -10.5487804, 6.7682929, -0.0419623
1.0170898, -0.0913086, -0.1635742, -5.7317076, -11.280488, 6.5243902, -0.0392767
1.0249023, -0.1005859, -0.1606445, -7.1951222, -11.6463413, 6.280488, -0.0365911
1.0317383, -0.1103516, -0.1572266, -7.3170733, -11.5243902, 5.9146342, -0.0433051
1.0341797, -0.1191406, -0.1586914, -7.4390244, -11.0365858, 6.1585369, -0.0500191
1.0327148, -0.1254883, -0.1494141, -7.0121951, -10.6707315, 6.0365853, -0.0476692
1.0239258, -0.1279297, -0.1469727, -6.6463418, -10.1829271, 5.9756098, -0.0466621
1.0244141, -0.1308594, -0.1445312, -6.7073174, -9.7560978, 6.1585369, -0.0506905
1.0200195, -0.1347656, -0.1435547, -5.2439027, -9.0243902, 5.9146342, -0.0513619
1.0136719, -0.1357422, -0.1445312, -4.8780489, -8.4756098, 6.2195125, -0.0493477
1.0141602, -0.1328125, -0.1450195, -4.1463413, -8.0487804, 6.4634147, -0.0500191
1.0107422, -0.1347656, -0.1494141, -3.5975611, -7.6829271, 6.5243902, -0.0453193
1.0126953, -0.1293945, -0.1538086, -3.5365853, -7.7439027, 6.9512196, -0.0493477
1.0136719, -0.1225586, -0.1518555, -4.6341462, -8.3536587, 6.8292685, -0.0459907
1.0102539, -0.1171875, -0.1464844, -5.1219511, -8.2317076, 6.8292685, -0.0473335
1.0043945, -0.1176758, -0.1455078, -5.4878049, -7.5609756, 6.7682929, -0.0473335
1.0053711, -0.1186523, -0.1489258, -5.5487804, -7.1341467, 6.5853658, -0.0463264
1.0024414, -0.1142578, -0.1547852, -5.1219511, -7.0121951, 6.9512196, -0.0463264
1.0073242, -0.1230469, -0.1655273, -5.2439027, -7.3170733, 6.8292685, -0.0453193
1.0097656, -0.1240234, -0.1743164, -7.0731707, -8.1097565, 6.9512196, -0.0419623
1.0019531, -0.1220703, -0.171875, -8.4756098, -8.2926826, 6.7073174, -0.0459907
1, -0.1206055, -0.1713867, -10.5487804, -8.4146347, 6.890244, -0.0500191
0.9951172, -0.1191406, -0.1645508, -11.4634151, -9.1463413, 7.0731707, -0.0486763
0.9975586, -0.1230469, -0.1616211, -12.0731707, -9.3902445, 7.4390244, -0.0513619
1.0053711, -0.1289062, -0.1630859, -13.0487804, -10.2439022, 7.8048782, -0.0513619
1.0146484, -0.1323242, -0.1645508, -13.7195129, -10.6707315, 7.8658538, -0.0469978
1.0170898, -0.1323242, -0.1630859, -15, -11.0365858, 7.8658538, -0.0513619
1.0209961, -0.1362305, -0.1547852, -15.4268293, -11.1585369, 7.6829271, -0.0486763
1.0214844, -0.1367188, -0.1455078, -16.280489, -11.0365858, 7.6829271, -0.0486763
1.0205078, -0.144043, -0.125, -16.1585369, -11.4024391, 7.9268293, -0.0486763
1.0136719, -0.1445312, -0.1201172, -15.6707325, -10.8536587, 7.5, -0.0459907
1.0136719, -0.1518555, -0.1118164, -14.7560978, -10.5487804, 7.6219516, -0.0473335
1.0126953, -0.1542969, -0.1142578, -13.2926836, -9.6951218, 7.5609756, -0.0473335
1.0053711, -0.1547852, -0.1176758, -11.5853662, -8.9634151, 7.5609756, -0.0473335
1.0048828, -0.1572266, -0.1259766, -10.8536587, -8.5975609, 7.3170733, -0.0436408
0.9980469, -0.1606445, -0.1391602, -10.4268293, -8.2926826, 8.1097565, -0.0463264
0.9975586, -0.1577148, -0.1523438, -10.4268293, -8.2926826, 8.4756098, -0.0419623
0.9985352, -0.1582031, -0.1533203, -11.341464, -9.0853662, 9.2073174, -0.0419623
1.0039062, -0.1489258, -0.15625, -11.8902445, -9.4512196, 9.5121956, -0.0486763
1.0073242, -0.1450195, -0.1538086, -12.9268293, -10.2439022, 9.9390249, -0.0399481
1.0092773, -0.1333008, -0.1425781, -13.3536587, -10.2439022, 10.3048782, -0.0433051
1.015625, -0.1303711, -0.1391602, -13.5975609, -10.1829271, 10.9756098, -0.0439765
1.0180664, -0.1210938, -0.1367188, -13.4146347, -10.1829271, 10.9756098, -0.0433051
1.0205078, -0.1191406, -0.1386719, -13.1707315, -9.7560978, 10.6707315, -0.0433051
1.0249023, -0.1166992, -0.1459961, -13.5975609, -9.3292685, 10.1219511, -0.0486763
1.0239258, -0.1191406, -0.1523438, -13.780488, -9.3902445, 9.6951218, -0.0446479
1.0126953, -0.1274414, -0.159668, -15.4878054, -9.8170738, 9.3292685, -0.0359197
1.0024414, -0.1323242, -0.1582031, -16.4634151, -9.6951218, 9.2073174, -0.0386053
0.9931641, -0.1376953, -0.1591797, -18.2317085, -10.6707315, 9.5731707, -0.0379339
0.9848633, -0.1411133, -0.1567383, -18.7195129, -10.9756098, 9.8170738, -0.0339055
0.9814453, -0.1459961, -0.1513672, -19.5731716, -11.7073174, 10.6097565, -0.0365911
0.9819336, -0.1489258, -0.1430664, -20.1829281, -12.0121956, 10.9756098, -0.0409552
0.9829102, -0.1523438, -0.140625, -20.3658543, -11.8902445, 11.6463413, -0.0419623
0.9824219, -0.1586914, -0.1430664, -20.4268303, -11.8902445, 11.7682934, -0.0453193
0.9853516, -0.159668, -0.1469727, -20, -12.1951218, 11.8292685, -0.0473335
0.9902344, -0.1674805, -0.1518555, -20.1219521, -12.0731707, 11.8902445, -0.0433051
0.9902344, -0.1713867, -0.1542969, -20.4878044, -12.1341467, 11.8902445, -0.0372625
0.9882812, -0.1733398, -0.1518555, -20.8536587, -12.4390249, 12.0121956, -0.0419623
0.9838867, -0.1733398, -0.1376953, -21.0365868, -12.4390249, 12.560976, -0.0439765
0.9799805, -0.1738281, -0.1337891, -20.9146347, -12.5, 12.9268293, -0.0433051
0.9765625, -0.1679688, -0.1240234, -20.9756107, -12.6829271, 13.1707315, -0.0433051
0.9760742, -0.1694336, -0.1235352, -19.5731716, -11.9512196, 13.6585369, -0.0433051
0.9790039, -0.1728516, -0.1245117, -18.4756107, -12.0121956, 13.841464, -0.0433051
0.9829102, -0.1679688, -0.1274414, -17.1341476, -11.7073174, 14.0853662, -0.0426337
0.9892578, -0.1601562, -0.1396484, -16.8902435, -11.1585369, 14.1463413, -0.0392767
0.9882812, -0.152832, -0.1450195, -16.1585369, -10.3048782, 14.3902445, -0.0386053
0.9882812, -0.1411133, -0.1567383, -15.8536587, -9.8780489, 15.1829271, -0.0436408
0.987793, -0.137207, -0.1621094, -16.0975609, -9.8780489, 15.3048782, -0.0459907
0.9912109, -0.1362305, -0.1762695, -16.8902435, -10.1219511, 15.4878054, -0.0433051
0.9951172, -0.1337891, -0.1889648, -17.6829281, -10.4878054, 15.8536587, -0.0459907
0.9931641, -0.1337891, -0.1899414, -19.3292694, -11.1585369, 16.3414631, -0.0406195
0.9897461, -0.1352539, -0.1870117, -20.3658543, -11.7073174, 16.5243912, -0.0325628
0.9916992, -0.1347656, -0.1860352, -22.0731716, -12.3170738, 17.0731716, -0.0392767
0.9970703, -0.1303711, -0.1689453, -22.7439022, -12.6829271, 17.439024, -0.0406195
0.996582, -0.1289062, -0.1650391, -23.4146347, -13.1097565, 17.7439022, -0.0365911
1.0029297, -0.1347656, -0.1547852, -23.3536587, -13.2317076, 17.9268303, -0.0325628
1.0019531, -0.1367188, -0.1489258, -23.5975609, -12.9878054, 18.0487804, -0.0325628
1.0073242, -0.1313477, -0.1479492, -24.2073174, -12.5, 17.7439022, -0.0352483
1.0048828, -0.1352539, -0.1420898, -24.5121956, -12.0731707, 17.8658543, -0.0352483
1.0014648, -0.1357422, -0.1455078, -24.8780499, -11.341464, 17.7439022, -0.0365911
0.9975586, -0.1376953, -0.1479492, -24.8780499, -11.219512, 17.8658543, -0.0406195
0.996582, -0.1420898, -0.152832, -25.2439022, -11.8902445, 17.8658543, -0.0453193
0.9970703, -0.1591797, -0.15625, -25.9146347, -12.8048782, 17.9878044, -0.0419623
0.9921875, -0.1650391, -0.1518555, -28.1707325, -14.4512196, 17.8048782, -0.0406195
0.9975586, -0.1791992, -0.1386719, -29.1463413, -15.1219511, 17.6829281, -0.0382696
0.9951172, -0.184082, -0.1279297, -29.6951218, -15.6097565, 17.6829281, -0.0439765
0.9931641, -0.1943359, -0.1098633, -29.0853672, -15.4878054, 17.9878044, -0.0406195
0.996582, -0.1928711, -0.1069336, -26.6463413, -14.6951227, 18.2317085, -0.0426337
1, -0.1982422, -0.1020508, -23.5975609, -13.4756098, 18.5975609, -0.0469978
0.9995117, -0.1982422, -0.1142578, -22.5, -13.0487804, 18.8414631, -0.0449836
0.9995117, -0.1962891, -0.1176758, -21.0975609, -12.4390249, 19.3292694, -0.0433051
0.9912109, -0.1943359, -0.1191406, -21.280489, -12.2560978, 19.5731716, -0.0412909
0.9863281, -0.1904297, -0.1176758, -20.1219521, -12.0121956, 20, -0.0433051
0.9731445, -0.1879883, -0.1137695, -19.3902435, -11.9512196, 20.1829281, -0.0426337
0.9692383, -0.1831055, -0.1137695, -16.7682934, -12.0731707, 21.0975609, -0.0446479
0.9707031, -0.1787109, -0.1206055, -15.8536587, -12.560976, 21.4024391, -0.0486763
0.9770508, -0.1772461, -0.1308594, -13.2926836, -12.6219511, 22.1341476, -0.0500191
0.9863281, -0.1748047, -0.1479492, -12.9268293, -12.6219511, 22.3170738, -0.0486763
0.9882812, -0.1748047, -0.1513672, -13.2317076, -12.6829271, 22.2560978, -0.0503548
0.9970703, -0.1630859, -0.1635742, -14.3292685, -12.6219511, 22.2560978, -0.0486763
0.9970703, -0.1499023, -0.1557617, -15.4878054, -12.7439032, 22.439024, -0.0433051
0.996582, -0.1469727, -0.1533203, -16.6463413, -12.560976, 23.7195129, -0.0433051
0.9990234, -0.1386719, -0.140625, -16.7073174, -12.6829271, 24.3292694, -0.0439765
1.0048828, -0.1357422, -0.1381836, -16.5853653, -12.6219511, 24.6341476, -0.0473335
1.0166016, -0.1337891, -0.1445312, -16.8292694, -12.6829271, 25.060976, -0.0493477
1.0200195, -0.1293945, -0.144043, -17.5, -12.8658543, 24.2682934, -0.0503548
1.0229492, -0.1357422, -0.1474609, -17.9878044, -12.8658543, 23.9024391, -0.0500191
1.0180664, -0.1435547, -0.1459961, -18.9634151, -12.560976, 22.6219521, -0.0506905
0.9956055, -0.1567383, -0.1376953, -19.2682934, -12.560976, 22.3170738, -0.0476692
0.9902344, -0.1616211, -0.1342773, -19.6951218, -12.560976, 21.7073174, -0.0433051
0.9765625, -0.1767578, -0.1289062, -19.5731716, -12.7439032, 21.5853672, -0.0406195
0.9711914, -0.1918945, -0.1274414, -19.6341476, -12.9878054, 21.4634151, -0.0409552
0.9648438, -0.2016602, -0.125, -18.9634151, -13.2926836, 21.5853672, -0.0433051
0.9560547, -0.2084961, -0.1123047, -18.5975609, -13.4146347, 21.4634151, -0.0459907
0.9526367, -0.2084961, -0.1083984, -17.9268303, -12.8048782, 21.8292694, -0.0480049
0.9482422, -0.2119141, -0.1025391, -17.2560978, -12.560976, 22.560976, -0.0449836
0.9492188, -0.2104492, -0.0976562, -15.1219511, -11.7682934, 23.7195129, -0.0433051
0.9492188, -0.1987305, -0.0864258, -14.0243902, -11.4024391, 24.4512196, -0.0459907
0.9541016, -0.1884766, -0.0869141, -12.0731707, -10.9146347, 25.4268303, -0.0459907
0.9648438, -0.1625977, -0.09375, -11.341464, -10.3048782, 25.6707325, -0.0419623
0.9672852, -0.1538086, -0.0932617, -10.1829271, -9.8170738, 25.7926826, -0.0433051
0.9702148, -0.1352539, -0.1103516, -11.4634151, -8.841464, 25.2439022, -0.0466621
0.9658203, -0.1230469, -0.1293945, -11.9512196, -8.2317076, 25.060976, -0.0480049
0.9658203, -0.1196289, -0.1342773, -13.9634151, -8.841464, 24.6951218, -0.0436408
0.9609375, -0.1162109, -0.1489258, -15.1829271, -9.2073174, 24.7560978, -0.0486763
0.9628906, -0.1196289, -0.1547852, -17.6219521, -10.8536587, 25.1829281, -0.0443122
0.96875, -0.1225586, -0.1572266, -19.0853672, -11.5853662, 25.3658543, -0.0453193
0.972168, -0.125, -0.1547852, -21.5853672, -12.6829271, 25.7926826, -0.0392767
0.9755859, -0.1357422, -0.1489258, -22.3170738, -13.0487804, 25.4878063, -0.0453193
0.9770508, -0.140625, -0.1494141, -22.9878063, -13.0487804, 24.8780499, -0.0459907
0.9677734, -0.1542969, -0.1469727, -22.8658543, -12.6829271, 24.6341476, -0.0480049
0.9638672, -0.1635742, -0.1455078, -22.8048782, -12.560976, 24.3292694, -0.0486763
0.9477539, -0.1777344, -0.140625, -22.9878063, -12.9878054, 24.2073174, -0.0486763
0.9418945, -0.1914062, -0.1235352, -22.8658543, -13.0487804, 24.4512196, -0.0459907
0.9335938, -0.199707, -0.1113281, -23.0487804, -13.6585369, 24.3292694, -0.0473335
0.9365234, -0.2084961, -0.0810547, -22.3170738, -13.9634151, 24.0853672, -0.0446479
0.9321289, -0.2128906, -0.0708008, -19.5121956, -13.4146347, 23.8414631, -0.0433051
0.9306641, -0.2177734, -0.0610352, -17.1341476, -12.3780489, 23.2317085, -0.0396124
0.9301758, -0.2192383, -0.0595703, -11.8292685, -9.8780489, 23.1707325, -0.0406195
0.9282227, -0.2099609, -0.074707, -9.3292685, -8.4146347, 23.5365868, -0.0436408
0.9262695, -0.2060547, -0.0864258, -4.9390244, -5.5487804, 23.9024391, -0.0486763
0.9282227, -0.1845703, -0.1142578, -3.6585367, -5, 24.6951218, -0.0486763
0.9360352, -0.1699219, -0.1264648, -3.4756098, -4.8170733, 26.2195129, -0.0459907
0.9399414, -0.1435547, -0.1391602, -5.5487804, -5.4268293, 26.6463413, -0.0439765
0.9438477, -0.1225586, -0.1425781, -6.890244, -6.0365853, 26.7682934, -0.0466621
0.9511719, -0.1108398, -0.1401367, -10.9756098, -7.4390244, 25.7926826, -0.0446479
0.9560547, -0.1005859, -0.1357422, -12.560976, -8.1097565, 25, -0.0459907
0.9589844, -0.0996094, -0.1318359, -15.8536587, -9.5731707, 23.5975609, -0.0392767
0.9589844, -0.1123047, -0.1240234, -16.6463413, -9.9390249, 22.6829281, -0.0433051
0.9589844, -0.1191406, -0.1210938, -18.6585369, -10.5487804, 21.1585369, -0.0473335
0.9545898, -0.144043, -0.125, -19.2682934, -11.0365858, 20.5487804, -0.0406195
0.9526367, -0.1601562, -0.121582, -19.5121956, -11.8292685, 19.5731716, -0.0359197
0.9443359, -0.1816406, -0.1176758, -19.2682934, -12.3780489, 18.7195129, -0.042298
0.940918, -0.1967773, -0.1103516, -18.8414631, -12.2560978, 18.5365849, -0.0446479
0.9375, -0.2119141, -0.1025391, -17.2560978, -11.5853662, 18.4756107, -0.0453193
0.9277344, -0.2163086, -0.0810547, -15.9756098, -11.4024391, 18.6585369, -0.0419623
0.925293, -0.215332, -0.0776367, -13.0487804, -10.060976, 19.0243912, -0.0392767
0.9335938, -0.203125, -0.0688477, -11.8292685, -9.3902445, 19.3902435, -0.0412909
0.9360352, -0.1943359, -0.0654297, -8.5975609, -7.3780489, 20.1829281, -0.0392767
0.9428711, -0.168457, -0.0722656, -7.3780489, -6.5243902, 20.3658543, -0.0386053
0.9521484, -0.1552734, -0.0805664, -5.7317076, -4.9390244, 20.060976, -0.0433051
0.9638672, -0.1381836, -0.1015625, -5.7317076, -4.8780489, 19.4512196, -0.0433051
0.9643555, -0.1328125, -0.1113281, -6.7682929, -5.2439027, 18.1707325, -0.0433051
0.9702148, -0.1289062, -0.128418, -8.4756098, -5.7926831, 17.0731716, -0.0433051
0.9711914, -0.1274414, -0.140625, -9.5731707, -6.4634147, 16.7682934, -0.0446479
0.9658203, -0.1342773, -0.1572266, -11.341464, -7.8658538, 16.0975609, -0.0433051
0.9638672, -0.1455078, -0.1547852, -12.3170738, -8.5975609, 16.280489, -0.0426337
0.9672852, -0.1513672, -0.152832, -13.9634151, -10.1219511, 15.8536587, -0.0412909
0.9638672, -0.1591797, -0.1386719, -14.7560978, -10.3048782, 15.9756098, -0.0412909
0.9628906, -0.1669922, -0.1274414, -15.7926836, -10.3048782, 15.4878054, -0.0392767
0.9589844, -0.1699219, -0.1132812, -15.9756098, -10.1219511, 15.060976, -0.0379339
0.9589844, -0.1738281, -0.1044922, -15.5487804, -9.9390249, 14.0243902, -0.0399481
0.9472656, -0.1806641, -0.0849609, -15.060976, -9.9390249, 13.4146347, -0.0372625
0.9516602, -0.1835938, -0.0834961, -13.3536587, -9.5121956, 12.7439032, -0.0433051
0.9516602, -0.1865234, -0.0795898, -11.280488, -7.8658538, 12.0731707, -0.0412909
0.9477539, -0.1865234, -0.0810547, -9.8170738, -6.5853658, 12.0731707, -0.0379339
0.9467773, -0.184082, -0.0991211, -6.4024391, -4.0853658, 11.5853662, -0.0379339
0.9414062, -0.1787109, -0.1274414, -5.1219511, -3.1707318, 11.4634151, -0.0446479
0.9404297, -0.1787109, -0.144043, -4.0243902, -2.195122, 11.4024391, -0.0419623
0.9458008, -0.1713867, -0.1772461, -4.2682929, -2.2560976, 11.341464, -0.0359197
0.9448242, -0.168457, -0.1860352, -6.0365853, -3.1097562, 10.8536587, -0.0352483
0.9423828, -0.1621094, -0.1884766, -7.4390244, -3.5975611, 10.9146347, -0.0359197
0.9423828, -0.1547852, -0.1860352, -10.6097565, -4.6951222, 10.6097565, -0.042298
0.9418945, -0.1538086, -0.1723633, -11.8902445, -5.5487804, 10.4878054, -0.0453193
0.9448242, -0.1513672, -0.1660156, -14.2682934, -7.0731707, 10.3048782, -0.0446479
0.9487305, -0.1484375, -0.1416016, -16.0975609, -7.8658538, 9.6341467, -0.0453193
0.9526367, -0.1455078, -0.1264648, -16.5853653, -7.4390244, 9.2682924, -0.0453193
0.949707, -0.1376953, -0.1069336, -17.3170738, -6.6463418, 8.4146347, -0.0406195
0.9580078, -0.1381836, -0.1044922, -17.1341476, -5.8536587, 8.2317076, -0.0446479
0.956543, -0.1396484, -0.1064453, -16.4634151, -4.8780489, 7.8048782, -0.0379339
0.9541016, -0.1357422, -0.1166992, -16.3414631, -3.5975611, 7.6219516, -0.0298772
0.9536133, -0.1298828, -0.1240234, -15.3658543, -1.7682927, 7.8048782, -0.0352483
0.9482422, -0.1240234, -0.1411133, -15.1219511, -1.402439, 7.9268293, -0.0386053
0.9443359, -0.121582, -0.1547852, -16.4024391, -2.5609756, 7.6829271, -0.0325628
0.9428711, -0.1152344, -0.1650391, -18.0487804, -3.5365853, 7.5609756, -0.0352483
0.9433594, -0.1147461, -0.171875, -21.4634151, -4.8780489, 7.0121951, -0.0459907
0.9394531, -0.1152344, -0.1650391, -24.9390259, -5.9146342, 5.8536587, -0.0419623
0.9370117, -0.1186523, -0.1616211, -26.4024391, -6.2195125, 5.3048782, -0.0412909
0.9365234, -0.125, -0.1567383, -28.3536587, -7.4390244, 3.9024391, -0.0433051
0.9375, -0.1489258, -0.1542969, -29.2682934, -7.9878049, 3.0487804, -0.042298
0.9453125, -0.1611328, -0.1567383, -30.4268303, -9.2073174, 1.3414634, -0.0446479
0.9506836, -0.1933594, -0.1591797, -30.9146347, -9.7560978, 0.8536586, -0.0493477
0.9570312, -0.2055664, -0.1586914, -31.341465, -10, -0.6097561, -0.0486763
0.956543, -0.230957, -0.1474609, -31.280489, -10.2439022, -0.9146342, -0.0500191
0.9575195, -0.2402344, -0.1391602, -29.9390259, -9.2682924, -0.6707317, -0.0500191
0.9511719, -0.2446289, -0.121582, -28.780489, -8.780488, -0.1829268, -0.0466621
0.9570312, -0.2416992, -0.1196289, -25.3658543, -6.9512196, 1.097561, -0.0439765
0.9643555, -0.2368164, -0.1132812, -21.9512196, -4.8170733, 2.3780489, -0.0433051
0.9707031, -0.2246094, -0.1098633, -20.1829281, -3.5975611, 2.4390244, -0.0433051
0.9794922, -0.2060547, -0.1123047, -17.0121956, -1.097561, 2.4390244, -0.0486763
0.9804688, -0.1884766, -0.1318359, -15.8536587, 0, 2.0121951, -0.0439765
0.9799805, -0.175293, -0.1396484, -14.7560978, 0.3658537, 1.2195122, -0.0406195
0.9711914, -0.1591797, -0.1459961, -15.060976, -0.0609756, 0.6707317, -0.0369268
0.9707031, -0.15625, -0.1489258, -17.0731716, -1.3414634, -0.0609756, -0.0453193
0.9589844, -0.1538086, -0.1430664, -18.2317085, -2.1341465, -0.2439024, -0.0412909
0.949707, -0.1567383, -0.1381836, -20.1219521, -3.2926829, -1.2195122, -0.0433051
0.9492188, -0.1650391, -0.1293945, -20.5487804, -3.9024391, -1.5853659, -0.049012
0.9453125, -0.1699219, -0.1298828, -21.0975609, -5.0609756, -2.804878, -0.0486763
0.9521484, -0.1811523, -0.1342773, -20.7317085, -5.7317076, -3.1707318, -0.0500191
0.9584961, -0.1914062, -0.1401367, -20.6707325, -6.0975609, -3.2926829, -0.0520333
0.9604492, -0.1914062, -0.1430664, -20.8536587, -6.0975609, -3.2317073, -0.0513619
0.9541016, -0.1962891, -0.1362305, -20.7317085, -6.0365853, -3.0487804, -0.0513619
0.9580078, -0.1962891, -0.1313477, -20.4268303, -5.9146342, -3.2317073, -0.0533761
0.9589844, -0.2011719, -0.1293945, -20.060976, -5.670732, -2.804878, -0.0459907
0.9589844, -0.1972656, -0.1274414, -19.2682934, -4.5731707, -2.3170731, -0.0466621
0.9594727, -0.1938477, -0.1259766, -18.5975609, -4.4512196, -2.3780489, -0.0506905
0.9624023, -0.1904297, -0.1337891, -17.9878044, -3.5365853, -2.3780489, -0.0493477
0.9584961, -0.1845703, -0.1411133, -17.6219521, -3.4146342, -2.4390244, -0.0459907
0.9619141, -0.1796875, -0.1445312, -18.2926826, -2.8658538, -3.2926829, -0.0459907
0.9575195, -0.1728516, -0.1586914, -18.9634151, -3.2926829, -4.0243902, -0.0446479
0.9589844, -0.1728516, -0.1635742, -19.8780499, -3.8414636, -4.0853658, -0.0466621
0.9594727, -0.1772461, -0.1650391, -22.1951218, -5.2439027, -4.8170733, -0.0449836
0.972168, -0.1845703, -0.1723633, -23.3536587, -5.9146342, -4.6951222, -0.049012
0.9794922, -0.1889648, -0.1738281, -25.060976, -7.0731707, -5.3658538, -0.0480049
0.9882812, -0.1972656, -0.1762695, -25.7317085, -7.7439027, -5.1219511, -0.0419623
0.996582, -0.199707, -0.1748047, -26.3414631, -7.9268293, -5.3658538, -0.0443122
1.0087891, -0.2094727, -0.1699219, -26.5243912, -8.1707315, -5.609756, -0.0473335
1.0180664, -0.2124023, -0.1660156, -26.5243912, -7.2560978, -5.9756098, -0.0473335
1.0209961, -0.2246094, -0.1674805, -25.7926826, -6.3414636, -5.9756098, -0.0463264
1.0151367, -0.2250977, -0.1699219, -24.0243912, -4.5731707, -6.7073174, -0.0439765
1.003418, -0.2280273, -0.1704102, -22.1951218, -2.5, -6.7682929, -0.0473335
0.9897461, -0.2333984, -0.1831055, -21.4024391, -1.6463414, -6.5853658, -0.0513619
0.9824219, -0.2387695, -0.1923828, -21.0975609, -0.6707317, -6.2195125, -0.0527047
0.972168, -0.2324219, -0.1987305, -21.4634151, -0.6707317, -6.1585369, -0.0459907
0.9667969, -0.2304688, -0.2001953, -23.2926826, -1.1585366, -5.9146342, -0.0476692
0.9545898, -0.2202148, -0.1865234, -24.0853672, -1.3414634, -6.0975609, -0.0473335
0.9511719, -0.215332, -0.1782227, -25.9146347, -2.0121951, -5.7926831, -0.0433051
0.9477539, -0.2060547, -0.1674805, -26.5243912, -2.4390244, -5.9146342, -0.0453193
0.9516602, -0.2041016, -0.1621094, -27.3170738, -3.4756098, -5.9756098, -0.0439765
0.9599609, -0.2016602, -0.1508789, -27.8048782, -4.0853658, -5.9756098, -0.0473335
0.96875, -0.206543, -0.1455078, -29.3292694, -5, -6.5853658, -0.0486763
0.9770508, -0.2080078, -0.1376953, -30.8536587, -5.1829271, -7.3170733, -0.0459907
0.9697266, -0.2099609, -0.1181641, -31.341465, -4.9390244, -7.3170733, -0.0463264
0.9638672, -0.2119141, -0.1132812, -31.280489, -3.5975611, -7.3780489, -0.0419623
0.9599609, -0.2172852, -0.1108398, -31.0365868, -3.3536587, -7.1341467, -0.0409552
0.9536133, -0.2172852, -0.1108398, -30.3048782, -2.3170731, -6.9512196, -0.0473335
0.9506836, -0.2207031, -0.1132812, -29.9390259, -1.7682927, -6.8292685, -0.0486763
0.9453125, -0.2246094, -0.1220703, -29.4512196, -1.3414634, -6.7073174, -0.0513619
0.9404297, -0.2294922, -0.1337891, -29.3902454, -0.9146342, -6.7682929, -0.0493477
0.9375, -0.2314453, -0.1435547, -29.8780499, -1.0365853, -6.4634147, -0.0473335
0.9375, -0.2299805, -0.1523438, -30.2439022, -1.2195122, -6.4024391, -0.0419623
0.9399414, -0.2280273, -0.1538086, -31.0975609, -2.195122, -5.7926831, -0.0449836
0.9516602, -0.2280273, -0.1577148, -32.6829262, -2.9268293, -5.4878049, -0.0439765
0.9667969, -0.2182617, -0.1625977, -33.2926826, -3.0487804, -5.3048782, -0.0449836
0.9677734, -0.215332, -0.1611328, -34.3902435, -2.9268293, -5.3048782, -0.0446479
0.9775391, -0.2158203, -0.1591797, -34.3902435, -3.1097562, -5.0609756, -0.0446479
0.9814453, -0.2172852, -0.152832, -35.1829262, -3.4146342, -4.6951222, -0.0553902
0.9902344, -0.2109375, -0.1367188, -36.0365868, -3.9024391, -4.1463413, -0.0500191
0.9912109, -0.2075195, -0.1206055, -37.5609779, -4.6951222, -4.390244, -0.0503548
0.9848633, -0.2109375, -0.0952148, -38.2317085, -4.7560978, -4.3292685, -0.0419623
0.9848633, -0.2124023, -0.0825195, -37.5609779, -3.9634147, -5.3658538, -0.0406195
0.9799805, -0.2231445, -0.074707, -37.0731697, -3.1097562, -6.0365853, -0.0436408
0.9760742, -0.2299805, -0.0771484, -35, -2.3170731, -7.0731707, -0.0392767
0.9672852, -0.2446289, -0.0952148, -32.6829262, -1.1585366, -7.5609756, -0.0406195
0.9697266, -0.2543945, -0.1181641, -32.0731697, -1.097561, -7.4390244, -0.0426337
0.9697266, -0.2587891, -0.1328125, -31.8902454, -0.9756098, -7.2560978, -0.0446479
0.9716797, -0.265625, -0.1513672, -32.2560997, -1.3414634, -7.0731707, -0.0433051
0.9731445, -0.2612305, -0.1591797, -32.8048782, -2.0731707, -6.6463418, -0.0392767
0.9794922, -0.262207, -0.1591797, -33.5975609, -1.9512196, -6.280488, -0.0486763
0.980957, -0.2563477, -0.1508789, -34.2682953, -2.6829269, -5.4878049, -0.0433051
0.984375, -0.2397461, -0.1342773, -34.4512215, -2.804878, -5.4268293, -0.0436408
0.9873047, -0.2358398, -0.1245117, -35.3658562, -3.0487804, -4.6951222, -0.0412909
0.9887695, -0.2250977, -0.1083984, -35.6097565, -3.0487804, -4.390244, -0.0399481
0.9921875, -0.2172852, -0.1010742, -35.7317085, -2.8658538, -4.6341462, -0.0386053
0.9916992, -0.2089844, -0.0947266, -34.8780479, -1.1585366, -4.8780489, -0.0359197
0.9848633, -0.1967773, -0.105957, -34.3902435, -0.4878049, -5.1219511, -0.0406195
0.9868164, -0.1928711, -0.1137695, -34.5121956, 0.3048781, -5, -0.0446479
0.9868164, -0.1889648, -0.1259766, -35.0609779, 0.1219512, -4.6341462, -0.0392767
0.9858398, -0.1870117, -0.1313477, -36.8292694, -0.6097561, -3.9634147, -0.0365911
0.9765625, -0.1831055, -0.1323242, -38.5365868, -1.2804878, -3.8414636, -0.0392767
0.9697266, -0.1811523, -0.1235352, -41.341465, -2.3170731, -3.9634147, -0.0365911
0.9599609, -0.1772461, -0.1035156, -42.3780479, -2.804878, -3.9024391, -0.0345769
0.9516602, -0.1806641, -0.0957031, -43.3536606, -3.3536587, -4.390244, -0.0359197
0.9453125, -0.1938477, -0.0898438, -42.6219521, -3.8414636, -4.7560978, -0.0372625
0.9394531, -0.203125, -0.0952148, -41.8292694, -3.9634147, -5.0609756, -0.0352483
0.9365234, -0.2192383, -0.1098633, -41.2804871, -4.7560978, -5.3658538, -0.03122
0.9404297, -0.2431641, -0.1323242, -41.5243912, -5.1219511, -5.609756, -0.0305486
0.9428711, -0.2563477, -0.1308594, -42.0731735, -6.1585369, -5.4268293, -0.0332341
0.9516602, -0.2617188, -0.1235352, -42.3170738, -6.5243902, -4.9390244, -0.0352483
0.9560547, -0.262207, -0.1196289, -42.0731735, -6.890244, -3.7804878, -0.0325628
0.9711914, -0.2519531, -0.1010742, -41.6463432, -6.5853658, -3.2317073, -0.027863
0.9731445, -0.2460938, -0.0908203, -39.9390259, -6.0365853, -1.9512196, -0.0298772
0.9873047, -0.234375, -0.0771484, -39.0243912, -5.7317076, -1.7073171, -0.0352483
0.9941406, -0.2260742, -0.0712891, -36.5243912, -4.4512196, -1.402439, -0.0386053
1.0029297, -0.21875, -0.0766602, -33.841465, -2.4390244, -1.8292683, -0.0325628
1.0048828, -0.2124023, -0.0830078, -32.4390259, -1.4634147, -2.0731707, -0.0392767
0.9990234, -0.2070312, -0.1098633, -30.6707325, -0.3048781, -2.9268293, -0.0399481
0.9912109, -0.2050781, -0.1337891, -30.4268303, 0.0609756, -2.6829269, -0.0446479
0.9858398, -0.203125, -0.1411133, -32.0731697, -0.0609756, -2.6219513, -0.0419623
0.9750977, -0.1943359, -0.1572266, -33.1097565, -0.3048781, -2.6219513, -0.0446479
0.9702148, -0.1894531, -0.15625, -35.6097565, -0.9146342, -1.5243902, -0.0446479
0.9716797, -0.1850586, -0.1567383, -36.7073174, -1.6463414, -1.402439, -0.0480049
0.9726562, -0.1835938, -0.1538086, -38.4146347, -3.4146342, -1.2195122, -0.0500191
0.9765625, -0.1850586, -0.1420898, -39.2073174, -4.0243902, -1.2804878, -0.0486763
0.9780273, -0.1870117, -0.1362305, -40.9756088, -5.4268293, -1.4634147, -0.0500191
0.9838867, -0.1958008, -0.1166992, -40.9146347, -5.4268293, -2.0731707, -0.0486763
0.9838867, -0.1987305, -0.1113281, -40.9756088, -5.3048782, -2.195122, -0.0493477
0.9770508, -0.2050781, -0.0996094, -40, -4.9390244, -2.195122, -0.0473335
0.9697266, -0.2133789, -0.0869141, -39.3902435, -4.7560978, -2.3170731, -0.0486763
0.9682617, -0.2158203, -0.0830078, -37.9268303, -3.9024391, -1.9512196, -0.0486763
0.9609375, -0.2158203, -0.0776367, -37.0731697, -3.9634147, -2.0731707, -0.0466621
0.9619141, -0.2148438, -0.0766602, -35.9146347, -3.6585367, -2.0731707, -0.0500191
0.9594727, -0.2192383, -0.0800781, -35.6707344, -3.7195122, -2.3780489, -0.0513619
0.9584961, -0.2177734, -0.0864258, -34.6951218, -2.6829269, -1.8292683, -0.0496834
0.953125, -0.2055664, -0.0957031, -33.9634171, -1.8292683, -1.402439, -0.0473335
0.9550781, -0.2001953, -0.1010742, -32.8048782, -1.7073171, -0.6097561, -0.0426337
0.9624023, -0.184082, -0.1088867, -33.0487823, -2.5609756, 0.0609756, -0.0439765
0.9609375, -0.1777344, -0.1132812, -33.7195129, -2.804878, 0.1219512, -0.0486763
0.9667969, -0.1689453, -0.1137695, -35.6707344, -3.5975611, 0.1219512, -0.0540475
0.9711914, -0.1577148, -0.1083984, -36.4634171, -3.7804878, -0.0609756, -0.0513619
0.9667969, -0.1630859, -0.1040039, -37.4390259, -4.5121951, -1.2195122, -0.0486763
0.9667969, -0.1723633, -0.1030273, -37.1341476, -5.0609756, -1.5853659, -0.0486763
0.965332, -0.1796875, -0.1074219, -37.2560997, -5.7317076, -2.195122, -0.0486763
0.9707031, -0.1948242, -0.1201172, -36.7682953, -6.280488, -2.3170731, -0.0473335
0.9750977, -0.203125, -0.1191406, -36.5853653, -6.7682929, -2.0731707, -0.0466621
0.9731445, -0.2080078, -0.1220703, -35.9146347, -6.4024391, -1.8902439, -0.0406195
0.9711914, -0.2075195, -0.1176758, -35, -5.9146342, -0.9146342, -0.0426337
0.96875, -0.2109375, -0.1206055, -33.2926826, -4.7560978, -0.3048781, -0.0473335
0.9677734, -0.2050781, -0.1181641, -31.9512196, -4.0853658, 0.0609756, -0.0399481
0.9692383, -0.203125, -0.1162109, -30.1219521, -3.7195122, 0.4268293, -0.0459907
0.96875, -0.1875, -0.1181641, -29.9390259, -3.5365853, 0.3658537, -0.0436408
0.965332, -0.1835938, -0.1162109, -29.5121956, -3.4756098, 0.4268293, -0.0426337
0.9658203, -0.175293, -0.1230469, -29.4512196, -3.3536587, 0.5487805, -0.0480049
0.9677734, -0.1757812, -0.1235352, -28.5975609, -3.3536587, 0.1829268, -0.0446479
0.9702148, -0.1708984, -0.1318359, -28.780489, -3.2926829, 0.1829268, -0.0436408
0.9741211, -0.168457, -0.1342773, -28.7195129, -3.2926829, 0.1829268, -0.0513619
0.9790039, -0.1694336, -0.1464844, -28.9024391, -3.4146342, 0.1829268, -0.0486763
0.9785156, -0.1694336, -0.1464844, -30.3658543, -3.6585367, 0.5487805, -0.0503548
0.9790039, -0.1616211, -0.1459961, -31.6463413, -4.0853658, 0.5487805, -0.0486763
0.9746094, -0.1572266, -0.1289062, -32.6219521, -4.4512196, 0.9756098, -0.0500191
0.9765625, -0.1533203, -0.1166992, -33.7804871, -5.0609756, 0.7926829, -0.0540475
0.9770508, -0.1508789, -0.1015625, -33.9634171, -5.2439027, 0.2439024, -0.0540475
0.9780273, -0.1552734, -0.097168, -33.7195129, -5.3048782, -0.2439024, -0.0647898
0.9741211, -0.168457, -0.0922852, -33.1707306, -4.9390244, -0.7317073, -0.0852674
0.9658203, -0.1708984, -0.0947266, -31.5853672, -4.2073174, -1.2804878, -0.0839246
0.9604492, -0.1816406, -0.0986328, -30.9146347, -3.9024391, -1.5243902, -0.0728466
0.956543, -0.1796875, -0.105957, -29.9390259, -3.5365853, -1.2804878, -0.0513619
0.9501953, -0.1811523, -0.1113281, -29.8170738, -3.4756098, -1.097561, -0.0386053
0.9545898, -0.1806641, -0.1098633, -29.2073174, -2.7439024, -0.6097561, -0.0359197
0.9516602, -0.1733398, -0.1210938, -27.3780499, -1.5853659, 0.3658537, -0.03122
0.9550781, -0.1635742, -0.1376953, -26.5243912, -1.0365853, 0.3658537, -0.0325628
0.9580078, -0.1586914, -0.1494141, -25.4878063, -0.7926829, 0.3048781, -0.0406195
0.9580078, -0.1445312, -0.1733398, -25.6707325, -0.9756098, 0.6097561, -0.0486763
0.9609375, -0.1411133, -0.1782227, -27.3780499, -2.2560976, 0.9146342, -0.0500191
0.9599609, -0.1318359, -0.1777344, -29.2073174, -2.9878049, 0.7926829, -0.0473335
0.9667969, -0.1274414, -0.1723633, -32.7439041, -4.0243902, 1.097561, -0.049012
0.9609375, -0.1171875, -0.15625, -33.2317085, -3.9024391, 1.2195122, -0.0449836
0.9599609, -0.1152344, -0.1479492, -33.9024391, -4.390244, 1.402439, -0.0513619
0.9633789, -0.1142578, -0.137207, -34.0243912, -4.4512196, 1.097561, -0.0594186
0.9692383, -0.1152344, -0.137207, -34.2073174, -4.6341462, 0.6097561, -0.0614328
0.9677734, -0.1254883, -0.1401367, -34.2073174, -4.8780489, 0.4878049, -0.0661326
0.9716797, -0.137207, -0.1396484, -34.4512215, -4.4512196, 0.0609756, -0.056733
0.9731445, -0.144043, -0.1376953, -35.3048782, -4.5731707, -0.6097561, -0.0406195
0.9599609, -0.1513672, -0.1401367, -35.5487823, -4.6951222, -0.8536586, -0.024506
0.9550781, -0.1538086, -0.1303711, -36.1585388, -4.5731707, -0.4268293, -0.014435
0.9448242, -0.1508789, -0.112793, -36.7073174, -5.0609756, -0.2439024, -0.0036927
0.9438477, -0.1494141, -0.1010742, -37.4390259, -5.670732, 0.3048781, 0.0036927
0.9458008, -0.1474609, -0.0820312, -37.5, -5.9146342, 0.1829268, -0.0010071
0.953125, -0.1508789, -0.0810547, -36.5853653, -6.3414636, -0.2439024, -0.0023499
0.9584961, -0.1591797, -0.0825195, -35.5487823, -6.2195125, -0.7926829, -0.0083925
0.9594727, -0.1660156, -0.0913086, -33.1707306, -4.7560978, -1.0365853, -0.0164492
0.9648438, -0.1738281, -0.109375, -30.9756107, -3.9634147, -1.2804878, -0.0292058
0.9638672, -0.1708984, -0.1274414, -30.3048782, -3.7195122, -0.8536586, -0.0396124
0.9677734, -0.1640625, -0.1352539, -29.8780499, -3.4756098, -0.6097561, -0.0433051
0.9707031, -0.1542969, -0.1411133, -30.4268303, -3.4756098, -0.2439024, -0.0409552
0.9697266, -0.144043, -0.1298828, -31.5853672, -4.2073174, 0.4878049, -0.0500191
0.9663086, -0.1293945, -0.1069336, -32.3780479, -4.6341462, 1.0365853, -0.0543832
0.9648438, -0.1274414, -0.1010742, -32.2560997, -5.0609756, 0.4878049, -0.0520333
0.9785156, -0.1210938, -0.0976562, -31.9512196, -5.2439027, 0.1829268, -0.0503548
0.9868164, -0.125, -0.0996094, -30.7926846, -5.609756, -0.9146342, -0.0473335
0.9916992, -0.1396484, -0.1176758, -30.1829281, -5.5487804, -1.7682927, -0.0466621
0.9912109, -0.1450195, -0.128418, -28.9024391, -5.0609756, -2.8658538, -0.0419623
0.9848633, -0.1635742, -0.1450195, -28.4756107, -4.4512196, -2.8658538, -0.0399481
0.9663086, -0.1689453, -0.1494141, -28.1707325, -4.3292685, -2.8658538, -0.0386053
0.9633789, -0.175293, -0.1489258, -27.8658543, -4.4512196, -2.195122, -0.0332341
0.9580078, -0.1782227, -0.1464844, -27.3170738, -4.5731707, -1.3414634, -0.0345769
0.956543, -0.1796875, -0.1420898, -27.1341476, -4.5731707, -0.9756098, -0.0352483
0.9482422, -0.1708984, -0.1323242, -26.3414631, -4.2682929, -0.6097561, -0.0339055
0.9438477, -0.1669922, -0.1240234, -24.6341476, -3.5975611, -0.7317073, -0.0359197
0.9458008, -0.1616211, -0.1225586, -23.7195129, -2.9878049, -1.1585366, -0.0308843
0.9511719, -0.1557617, -0.1269531, -21.280489, -2.0731707, -1.1585366, -0.0305486
0.9516602, -0.1479492, -0.1503906, -20.2439022, -1.8292683, -1.402439, -0.03122
0.9487305, -0.1445312, -0.1591797, -20.060976, -1.0365853, -1.2195122, -0.0302129
0.9487305, -0.1298828, -0.1772461, -21.0975609, -0.3658537, -0.9756098, -0.0318914
0.9404297, -0.1162109, -0.1835938, -21.7073174, -0.4268293, -0.7926829, -0.0315557
0.9379883, -0.1079102, -0.1782227, -23.9024391, -2.3170731, -0.8536586, -0.0392767
0.9379883, -0.1010742, -0.1733398, -24.8170738, -3.4756098, -0.8536586, -0.0406195
0.9335938, -0.1010742, -0.1674805, -26.6463413, -5.1829271, -1.4634147, -0.0500191
0.9404297, -0.0996094, -0.1552734, -27.3780499, -6.1585369, -1.8902439, -0.0594186
0.9477539, -0.1049805, -0.1484375, -29.5731716, -7.8048782, -2.1341465, -0.0580758
0.9599609, -0.1240234, -0.1308594, -30.7926846, -9.0853662, -3.0487804, -0.0607614
0.9682617, -0.1293945, -0.125, -32.1341476, -10.7926836, -4.7560978, -0.0654612
0.9824219, -0.1425781, -0.1035156, -33.1707306, -11.5243902, -6.0975609, -0.0607614
0.9887695, -0.1533203, -0.0961914, -32.9268303, -11.4024391, -6.4024391, -0.0513619
1.0029297, -0.1704102, -0.0942383, -30.3048782, -10.060976, -7.0121951, -0.0446479
1.0214844, -0.1918945, -0.1186523, -28.4146347, -9.0853662, -6.890244, -0.0446479
1.0288086, -0.1972656, -0.1367188, -24.0853672, -5.9146342, -6.1585369, -0.0365911
1.0375977, -0.1879883, -0.1704102, -22.0731716, -4.0853658, -5.4878049, -0.0339055
1.0395508, -0.1743164, -0.1835938, -19.7560978, -1.2195122, -4.3292685, -0.0318914
1.0263672, -0.1376953, -0.1962891, -19.2682934, -0.3048781, -3.7804878, -0.0345769
1.0229492, -0.1210938, -0.1992188, -18.9634151, 0.4878049, -2.804878, -0.0379339
1.019043, -0.0839844, -0.2026367, -19.8780499, 0.6097561, -2.6829269, -0.0365911
1.0234375, -0.0825195, -0.2094727, -21.8292694, -0.6707317, -3.8414636, -0.0352483
1.0268555, -0.0766602, -0.2246094, -24.6341476, -4.0243902, -6.0365853, -0.0328985
1.0263672, -0.0805664, -0.2231445, -26.280489, -6.1585369, -7.1951222, -0.0379339
1.0112305, -0.0996094, -0.2080078, -29.7560978, -9.4512196, -8.3536587, -0.0386053
1.0019531, -0.1210938, -0.1733398, -31.1585369, -10.7926836, -8.4146347, -0.0406195
1.0014648, -0.1313477, -0.1538086, -32.0121956, -11.8902445, -7.9878049, -0.0459907
0.9848633, -0.1591797, -0.1142578, -31.1585369, -11.9512196, -7.7439027, -0.0439765
0.972168, -0.1669922, -0.0957031, -28.4756107, -10.3658543, -7.1951222, -0.0392767
0.9282227, -0.1791992, -0.0649414, -26.4024391, -9.8170738, -7.5, -0.0379339
0.9082031, -0.1855469, -0.0561523, -23.2317085, -8.2926826, -7.7439027, -0.0392767
0.8818359, -0.2089844, -0.065918, -21.1585369, -8.5975609, -8.1707315, -0.0439765
0.8774414, -0.2182617, -0.0795898, -18.9024391, -10.1829271, -8.6585369, -0.0406195
0.8818359, -0.2260742, -0.1049805, -17.5, -12.6829271, -8.2926826, -0.0365911
0.8959961, -0.2172852, -0.1157227, -16.9512196, -14.5731707, -8.1097565, -0.035584
0.9345703, -0.1972656, -0.1308594, -16.7073174, -18.5975609, -6.8292685, -0.0365911
0.9799805, -0.1694336, -0.1464844, -17.0121956, -19.8780499, -6.4024391, -0.0392767
0.9956055, -0.1499023, -0.1484375, -17.2560978, -19.6951218, -5.0609756, -0.0372625
1.0166016, -0.1088867, -0.1494141, -17.439024, -18.9024391, -4.3292685, -0.0392767
1.0205078, -0.0888672, -0.1494141, -17.5, -17.6829281, -2.1341465, -0.0433051
1.0239258, -0.0712891, -0.1611328, -17.9268303, -17.8658543, -1.8292683, -0.0365911
1.0268555, -0.0756836, -0.1826172, -19.4512196, -18.5975609, -1.5243902, -0.0419623
1.0249023, -0.0976562, -0.230957, -19.8170738, -18.7195129, -1.402439, -0.0459907
1.0151367, -0.121582, -0.2583008, -21.5853672, -19.2073174, -2.0731707, -0.0446479
0.9926758, -0.1494141, -0.2978516, -25.2439022, -21.6463413, -2.3780489, -0.0520333
0.9711914, -0.1577148, -0.3051758, -27.3170738, -23.1097565, -1.402439, -0.0540475
0.9472656, -0.1679688, -0.284668, -32.0731697, -26.280489, 0.3658537, -0.0493477
0.9448242, -0.1782227, -0.2451172, -34.0853653, -28.4756107, 1.1585366, -0.0547189
0.9506836, -0.1860352, -0.2226562, -35.7926826, -31.9512196, 0.9756098, -0.0466621
0.9726562, -0.2075195, -0.1870117, -35.7317085, -33.4146347, 1.0365853, -0.0473335
0.9760742, -0.2138672, -0.1650391, -33.5365868, -33.0487823, 0.9146342, -0.0520333
0.9770508, -0.2021484, -0.1166992, -31.9512196, -31.8292694, 1.402439, -0.049012
0.9765625, -0.199707, -0.0981445, -26.9512196, -28.5975609, 2.1341465, -0.0486763
0.9892578, -0.1938477, -0.0869141, -23.5365868, -27.3780499, 2.195122, -0.0500191
0.9975586, -0.2006836, -0.1000977, -17.1341476, -25.4878063, 1.402439, -0.0513619
1.0014648, -0.2231445, -0.1694336, -12.2560978, -23.4146347, 0.6707317, -0.0500191
1.0004883, -0.2402344, -0.2075195, -10.3048782, -21.3414631, 0.4878049, -0.0527047
0.9804688, -0.2514648, -0.2788086, -8.4756098, -16.8902435, 1.8292683, -0.056733
0.9658203, -0.2441406, -0.3383789, -8.2317076, -14.9390249, 2.5, -0.0715038
0.9555664, -0.2348633, -0.3666992, -8.5975609, -14.9390249, 3.4146342, -0.0889601
0.9453125, -0.2197266, -0.3999023, -9.8170738, -16.5243912, 3.7804878, -0.0889601
0.9389648, -0.2197266, -0.4077148, -14.2073174, -21.8292694, 4.1463413, -0.0849317
0.9291992, -0.2211914, -0.3950195, -17.3170738, -23.9634151, 4.3292685, -0.0627756
0.925293, -0.2275391, -0.3779297, -22.0731716, -25.5487804, 4.6341462, -0.0466621
0.9155273, -0.2387695, -0.3305664, -23.2317085, -26.3414631, 4.8780489, -0.0459907
0.9155273, -0.2426758, -0.3061523, -24.2682934, -29.2073174, 4.8780489, -0.0459907
0.9067383, -0.2368164, -0.2412109, -26.0975609, -33.3536606, 6.280488, -0.0486763
0.9052734, -0.2299805, -0.2050781, -27.0121956, -35.4878044, 6.7682929, -0.0580758
0.9208984, -0.2265625, -0.1220703, -27.1341476, -37.1341476, 7.1341467, -0.0654612
0.9394531, -0.234375, -0.0742188, -26.0365868, -37.9268303, 7.0731707, -0.0715038
0.9477539, -0.2441406, -0.0673828, -20.6707325, -39.0853653, 6.1585369, -0.0755322
0.9672852, -0.2666016, -0.0776367, -17.9878044, -39.3902435, 5.9146342, -0.070161
0.9692383, -0.2734375, -0.0957031, -12.6829271, -39.3292694, 6.2195125, -0.0543832
0.9726562, -0.293457, -0.1391602, -10.7317076, -39.5731735, 6.8292685, -0.0325628
0.9780273, -0.3037109, -0.1630859, -8.5365858, -40.4268303, 7.7439027, -0.0204776
0.9824219, -0.3051758, -0.2114258, -7.3780489, -41.0365868, 8.2926826, -0.0083925
0.9804688, -0.3027344, -0.2329102, -5.3048782, -41.4634171, 9.7560978, -0.011078
0.9677734, -0.2851562, -0.2612305, -4.0243902, -43.1097565, 10.4878054, -0.011078
0.9711914, -0.2700195, -0.2797852, -3.7804878, -44.5121956, 10.6707315, -0.0181277
0.9765625, -0.2685547, -0.293457, -4.2682929, -47.3170738, 10.5487804, -0.0218204
0.9863281, -0.2802734, -0.3198242, -4.9390244, -49.4512215, 10.4268293, -0.0339055
0.9902344, -0.2827148, -0.3291016, -6.4024391, -52.6829262, 9.7560978, -0.0379339
0.9936523, -0.2890625, -0.3276367, -7.0731707, -54.1463432, 9.1463413, -0.0372625
0.9970703, -0.2895508, -0.3320312, -6.890244, -54.2073174, 9.4512196, -0.0406195
1.0141602, -0.284668, -0.3608398, -5.7926831, -52.7439041, 10.1829271, -0.0473335
1.0229492, -0.2851562, -0.3955078, -1.4634147, -48.841465, 11.1585369, -0.0446479
1.0341797, -0.2788086, -0.4707031, 0.3048781, -47.5609779, 11.8292685, -0.0399481
1.0341797, -0.2685547, -0.5004883, 0, -48.2926826, 13.1097565, -0.0325628
1.0341797, -0.2338867, -0.5063477, -5.670732, -51.8292694, 13.9024391, -0.0352483
1.0195312, -0.2089844, -0.4467773, -9.5121956, -54.8170738, 14.4512196, -0.0339055
1.0209961, -0.2016602, -0.4038086, -16.6463413, -59.5731735, 14.5731707, -0.0332341
1.0317383, -0.2045898, -0.3417969, -17.8048782, -60.1219521, 14.5121956, -0.0325628
1.0390625, -0.2172852, -0.340332, -15.2439032, -57.68293, 13.841464, -0.0305486
1.0654297, -0.2495117, -0.3847656, -12.1341467, -55.8536606, 13.4146347, -0.03122
1.0712891, -0.2592773, -0.4145508, -8.4146347, -54.0243912, 13.1097565, -0.0359197
1.0610352, -0.2641602, -0.4536133, -8.1097565, -54.2073174, 13.780488, -0.0392767
1.0493164, -0.2553711, -0.4492188, -10.9146347, -55.7317085, 15.4878054, -0.0426337
1.0351562, -0.2524414, -0.409668, -12.4390249, -57.3170738, 16.4634151, -0.0446479
1.0302734, -0.2504883, -0.394043, -13.2317076, -58.841465, 17.560976, -0.0493477
1.0322266, -0.2485352, -0.3828125, -10.7926836, -57.4390259, 18.1707325, -0.0486763
1.0366211, -0.2470703, -0.4125977, -9.0853662, -55.9146347, 18.2926826, -0.0486763
1.034668, -0.2490234, -0.4375, -7.9878049, -56.0365868, 17.6829281, -0.0486763
1.0283203, -0.2524414, -0.4711914, -8.9024391, -57.1341476, 17.6219521, -0.0463264
1.027832, -0.2543945, -0.4755859, -13.1097565, -62.0731735, 17.8658543, -0.0486763
1.0268555, -0.2729492, -0.4501953, -15.3658543, -64.4512177, 18.2926826, -0.0459907
1.0258789, -0.2753906, -0.4243164, -18.2926826, -67.9268341, 19.1463413, -0.0433051
1.0205078, -0.2807617, -0.3769531, -18.9024391, -69.6341476, 19.5731716, -0.0433051
1.0234375, -0.2871094, -0.355957, -18.3536587, -72.2560959, 20.3658543, -0.0466621
1.0249023, -0.2978516, -0.331543, -17.1341476, -72.9878082, 20.6707325, -0.0412909
1.0283203, -0.3007812, -0.3310547, -13.841464, -73.9024429, 20.7317085, -0.0406195
1.027832, -0.3100586, -0.3476562, -10.8536587, -74.9390259, 20.9146347, -0.0426337
1.0268555, -0.3041992, -0.3515625, -10.3048782, -76.2804871, 21.4024391, -0.0433051
1.0253906, -0.3027344, -0.3515625, -9.8170738, -78.5975647, 22.3170738, -0.0446479
1.0283203, -0.2958984, -0.3730469, -8.9024391, -78.9634171, 22.8048782, -0.042298
1.0356445, -0.2944336, -0.3984375, -4.6951222, -77.68293, 22.8658543, -0.0433051
1.0449219, -0.2871094, -0.4770508, -2.5, -76.7682953, 23.4756107, -0.0433051
1.0463867, -0.2802734, -0.5292969, 0.9146342, -75.18293, 23.9634151, -0.0382696
1.0424805, -0.2583008, -0.5981445, 0.9756098, -75.3658524, 24.2682934, -0.0392767
1.034668, -0.2475586, -0.6142578, -3.7804878, -79.3902435, 24.6951218, -0.0409552
1.0244141, -0.2416992, -0.5869141, -7.8658538, -82.9268341, 25, -0.0412909
1.0102539, -0.2387695, -0.5498047, -15.6097565, -88.3536606, 25.6707325, -0.042298
0.9975586, -0.2407227, -0.4614258, -17.1951218, -89.3902435, 26.0365868, -0.0392767
0.9780273, -0.2319336, -0.4086914, -15.7317076, -87.5, 26.2195129, -0.0419623
0.9775391, -0.2270508, -0.4106445, -7.8658538, -82.9878082, 26.9512196, -0.0540475
0.9819336, -0.2324219, -0.4790039, -3.9634147, -81.7073212, 27.0121956, -0.056733
0.9946289, -0.2382812, -0.5380859, 0.1219512, -82.0731735, 27.2560978, -0.06009
1.015625, -0.262207, -0.6381836, -0.7926829, -82.9268341, 27.3780499, -0.063447
1.0166016, -0.2719727, -0.6572266, -6.8292685, -86.7073212, 27.9268303, -0.0688182
1.0078125, -0.2719727, -0.6240234, -10.9756098, -89.0853653, 28.1097565, -0.0681468
0.9995117, -0.2685547, -0.5898438, -16.4024391, -91.7682953, 29.4512196, -0.0647898
0.9970703, -0.2558594, -0.5327148, -16.3414631, -91.1585388, 30.3048782, -0.0607614
0.9951172, -0.2490234, -0.5205078, -12.7439032, -88.3536606, 31.4024391, -0.0540475
0.9960938, -0.2412109, -0.5229492, -10.5487804, -89.7560959, 31.280489, -0.0473335
0.9921875, -0.2485352, -0.5195312, -11.8902445, -92.4390259, 31.2195129, -0.0392767
0.9848633, -0.2597656, -0.5053711, -17.1951218, -97.9268341, 30.8536587, -0.0359197
0.9741211, -0.2949219, -0.4609375, -18.6585369, -99.5731735, 30.9146347, -0.0325628
0.9692383, -0.3173828, -0.4541016, -17.3170738, -99.6951218, 31.5853672, -0.024506
0.9711914, -0.340332, -0.472168, -14.2682934, -98.4756088, 31.9512196, -0.0285344
0.9736328, -0.3432617, -0.5019531, -6.5243902, -96.3414688, 32.8658562, -0.0325628
0.9755859, -0.3320312, -0.5668945, -3.3536587, -95.6707306, 33.5975609, -0.0359197
0.9824219, -0.3261719, -0.581543, 0.2439024, -95.6097565, 35.4268303, -0.0392767
0.9990234, -0.3056641, -0.6015625, -0.4268293, -96.646347, 36.5853653, -0.042298
1.0029297, -0.293457, -0.6079102, -1.7073171, -98.7195129, 36.4634171, -0.0386053
1.0024414, -0.2792969, -0.6254883, -3.5975611, -99.5731735, 36.4024391, -0.0339055
0.9980469, -0.2719727, -0.6689453, -3.1707318, -97.7439041, 36.5243912, -0.0392767
0.9926758, -0.2646484, -0.6923828, -1.2195122, -92.9268341, 37.7439041, -0.0453193
0.980957, -0.2490234, -0.7358398, -0.6707317, -92.3780518, 38.3536606, -0.0396124
0.9682617, -0.2397461, -0.7397461, -5.7926831, -98.3536606, 39.2073174, -0.0419623
0.9741211, -0.2402344, -0.706543, -9.9390249, -102.9268341, 39.7560997, -0.042298
0.9790039, -0.2558594, -0.6821289, -17.6829281, -108.8414688, 39.8780479, -0.0446479
0.9956055, -0.3041992, -0.6367188, -19.1463413, -110.0609818, 39.6951218, -0.0433051
1.0029297, -0.3320312, -0.6279297, -17.1951218, -109.5731735, 38.9024391, -0.0412909
1.0117188, -0.3696289, -0.628418, -12.8048782, -109.2073212, 38.5975609, -0.0433051
1.0073242, -0.375, -0.6303711, -11.4634151, -108.9634171, 39.1463432, -0.0345769
1.0048828, -0.3642578, -0.6010742, -10.6707315, -109.8170776, 40.7317085, -0.0379339
0.9936523, -0.3491211, -0.5795898, -10.1219511, -109.8780518, 41.7682953, -0.0412909
0.9931641, -0.3476562, -0.5776367, -7.5609756, -110.2439041, 42.3170738, -0.0379339
0.9912109, -0.3510742, -0.5996094, -5.4268293, -109.9390259, 42.0731735, -0.0419623
0.9946289, -0.3535156, -0.6147461, -1.7682927, -109.0853653, 41.5243912, -0.0396124
0.9858398, -0.3564453, -0.6669922, -0.7317073, -108.9634171, 41.341465, -0.0426337
0.9746094, -0.3530273, -0.6816406, -0.7926829, -111.646347, 41.341465, -0.0459907
0.965332, -0.3417969, -0.6796875, -1.7682927, -114.5731735, 41.7682953, -0.0439765
0.9633789, -0.3413086, -0.6591797, -5.5487804, -121.4634171, 42.8658562, -0.0493477
0.96875, -0.3452148, -0.5996094, -8.5365858, -127.68293, 42.8048782, -0.0527047
0.9775391, -0.3549805, -0.5825195, -8.1707315, -128.5975647, 42.3780479, -0.0547189
0.9887695, -0.3798828, -0.5878906, -3.1707318, -125.7926865, 41.8902435, -0.0533761
1, -0.3925781, -0.6523438, 0.7317073, -122.86586, 42.1951218, -0.0580758
0.996582, -0.3828125, -0.6850586, 7.0731707, -119.5121994, 43.9024391, -0.0614328
0.9780273, -0.3520508, -0.7172852, 7.7439027, -120.1219559, 44.5121956, -0.0607614
0.972168, -0.3354492, -0.71875, 5.1829271, -125.3048782, 45.6097565, -0.0570687
0.9702148, -0.3173828, -0.7226562, 3.0487804, -127.1341476, 46.0975609, -0.0527047
0.9790039, -0.3232422, -0.7382812, 3.0487804, -126.1585388, 46.0365868, -0.0547189
0.9956055, -0.3408203, -0.8208008, 5.0609756, -123.9634171, 46.341465, -0.0527047
1.0053711, -0.3427734, -0.8598633, 7.0121951, -121.8292694, 47.1951218, -0.0466621
1.0073242, -0.3203125, -0.8896484, 1.6463414, -127.0731735, 48.2317085, -0.0486763
1.0053711, -0.3105469, -0.8666992, -2.5, -130.7926788, 48.9024391, -0.0480049
1.0102539, -0.296875, -0.7807617, -10.060976, -135.9756165, 49.6951218, -0.0473335
1.0161133, -0.3139648, -0.6962891, -11.219512, -136.646347, 49.7560997, -0.0433051
1.0195312, -0.3295898, -0.6806641, -8.2926826, -135.4268341, 49.6341476, -0.0446479
1.019043, -0.3579102, -0.6879883, -5.7317076, -134.2073212, 49.5121956, -0.042298
1.0195312, -0.371582, -0.7133789, -1.5853659, -132.7439117, 49.6951218, -0.0446479
1.0078125, -0.3969727, -0.7573242, -1.1585366, -132.5, 50.1219521, -0.0426337
1.0009766, -0.4038086, -0.7700195, -2.2560976, -133.5365906, 51.7073174, -0.0453193
0.980957, -0.4052734, -0.7587891, -3.2317073, -134.4512177, 52.3170738, -0.0513619
0.965332, -0.4023438, -0.7456055, -3.9024391, -136.5243988, 53.5975609, -0.0513619
0.949707, -0.3930664, -0.7197266, -2.195122, -138.0487823, 54.3902435, -0.049012
0.9428711, -0.390625, -0.7128906, -0.7926829, -138.9024353, 54.6341476, -0.0473335
0.953125, -0.3876953, -0.71875, 1.3414634, -140.4878082, 54.8780518, -0.0513619
0.9584961, -0.3891602, -0.7456055, 2.195122, -140.7926788, 54.5731735, -0.0513619
0.9628906, -0.3950195, -0.7607422, 2.4390244, -141.8292694, 54.8170738, -0.0527047
0.9697266, -0.4013672, -0.7871094, 2.7439024, -142.5, 54.8170738, -0.0486763
0.9692383, -0.4038086, -0.796875, 1.8292683, -143.9024353, 55.18293, -0.0433051
0.9667969, -0.3969727, -0.7983398, 1.402439, -144.5731812, 55.6097565, -0.0446479
0.9575195, -0.3930664, -0.7885742, 0.6097561, -145.9146423, 56.7073174, -0.0433051
0.953125, -0.3833008, -0.7714844, 1.1585366, -146.2804871, 57.1341476, -0.0426337
0.9506836, -0.3837891, -0.7744141, 2.3170731, -145.4878082, 57.7439041, -0.0372625
0.9458008, -0.3847656, -0.7963867, 4.2073174, -145.1219482, 58.0487823, -0.0406195
0.9433594, -0.3862305, -0.8081055, 3.8414636, -146.2195129, 57.9268303, -0.0433051
0.9389648, -0.3994141, -0.8110352, 0.7317073, -151.7682953, 57.4390259, -0.0433051
0.9331055, -0.409668, -0.7832031, -1.402439, -154.0853729, 57.6219521, -0.0433051
0.9335938, -0.4155273, -0.7753906, -2.9268293, -155.4268341, 58.5975609, -0.0446479
0.9453125, -0.4335938, -0.7871094, -1.5243902, -154.3292694, 58.6585388, -0.0426337
0.9477539, -0.440918, -0.8100586, 3.8414636, -151.5243988, 59.6341476, -0.0419623
0.9521484, -0.4375, -0.8652344, 5.8536587, -150.36586, 60.4268303, -0.0459907
0.953125, -0.4282227, -0.8891602, 6.5853658, -150.4878082, 61.4634171, -0.0433051
0.9472656, -0.4111328, -0.9072266, 5.7926831, -150.7317047, 62.1341476, -0.0459907
0.9448242, -0.4042969, -0.9067383, 2.5, -152.1341553, 62.8658562, -0.0473335
0.9326172, -0.3964844, -0.8745117, -1.097561, -153.8414612, 63.1097565, -0.0473335
0.9130859, -0.3945312, -0.8383789, -2.3780489, -155.36586, 63.0487823, -0.0446479
0.9111328, -0.4042969, -0.8173828, -4.6951222, -158.7804871, 62.3780518, -0.0459907
0.9067383, -0.4321289, -0.7900391, -4.8780489, -159.3902435, 62.3170738, -0.0446479
0.8984375, -0.4482422, -0.7910156, -2.4390244, -158.0487823, 62.8048782, -0.0500191
0.8852539, -0.4692383, -0.8032227, -0.6097561, -157.3780518, 62.9878082, -0.0433051
0.8740234, -0.4702148, -0.8056641, 1.2804878, -157.9268341, 63.9024391, -0.042298
0.8549805, -0.4624023, -0.8017578, 1.1585366, -159.0853729, 64.4512177, -0.0419623
0.8466797, -0.456543, -0.7885742, 1.2804878, -160.7926941, 65.4878082, -0.0419623
0.8393555, -0.4482422, -0.7753906, 1.8292683, -161.0365906, 65.4878082, -0.0412909
0.8398438, -0.4492188, -0.7783203, 3.7804878, -161.7073212, 65.9756088, -0.0372625
0.8383789, -0.4594727, -0.7983398, 5.7317076, -164.8170776, 65.1219559, -0.0396124
0.8427734, -0.4760742, -0.8266602, 5.609756, -166.2195129, 64.6341476, -0.0386053
0.840332, -0.4868164, -0.8408203, 6.280488, -166.8902435, 65.1219559, -0.0446479
0.8364258, -0.5024414, -0.862793, 7.5609756, -166.5853729, 65.3658524, -0.0459907
0.8349609, -0.5014648, -0.8691406, 9.9390249, -166.8902435, 66.0975647, -0.0409552
0.8339844, -0.4970703, -0.8779297, 10.3658543, -167.7439117, 66.6463394, -0.0406195
0.8310547, -0.4926758, -0.8740234, 10.6707315, -169.2682953, 67.3170776, -0.0439765
0.8237305, -0.4765625, -0.8579102, 10.7317076, -169.5121918, 67.3780518, -0.0466621
0.8203125, -0.4697266, -0.8530273, 10.9756098, -169.146347, 67.3780518, -0.0439765
0.8076172, -0.4614258, -0.8574219, 11.7682934, -169.3902435, 67.68293, -0.0446479
0.7988281, -0.4584961, -0.8647461, 13.0487804, -168.4756165, 67.3170776, -0.0419623
0.7802734, -0.4365234, -0.9008789, 13.1097565, -166.0975647, 68.2317123, -0.0459907
0.7739258, -0.4272461, -0.9677734, 13.5975609, -163.9634247, 68.8414688, -0.049012
0.7763672, -0.4326172, -1.0102539, 13.2926836, -161.8292694, 70.2439041, -0.0466621
0.7792969, -0.4384766, -1.0703125, 11.5853662, -162.9268341, 70.7926865, -0.0419623
0.7792969, -0.4423828, -1.0786133, 4.8170733, -168.5365906, 71.2195129, -0.0449836
0.7666016, -0.4399414, -1.0205078, 0.6097561, -171.8902435, 71.4634171, -0.0433051
0.753418, -0.4399414, -0.9633789, -7.5, -178.3536682, 71.3414688, -0.0412909
0.7333984, -0.4492188, -0.8442383, -9.9390249, -180.3048859, 71.2195129, -0.0486763
0.7314453, -0.4658203, -0.8017578, -9.7560978, -180.6707306, 70.9146347, -0.0715038
0.7236328, -0.5063477, -0.7773438, -7.0121951, -179.3292694, 70.4268341, -0.0802319
0.7177734, -0.5209961, -0.784668, -0.8536586, -175.9756165, 70.0609741, -0.0728466
0.6884766, -0.5356445, -0.8051758, 2.9878049, -174.6951294, 69.8780518, -0.0580758
0.6577148, -0.5371094, -0.8310547, 4.4512196, -174.146347, 70.2439041, -0.0419623
0.6474609, -0.5390625, -0.8540039, 8.1097565, -171.9512177, 71.7682953, -0.0379339
0.6367188, -0.5449219, -0.9145508, 10.7926836, -170.7317047, 72.5609741, -0.0379339
0.6303711, -0.5415039, -0.9394531, 12.560976, -171.9512177, 73.4146347, -0.0386053
0.6079102, -0.5209961, -0.9331055, 11.280488, -175.0609741, 73.5365906, -0.0486763
0.5932617, -0.5053711, -0.9052734, 6.890244, -182.2561035, 73.3536606, -0.0553902
0.5664062, -0.484375, -0.831543, 5.4878049, -185.2439117, 73.4756088, -0.0607614
0.5668945, -0.4755859, -0.8022461, 5.9146342, -187.1951294, 73.5975647, -0.0654612
0.5820312, -0.4785156, -0.7915039, 8.4146347, -186.2195129, 73.8414688, -0.0560616
0.590332, -0.4833984, -0.8110352, 15.060976, -182.9878082, 73.5365906, -0.0392767
0.6015625, -0.4995117, -0.8896484, 19.0853672, -180.7317047, 73.0487823, -0.0221561
0.5957031, -0.5024414, -0.9638672, 19.6951218, -180.2439117, 73.5365906, -0.0104067
0.5913086, -0.5, -0.9848633, 17.9878044, -181.5243988, 75.3048782, -0.0040284
0.5771484, -0.4804688, -1.0014648, 16.6463413, -182.3780518, 76.3414688, 0.0016785
0.5742188, -0.4658203, -1.0009766, 14.9390249, -182.1951294, 78.4146347, 0.0030213
0.5688477, -0.4428711, -1, 14.4512196, -182.1951294, 79.0853653, -0.0040284
0.5629883, -0.4277344, -0.9912109, 12.9878054, -183.2926941, 79.6951218, -0.0097353
0.5581055, -0.4125977, -0.980957, 11.6463413, -183.6585388, 79.5121994, -0.0070497
0.5649414, -0.418457, -0.9853516, 9.6951218, -183.8414612, 79.5121994, -0.0070497
0.5683594, -0.4448242, -1.0185547, 9.1463413, -182.6829376, 79.0853653, -0.0073854
0.5683594, -0.4589844, -1.0385742, 8.4756098, -180, 78.9024429, -0.014435
0.5595703, -0.4707031, -1.0537109, 6.0365853, -180.3048859, 79.3902435, -0.0164492
0.5332031, -0.4755859, -1.027832, 3.9634147, -181.5853729, 79.7560959, -0.0231632
0.5258789, -0.4790039, -0.9980469, 0.7317073, -183.9024506, 80.6097565, -0.0325628
0.5170898, -0.4912109, -0.9472656, -0.2439024, -184.3902435, 81.0975647, -0.0513619
0.5161133, -0.503418, -0.9243164, 0.2439024, -183.6585388, 81.0975647, -0.0610971
0.5048828, -0.515625, -0.9077148, 1.4634147, -182.2561035, 81.0975647, -0.0688182
0.5, -0.5234375, -0.9101562, 4.5731707, -179.3292694, 80.1219559, -0.0708324
0.4873047, -0.5478516, -0.9267578, 6.0365853, -178.2926941, 79.6341476, -0.070161
0.4711914, -0.5571289, -0.9262695, 6.1585369, -179.2073212, 79.2682953, -0.06009
0.4243164, -0.5478516, -0.8847656, 5.4268293, -181.7682953, 80.6097565, -0.0500191
0.4033203, -0.5361328, -0.8525391, 6.2195125, -182.1951294, 81.4634171, -0.0439765
0.3764648, -0.5024414, -0.8095703, 10.5487804, -179.8170776, 83.7804871, -0.0386053
0.3823242, -0.4799805, -0.8374023, 13.2926836, -178.1097565, 84.5121994, -0.0365911
0.3916016, -0.4667969, -0.8681641, 17.6829281, -175.5487823, 84.4512253, -0.0486763
0.3945312, -0.4560547, -0.9248047, 18.2317085, -176.4634247, 83.8414688, -0.0540475
0.3857422, -0.4501953, -0.9394531, 14.8170738, -181.646347, 82.68293, -0.056733
0.3671875, -0.4526367, -0.9301758, 11.9512196, -184.5731812, 82.4390259, -0.0547189
0.3579102, -0.4545898, -0.9169922, 9.2073174, -186.7073212, 83.3536606, -0.0513619
0.3569336, -0.4731445, -0.9174805, 9.5121956, -185.6707306, 84.5121994, -0.0560616
0.3676758, -0.4785156, -0.9404297, 12.560976, -181.4634247, 85.1219559, -0.0557259
0.3686523, -0.4746094, -0.9970703, 12.9878054, -177.5609741, 86.2804871, -0.0520333
0.3618164, -0.465332, -1.019043, 11.5853662, -176.2804871, 87.1951218, -0.0466621
0.3374023, -0.4501953, -1.0214844, 6.8292685, -176.646347, 88.8414688, -0.0433051
0.3120117, -0.4165039, -0.9921875, 4.6951222, -177.5, 89.9390259, -0.0352483
0.3051758, -0.4018555, -0.9624023, 2.195122, -178.9634247, 90.9756088, -0.0271916
0.3017578, -0.3955078, -0.9174805, 1.2804878, -180.2439117, 90.7926865, -0.024506
0.3007812, -0.4013672, -0.9111328, 0.5487805, -181.646347, 90.5487823, -0.0265202
0.3134766, -0.4267578, -0.9233398, 0.3658537, -180.4878082, 90.0609741, -0.03122
0.3120117, -0.4433594, -0.934082, 0.9756098, -175.4878082, 89.4512253, -0.0332341
0.2998047, -0.4790039, -0.9580078, 0.7317073, -174.2682953, 88.7195129, -0.0382696
0.2822266, -0.4912109, -0.9555664, -0.9146342, -175.5487823, 88.2926865, -0.0315557
0.2387695, -0.5053711, -0.9077148, -4.2073174, -180.7317047, 89.2073212, -0.0325628
0.2148438, -0.503418, -0.8691406, -5.3048782, -182.5, 89.5731735, -0.0419623
0.1933594, -0.5039062, -0.7915039, -4.0853658, -183.3536682, 90.7317123, -0.0439765
0.1811523, -0.5117188, -0.7446289, -2.2560976, -182.6219482, 90.7317123, -0.0439765
0.1743164, -0.5107422, -0.7412109, 2.3170731, -180.0609741, 90.18293, -0.0406195
0.1699219, -0.5146484, -0.7895508, 4.6341462, -177.6219482, 89.8170776, -0.0419623
0.1743164, -0.5185547, -0.8300781, 9.8170738, -170.9756165, 89.3292694, -0.0473335
0.1762695, -0.5288086, -0.9208984, 11.1585369, -169.0853729, 89.3292694, -0.0500191
0.1704102, -0.5288086, -0.949707, 10.6097565, -171.7682953, 89.5121994, -0.0553902
0.1479492, -0.5161133, -0.9379883, 8.5975609, -176.3414612, 90, -0.0631113
0.1411133, -0.5014648, -0.9008789, 2.9268293, -186.5243988, 90.8536606, -0.0614328
0.1352539, -0.4731445, -0.8022461, -1.1585366, -192.1951294, 91.4634171, -0.0540475
0.1308594, -0.4633789, -0.7539062, -1.3414634, -192.1341553, 91.4024429, -0.0584115
0.1352539, -0.4482422, -0.6938477, 1.0365853, -187.6829376, 90.7317123, -0.0580758
0.1416016, -0.4648438, -0.7314453, 3.7804878, -183.9024506, 90.18293, -0.0533761
0.1450195, -0.4746094, -0.7832031, 11.4024391, -172.6219482, 90.3658524, -0.0553902
0.137207, -0.4780273, -0.9057617, 14.3902445, -167.1951294, 91.3414688, -0.0493477
0.1201172, -0.4726562, -0.9555664, 15.3048782, -164.0853729, 93.2317123, -0.0469978
0.0991211, -0.4384766, -1.0024414, 13.0487804, -166.4024353, 94.4512253, -0.0513619
0.0976562, -0.4194336, -0.9887695, 6.5243902, -171.3414612, 96.5853653, -0.0433051
0.097168, -0.3945312, -0.9526367, 3.5975611, -172.3780518, 97.1341476, -0.0325628
0.1015625, -0.3891602, -0.9355469, -0.2439024, -171.646347, 97.3170776, -0.0339055
0.1206055, -0.4052734, -0.9492188, 0.5487805, -166.2804871, 95.9756088, -0.0342412
0.1254883, -0.4189453, -0.972168, 1.402439, -162.9268341, 95.9146347, -0.0399481
0.1274414, -0.4370117, -0.9902344, 0.0609756, -160.9756165, 94.8170776, -0.0419623
0.105957, -0.4472656, -0.9638672, -2.3780489, -162.86586, 94.8170776, -0.0419623
0.0986328, -0.449707, -0.9360352, -8.3536587, -166.1585388, 95.6097565, -0.0543832
0.0927734, -0.4633789, -0.8701172, -10, -165.4878082, 96.0975647, -0.063447
0.0864258, -0.4726562, -0.8334961, -10.4268293, -162.3780518, 96.8902435, -0.0745251
0.0639648, -0.4804688, -0.7587891, -9.8170738, -161.646347, 96.4024429, -0.0758679
0.0439453, -0.4775391, -0.7265625, -8.2926826, -161.7682953, 95.4878082, -0.0775463
0.0136719, -0.4736328, -0.7011719, -6.7073174, -160.0609741, 95.3658524, -0.0809033
0.0083008, -0.4746094, -0.7148438, -1.5853659, -150.2439117, 95.7926865, -0.0815747
0.0043945, -0.4916992, -0.793457, 2.9268293, -141.5243988, 95.7317123, -0.0708324
-0.0053711, -0.4980469, -0.831543, 2.6829269, -142.2561035, 95, -0.0594186
-0.0288086, -0.503418, -0.8701172, -2.9878049, -150.36586, 93.3536606, -0.0506905
-0.0371094, -0.5048828, -0.8745117, -6.0975609, -153.1097565, 93.4146347, -0.0439765
-0.0268555, -0.5136719, -0.8813477, -7.8658538, -149.5731812, 93.9634171, -0.03122
-0.0078125, -0.5415039, -0.8911133, -6.890244, -146.646347, 94.0853653, -0.0218204
-0.0087891, -0.5546875, -0.8793945, -6.4024391, -150.6707306, 92.2561035, -0.0204776
-0.0195312, -0.5405273, -0.8227539, -8.1707315, -157.0121918, 90.6097565, -0.0198062
-0.0239258, -0.5327148, -0.7802734, -13.9024391, -167.5609741, 88.4756088, -0.0231632
-0.0087891, -0.5288086, -0.7158203, -15.5487804, -167.6219482, 88.1707306, -0.024506
0.0019531, -0.5322266, -0.6894531, -14.3902445, -161.3414612, 88.1097565, -0.0285344
0.0048828, -0.534668, -0.6606445, -8.780488, -154.3902435, 87.68293, -0.0325628
-0.0102539, -0.512207, -0.6723633, -5.7317076, -151.2804871, 87.4390259, -0.0352483
-0.019043, -0.4980469, -0.6933594, 0.5487805, -144.0243988, 88.1097565, -0.0365911
-0.0375977, -0.4692383, -0.7392578, 2.9268293, -140.6707306, 88.4146347, -0.0339055
-0.0478516, -0.4545898, -0.7558594, 3.5975611, -139.3902435, 88.9634171, -0.0392767
-0.0693359, -0.4199219, -0.777832, 2.0121951, -140.7926788, 88.8414688, -0.042298
-0.0742188, -0.4023438, -0.7827148, -1.9512196, -142.0121918, 88.7804871, -0.0406195
-0.0839844, -0.3691406, -0.784668, -3.5975611, -140.7926788, 88.7804871, -0.0453193
-0.0864258, -0.3671875, -0.7915039, -5.4878049, -136.3414612, 87.68293, -0.0419623
-0.078125, -0.3833008, -0.8378906, -6.0975609, -134.8780518, 87.1951218, -0.0446479
-0.0810547, -0.3964844, -0.8613281, -7.9268293, -132.3780518, 86.4024429, -0.0486763
-0.0957031, -0.3945312, -0.8681641, -11.4634151, -132.0731812, 86.4634171, -0.0540475
-0.1225586, -0.3657227, -0.8066406, -14.5731707, -133.5365906, 86.4634171, -0.0513619
-0.1396484, -0.3515625, -0.7597656, -21.0365868, -139.7561035, 86.7682953, -0.0503548
-0.1411133, -0.3378906, -0.6845703, -23.7195129, -141.5243988, 86.646347, -0.0570687
-0.1279297, -0.3481445, -0.6704102, -25.2439022, -137.8048859, 85.8536606, -0.0540475
-0.097168, -0.402832, -0.6958008, -23.5365868, -133.1707306, 84.8780518, -0.0520333
-0.0859375, -0.4287109, -0.7270508, -19.0853672, -123.2926865, 82.6219559, -0.0540475
-0.0917969, -0.484375, -0.793457, -17.6829281, -119.9390259, 81.5243912, -0.0493477
-0.1074219, -0.4931641, -0.8110352, -18.5975609, -118.4756088, 80.6097565, -0.0513619
-0.1538086, -0.4814453, -0.7783203, -20.4878044, -119.8170776, 80.4878082, -0.0419623
-0.1708984, -0.4726562, -0.7421875, -26.3414631, -123.4146347, 81.0975647, -0.0436408
-0.1953125, -0.4487305, -0.6616211, -29.3292694, -123.9634171, 80.8536606, -0.0506905
-0.1928711, -0.440918, -0.612793, -28.9024391, -122.8048782, 80.3048782, -0.0513619
-0.1845703, -0.4521484, -0.6191406, -23.1707325, -115.7926865, 77.9878082, -0.0486763
-0.1523438, -0.4907227, -0.699707, -18.4756107, -110.4268341, 76.9512177, -0.0476692
-0.1298828, -0.5126953, -0.7558594, -10.2439022, -101.8902435, 74.6951218, -0.0439765
-0.1308594, -0.5336914, -0.840332, -9.2073174, -100.9146347, 73.6585388, -0.0459907
-0.1479492, -0.5170898, -0.8261719, -15.9756098, -107.2561035, 71.8292694, -0.0486763
-0.2036133, -0.4541016, -0.699707, -22.0731716, -113.8414688, 71.4634171, -0.056733
-0.2236328, -0.4213867, -0.6103516, -33.1707306, -122.1341476, 70.9146347, -0.0654612
-0.2250977, -0.3916016, -0.4985352, -33.7195129, -119.5121994, 71.0365906, -0.063447
-0.2041016, -0.3959961, -0.5014648, -22.1341476, -101.3414688, 71.7073212, -0.0621042
-0.1655273, -0.4277344, -0.5986328, -4.9390244, -82.9268341, 70, -0.0553902
-0.1665039, -0.4301758, -0.7255859, -1.3414634, -80.4268341, 68.6585388, -0.0412909
-0.1879883, -0.4150391, -0.7456055, -9.2073174, -90.7317123, 65.18293, -0.0288701
-0.246582, -0.355957, -0.6879883, -18.5975609, -98.7195129, 64.2073212, -0.0154421
-0.2641602, -0.3364258, -0.6225586, -34.5731697, -107.6219559, 64.2073212, -0.0070497
-0.2783203, -0.3359375, -0.4941406, -37.9878044, -107.6219559, 64.5121994, -0.0083925
-0.2768555, -0.3422852, -0.4516602, -34.7560997, -104.146347, 63.4756126, -0.0114137
-0.2661133, -0.375, -0.4414062, -30, -102.0121994, 62.4390259, -0.0218204
-0.262207, -0.3950195, -0.4741211, -19.0853672, -93.9634171, 60.1219521, -0.0325628
-0.2563477, -0.4223633, -0.5791016, -14.2682934, -88.1707306, 59.5731735, -0.0339055
-0.2612305, -0.4296875, -0.6313477, -10.4878054, -80, 59.3902435, -0.0386053
-0.2827148, -0.4008789, -0.6689453, -16.7073174, -83.6585388, 59.6951218, -0.0433051
-0.300293, -0.3540039, -0.644043, -22.1341476, -87.3170776, 59.6951218, -0.0459907
-0.2954102, -0.3486328, -0.6357422, -27.560976, -86.8292694, 59.8170738, -0.0493477
-0.2729492, -0.3598633, -0.6586914, -26.5243912, -81.1585388, 60.0609779, -0.0473335
-0.2553711, -0.378418, -0.6889648, -19.7560978, -69.5731735, 59.5121956, -0.0587472
-0.2504883, -0.4052734, -0.7451172, -17.6829281, -67.4390259, 58.2926826, -0.0788891
-0.2651367, -0.4042969, -0.7480469, -22.439024, -73.0487823, 54.0243912, -0.0929885
-0.3061523, -0.3842773, -0.6923828, -27.6829281, -77.7439041, 52.1951218, -0.0976883
-0.3232422, -0.3793945, -0.6533203, -37.1341476, -79.5731735, 50.6097565, -0.109102
-0.34375, -0.3764648, -0.5786133, -38.4146347, -76.0975647, 50.4268303, -0.1238727
-0.3535156, -0.3779297, -0.5537109, -35.1219521, -68.0487823, 51.0365868, -0.1077592
-0.3583984, -0.371582, -0.5332031, -30.060976, -64.5121994, 49.7560997, -0.0997024
-0.3515625, -0.3759766, -0.5512695, -27.9268303, -63.6585388, 48.9024391, -0.1211872
-0.3554688, -0.3818359, -0.5712891, -26.7682934, -61.1585388, 46.5853653, -0.0956741
-0.3647461, -0.3862305, -0.5756836, -28.2926826, -60.9146347, 45.7317085, -0.0426337
-0.3876953, -0.378418, -0.5473633, -35.6707344, -66.7073212, 43.6585388, 0.0104067
-0.4355469, -0.3520508, -0.4277344, -41.0365868, -72.2560959, 42.0121956, 0.0362554
-0.456543, -0.3374023, -0.359375, -49.3292694, -80.9146347, 39.1463432, 0.0365911
-0.480957, -0.3413086, -0.2636719, -49.5121956, -80.9756088, 37.9268303, 0.0184634
-0.4780273, -0.3549805, -0.2543945, -40.5487823, -73.2926865, 36.4634171, -0.0218204
-0.4575195, -0.4101562, -0.3037109, -32.6219521, -67.3780518, 36.1585388, -0.0513619
-0.4423828, -0.4355469, -0.3671875, -18.4756107, -57.8658562, 35.2439041, -0.0527047
-0.4150391, -0.4619141, -0.4936523, -11.9512196, -54.6341476, 33.9634171, -0.0372625
-0.418457, -0.4555664, -0.5761719, -13.1707315, -55.2439041, 32.8048782, -0.0164492
-0.4306641, -0.4370117, -0.5751953, -21.0975609, -58.5975609, 31.1585369, 0.0073854
-0.453125, -0.3813477, -0.5273438, -26.0365868, -60.3658562, 30.7926846, 0.0285344
-0.4682617, -0.3583984, -0.487793, -31.8292694, -62.0121956, 29.4512196, 0.0453193
-0.484375, -0.3125, -0.4296875, -31.9512196, -61.341465, 28.841465, 0.0506905
-0.4794922, -0.3037109, -0.4169922, -28.2317085, -57.3170738, 27.3780499, 0.0466621
-0.4868164, -0.2919922, -0.4365234, -25.9146347, -55.1219521, 26.4634151, 0.027863
-0.4833984, -0.2895508, -0.4550781, -23.6585369, -51.1585388, 24.6341476, 0.0154421
-0.4755859, -0.2856445, -0.5043945, -24.2073174, -46.5853653, 23.2926826, 0.0097353
-0.472168, -0.2919922, -0.534668, -25.3048782, -44.1463432, 22.6219521, -0.0010071
-0.4614258, -0.3100586, -0.5825195, -28.3536587, -41.4024391, 21.7073174, -0.0097353
-0.4648438, -0.331543, -0.6142578, -30.1219521, -40.1219521, 21.3414631, -0.0137636
-0.4638672, -0.340332, -0.6264648, -32.3170738, -37.3170738, 20.7317085, -0.0275273
-0.4897461, -0.3466797, -0.6176758, -33.1707306, -36.0975609, 20.5487804, -0.0359197
-0.5131836, -0.331543, -0.590332, -36.2804871, -36.1585388, 20.3658543, -0.0372625
-0.5522461, -0.3007812, -0.5175781, -39.2682953, -37.4390259, 19.939024, -0.0392767
-0.5693359, -0.2910156, -0.4780273, -44.3902435, -36.4634171, 18.9024391, -0.0419623
-0.5976562, -0.2905273, -0.4165039, -45.5487823, -34.2682953, 18.1707325, -0.0433051
-0.6113281, -0.293457, -0.3945312, -45.3048782, -29.1463413, 17.1951218, -0.0493477
-0.6396484, -0.2958984, -0.3657227, -42.8048782, -26.9512196, 16.1585369, -0.0527047
-0.644043, -0.3022461, -0.3544922, -42.6219521, -28.4756107, 15.1829271, -0.0594186
-0.6396484, -0.3134766, -0.3417969, -45.1219521, -33.9024391, 13.3536587, -0.0674754
-0.6181641, -0.3388672, -0.3193359, -47.3170738, -37.0731697, 12.1341467, -0.0674754
-0.6103516, -0.3496094, -0.3037109, -51.1585388, -40.7926826, 8.841464, -0.070161
-0.6044922, -0.3754883, -0.2490234, -52.1341476, -41.4024391, 7.3780489, -0.076875
-0.6044922, -0.3896484, -0.2197266, -51.4024391, -41.0975609, 4.2682929, -0.0798962
-0.6103516, -0.4042969, -0.1777344, -48.7804871, -39.4512215, 3.1097562, -0.0862745
-0.6132812, -0.4086914, -0.1704102, -40.4878044, -32.4390259, 1.5243902, -0.0876173
-0.621582, -0.4033203, -0.1767578, -35.0609779, -28.1707325, 1.4634147, -0.0876173
-0.6259766, -0.3920898, -0.1943359, -25.2439022, -20.5487804, 1.402439, -0.0849317
-0.6210938, -0.3637695, -0.2402344, -19.1463413, -16.4024391, 0.3048781, -0.0862745
-0.6147461, -0.3540039, -0.2700195, -17.9268303, -15.1219511, -0.1829268, -0.0809033
-0.6005859, -0.3251953, -0.3222656, -18.1097565, -13.780488, -2.804878, -0.0674754
-0.5981445, -0.3037109, -0.3662109, -18.5365849, -12.8658543, -4.0853658, -0.0493477
-0.5932617, -0.296875, -0.3867188, -18.6585369, -9.2682924, -6.1585369, -0.0412909
-0.597168, -0.2783203, -0.4155273, -18.0487804, -7.1341467, -7.1341467, -0.0446479
-0.6103516, -0.2680664, -0.4208984, -18.7195129, -5.9756098, -7.9268293, -0.0574044
-0.6210938, -0.237793, -0.4052734, -21.0975609, -7.9268293, -8.6585369, -0.0661326
-0.6235352, -0.2290039, -0.3959961, -27.0731716, -9.9390249, -10.060976, -0.0728466
-0.6181641, -0.2294922, -0.3857422, -28.5975609, -7.3780489, -10.3658543, -0.0755322
-0.6186523, -0.2441406, -0.3857422, -25.7926826, 1.7073171, -9.6341467, -0.0785534
-0.628418, -0.265625, -0.3876953, -22.1951218, 7.2560978, -8.9024391, -0.0661326
-0.6308594, -0.265625, -0.387207, -21.3414631, 7.6219516, -8.6585369, -0.0560616
-0.6455078, -0.262207, -0.3735352, -22.9268303, 7.0731707, -9.0853662, -0.0473335
-0.6577148, -0.2651367, -0.3378906, -24.0853672, 7.8658538, -9.0853662, -0.0396124
-0.6625977, -0.2734375, -0.3149414, -25.5487804, 11.219512, -10, -0.0433051
-0.6762695, -0.2783203, -0.2749023, -24.8780499, 13.4146347, -10.1219511, -0.0352483
-0.690918, -0.277832, -0.2612305, -21.6463413, 17.6219521, -10.5487804, -0.0392767
-0.7128906, -0.2734375, -0.2231445, -20, 18.5365849, -10.7926836, -0.0449836
-0.7163086, -0.2695312, -0.2041016, -18.4146347, 16.3414631, -11.219512, -0.0459907
-0.7236328, -0.2563477, -0.1572266, -18.780489, 13.6585369, -11.7073174, -0.0459907
-0.7211914, -0.2563477, -0.1298828, -19.6341476, 10.4268293, -13.0487804, -0.0500191
-0.7080078, -0.2680664, -0.0898438, -16.9512196, 10.1829271, -14.7560978, -0.0547189
-0.7016602, -0.2832031, -0.0810547, -14.7560978, 10.4268293, -15.6707325, -0.0527047
-0.6801758, -0.3237305, -0.0830078, -7.6219516, 12.0731707, -16.7682934, -0.0486763
-0.6542969, -0.3608398, -0.1005859, -3.7195122, 13.0487804, -17.3780499, -0.0527047
-0.6494141, -0.3710938, -0.1113281, 1.8902439, 13.9024391, -19.3902435, -0.063447
-0.6342773, -0.3823242, -0.1210938, 3.7804878, 13.5365858, -20.7317085, -0.0661326
-0.6298828, -0.390625, -0.1176758, 6.8292685, 11.9512196, -23.6585369, -0.0587472
-0.6313477, -0.4008789, -0.1088867, 8.5365858, 11.7682934, -25.3658543, -0.0580758
-0.6303711, -0.4038086, -0.1083984, 14.0243902, 13.2926836, -27.9878063, -0.0584115
-0.6181641, -0.4008789, -0.1201172, 18.3536587, 15.6707325, -28.6585369, -0.0553902
-0.6108398, -0.4003906, -0.1494141, 28.9634151, 23.5975609, -29.2073174, -0.0580758
-0.5791016, -0.4033203, -0.2490234, 41.4634171, 35.4878044, -28.841465, -0.0587472
-0.5556641, -0.3984375, -0.3193359, 47.6829262, 42.8048782, -27.9878063, -0.0533761
-0.5229492, -0.3725586, -0.4711914, 55.6707344, 53.6585388, -26.5853672, -0.0459907
-0.5097656, -0.3007812, -0.5927734, 55.9756126, 56.341465, -26.1585369, -0.0486763
-0.5102539, -0.2563477, -0.6308594, 49.3902435, 57.3780518, -27.3780499, -0.0513619
-0.515625, -0.1772461, -0.6552734, 42.5609779, 55.6707344, -28.9024391, -0.0473335
-0.5136719, -0.1503906, -0.6484375, 24.5731716, 46.6463432, -33.9024391, -0.0426337
-0.5, -0.1386719, -0.6220703, 15.6707325, 41.4634171, -36.5243912, -0.0433051
-0.4819336, -0.1538086, -0.6132812, 2.5, 39.2073174, -40.9146347, -0.0449836
-0.4614258, -0.2104492, -0.5932617, -1.097561, 41.2195129, -41.9512215, -0.0459907
-0.4609375, -0.2226562, -0.5712891, -7.3170733, 42.9878044, -43.0487823, -0.0493477
-0.4814453, -0.2285156, -0.4760742, -15.9146347, 37.7439041, -43.841465, -0.0419623
-0.503418, -0.2241211, -0.3422852, -20.4268303, 35.1829262, -44.2073174, -0.0446479
-0.5073242, -0.2338867, -0.277832, -24.9390259, 34.5121956, -44.3902435, -0.0473335
-0.5048828, -0.2866211, -0.184082, -23.9634151, 37.3170738, -44.5121956, -0.0469978
-0.4980469, -0.324707, -0.1606445, -13.5975609, 47.2560997, -44.2682953, -0.042298
-0.4921875, -0.3969727, -0.1601562, -5.9756098, 52.8658562, -44.1463432, -0.0446479
-0.4960938, -0.4243164, -0.1762695, 10.3048782, 63.0487823, -44.0243912, -0.0439765
-0.5112305, -0.4643555, -0.2338867, 17.439024, 66.2195129, -43.6585388, -0.0446479
-0.5175781, -0.4755859, -0.265625, 27.3170738, 71.9512177, -42.8048782, -0.0473335
-0.5161133, -0.4824219, -0.3266602, 31.0975609, 74.3902435, -42.3780479, -0.0473335
-0.5141602, -0.4775391, -0.3515625, 36.0365868, 77.2560959, -42.4390259, -0.0436408
-0.5151367, -0.4609375, -0.3798828, 36.2804871, 71.4634171, -44.0243912, -0.0493477
-0.5200195, -0.421875, -0.3598633, 34.0853653, 65.4878082, -45.4878044, -0.0453193
-0.5180664, -0.4033203, -0.3422852, 29.6341476, 56.7682953, -48.0487823, -0.0412909
-0.4931641, -0.3852539, -0.3168945, 29.6951218, 56.5243912, -49.2073174, -0.0433051
-0.4741211, -0.3842773, -0.3208008, 35.4268303, 61.1585388, -49.9390259, -0.0392767
-0.4345703, -0.3803711, -0.3583984, 40.0609779, 64.5731735, -50.4878044, -0.0453193
-0.4189453, -0.3725586, -0.3950195, 49.3292694, 70.5487823, -50.9146347, -0.0386053
-0.3774414, -0.3564453, -0.5087891, 53.4756126, 74.8780518, -50.6707344, -0.0392767
-0.3588867, -0.3491211, -0.578125, 57.9878044, 86.9512253, -50.3658562, -0.0433051
-0.3227539, -0.3364258, -0.7167969, 57.4390259, 93.1097565, -49.8170738, -0.0419623
-0.3115234, -0.3208008, -0.7836914, 51.8292694, 102.0121994, -50.1829262, -0.0406195
-0.300293, -0.2944336, -0.8920898, 40.7317085, 105.6707306, -52.7439041, -0.0406195
-0.2939453, -0.284668, -0.9233398, 32.5, 103.1707306, -55.4268303, -0.0412909
-0.2958984, -0.2939453, -0.9125977, 12.0121956, 87.3170776, -61.9512215, -0.0412909
-0.2871094, -0.3432617, -0.8330078, 1.3414634, 77.2560959, -65.4268341, -0.0406195
-0.2749023, -0.3730469, -0.7827148, -13.6585369, 69.5121994, -69.5731735, -0.0386053
-0.2402344, -0.440918, -0.7094727, -15.9756098, 73.5365906, -70.7926865, -0.0399481
-0.2216797, -0.4770508, -0.6967773, -11.0975609, 89.5731735, -72.1951218, -0.0328985
-0.1967773, -0.5351562, -0.715332, -6.890244, 96.8292694, -72.1951218, -0.0298772
-0.2084961, -0.5405273, -0.7158203, -0.9756098, 101.9512253, -72.0731735, -0.0318914
-0.2392578, -0.5200195, -0.6503906, -1.8292683, 99.2682953, -72.0121994, -0.0359197
-0.265625, -0.4980469, -0.5893555, -8.0487804, 92.2561035, -71.5853653, -0.035584
-0.3032227, -0.4672852, -0.4575195, -8.5365858, 95.6707306, -69.6951218, -0.0298772
-0.3100586, -0.4829102, -0.3876953, -4.1463413, 102.5, -68.4756088, -0.0352483
-0.3100586, -0.4970703, -0.3886719, 11.5243902, 117.3170776, -67.3170776, -0.0305486
-0.3081055, -0.5229492, -0.4658203, 20.060976, 122.9268341, -67.1341476, -0.0386053
-0.3110352, -0.53125, -0.5249023, 33.4756088, 128.8414612, -68.9024429, -0.0412909
-0.3330078, -0.5107422, -0.6542969, 37.4390259, 131.646347, -69.0853653, -0.0453193
-0.3491211, -0.4921875, -0.7138672, 41.1585388, 138.4146423, -68.1097565, -0.0446479
-0.3798828, -0.4282227, -0.7802734, 41.4634171, 139.6341553, -66.8292694, -0.0412909
-0.3847656, -0.3964844, -0.7900391, 37.9268303, 131.0365906, -65.0609741, -0.0406195
-0.3549805, -0.3393555, -0.7924805, 34.5121956, 122.1951218, -64.8780518, -0.0386053
-0.3203125, -0.3212891, -0.7988281, 26.8902454, 107.0121994, -66.2804871, -0.0392767
-0.2241211, -0.3364258, -0.8500977, 21.5243912, 105.3658524, -69.5121994, -0.0325628
-0.1445312, -0.3901367, -0.9272461, 18.780489, 108.1097565, -71.5853653, -0.0339055
-0.121582, -0.4208984, -0.9555664, 12.1341467, 111.7073212, -75.4878082, -0.0365911
-0.1069336, -0.4658203, -0.965332, 7.6219516, 111.4634171, -77.2560959, -0.0399481
-0.1166992, -0.4697266, -0.9438477, -1.7682927, 108.6585388, -78.7195129, -0.0406195
-0.1401367, -0.4716797, -0.8691406, -6.4024391, 106.4024429, -78.4146347, -0.0379339
-0.1459961, -0.4790039, -0.8222656, -14.9390249, 102.7439041, -77.1951218, -0.0379339
-0.1577148, -0.496582, -0.7163086, -17.439024, 100.6097565, -76.8902435, -0.0392767
-0.1547852, -0.5097656, -0.6713867, -19.5731716, 99.6341476, -76.7073212, -0.0446479
-0.1508789, -0.5385742, -0.6113281, -18.1097565, 101.1585388, -76.7682953, -0.0439765
-0.144043, -0.5561523, -0.6166992, -9.9390249, 111.5853653, -77.6219559, -0.0369268
-0.1323242, -0.6147461, -0.6899414, 3.9024391, 129.0853729, -77.6219559, -0.0365911
-0.1391602, -0.6640625, -0.8041992, 10.2439022, 135.9146423, -77.8658524, -0.0386053
-0.1630859, -0.6796875, -0.8374023, 15.1829271, 134.3902435, -78.9024429, -0.0325628
-0.2241211, -0.6655273, -0.8276367, 13.9024391, 127.5609818, -79.6341476, -0.0352483
-0.2392578, -0.6479492, -0.8125, 10.7317076, 119.3902435, -77.1341476, -0.0352483
-0.2290039, -0.6230469, -0.831543, 13.1707315, 123.9634171, -74.4512177, -0.0339055
-0.2011719, -0.6054688, -0.8681641, 23.4146347, 141.2195129, -69.2682953, -0.0325628
-0.1728516, -0.5664062, -0.9589844, 28.0487804, 146.2195129, -67.5, -0.0379339
-0.1606445, -0.534668, -0.9951172, 28.841465, 140.36586, -68.6585388, -0.035584
-0.1386719, -0.4580078, -1.0161133, 18.7195129, 126.8902435, -70.4878082, -0.0386053
-0.1230469, -0.4311523, -1.0004883, 12.1951218, 122.2561035, -71.2804871, -0.0412909
-0.0966797, -0.4106445, -0.9262695, -0.3658537, 115.18293, -73.2317123, -0.0412909
-0.0830078, -0.4169922, -0.7988281, -5.3658538, 111.2804871, -74.3292694, -0.0412909
-0.0766602, -0.4296875, -0.7314453, -11.9512196, 104.5731735, -77.0121994, -0.0409552
-0.0537109, -0.4770508, -0.6582031, -12.2560978, 104.7561035, -78.3536606, -0.0372625
-0.0175781, -0.5185547, -0.6865234, -4.0853658, 119.3292694, -80.3658524, -0.0406195
0.0629883, -0.6264648, -0.8735352, 3.7195122, 132.9268341, -80.7926865, -0.042298
0.0844727, -0.6816406, -0.9980469, 18.5365849, 155.4268341, -83.6585388, -0.0459907
0.0532227, -0.7436523, -1.1538086, 20.6707325, 156.0975647, -85.3658524, -0.0459907
-0.0126953, -0.7353516, -1.1352539, 8.2317076, 130, -87.6219559, -0.0406195
-0.1635742, -0.6635742, -0.8984375, -14.7560978, 91.5243912, -83.3536606, -0.0412909
-0.2207031, -0.6137695, -0.7226562, -22.5, 80.6707306, -78.1097565, -0.0446479
-0.2519531, -0.5356445, -0.4189453, -19.4512196, 88.2926865, -65.2439041, -0.0412909
-0.1591797, -0.5273438, -0.3466797, -8.0487804, 104.3902435, -60.4878044, -0.0399481
-0.0864258, -0.5415039, -0.4213867, 25.6097565, 141.4024353, -58.7195129, -0.0480049
0.0664062, -0.5981445, -0.746582, 41.0365868, 154.6341553, -62.5609779, -0.0446479
0.1113281, -0.6240234, -0.9399414, 53.6585388, 158.7804871, -77.8658524, -0.0473335
0.1030273, -0.6435547, -1.1879883, 48.6585388, 150.1219482, -85.3658524, -0.0506905
0.0581055, -0.6333008, -1.2045898, 22.6219521, 118.7195129, -93.4146347, -0.0530404
-0.0288086, -0.6015625, -1.0556641, 8.1097565, 102.9878082, -92.1341476, -0.0553902
-0.0424805, -0.5859375, -0.9560547, -9.0243902, 91.0365906, -81.1585388, -0.0520333
0.0297852, -0.5722656, -0.8486328, -3.1097562, 111.8292694, -67.9268341, -0.06009
0.0922852, -0.5751953, -0.862793, 4.9390244, 126.4634171, -64.2682953, -0.070161
0.1923828, -0.5854492, -0.9443359, 16.280489, 139.4512177, -66.9512177, -0.070161
0.1777344, -0.5581055, -0.9672852, 15.5487804, 134.7561035, -71.5853653, -0.0681468
0.144043, -0.5244141, -0.9267578, 2.4390244, 113.4756088, -80.8536606, -0.06009
0.046875, -0.4692383, -0.7666016, -6.0975609, 104.5731735, -83.2926865, -0.0463264
0.0068359, -0.4477539, -0.6738281, -16.5243912, 101.3414688, -81.9512177, -0.0318914
-0.015625, -0.449707, -0.5546875, -16.7682934, 105.9146347, -79.5731735, -0.011078
0, -0.4711914, -0.5561523, -7.1951222, 121.5853653, -75.9756088, 0.0090639
0.0869141, -0.5507812, -0.703125, 0.3048781, 130.6097565, -76.2804871, 0.0224918
0.1303711, -0.5869141, -0.828125, 13.1707315, 144.6951294, -81.2195129, 0.021149
0.1738281, -0.6494141, -1.0678711, 13.5975609, 142.9878082, -89.146347, 0.0097353
0.1601562, -0.6660156, -1.1333008, 7.9878049, 134.6341553, -92.1341476, -0.0057069
0.0932617, -0.6630859, -1.1054688, -9.5731707, 108.7195129, -92.0121994, -0.0258488
0.0424805, -0.6333008, -0.9174805, -17.7439022, 97.0121994, -89.5731735, -0.0365911
0.0463867, -0.6210938, -0.8217773, -24.0853672, 89.2073212, -80.6707306, -0.0466621
0.1210938, -0.6318359, -0.7167969, -20.3658543, 94.146347, -76.5243912, -0.0527047
0.1816406, -0.652832, -0.7246094, -5.4268293, 114.5731735, -73.8414688, -0.0547189
0.296875, -0.6987305, -0.8520508, 2.4390244, 124.2073212, -76.1585388, -0.0584115
0.3300781, -0.7202148, -0.9477539, 10.4878054, 134.4512177, -85.9756088, -0.0708324
0.3515625, -0.7460938, -1.121582, 9.7560978, 135, -91.646347, -0.0852674
0.3369141, -0.7509766, -1.1762695, 0.9756098, 130.1829224, -98.6585388, -0.0708324
0.28125, -0.7431641, -1.1674805, -12.9268293, 116.7682953, -98.4146347, -0.0480049
0.2490234, -0.7363281, -1.1015625, -19.2073174, 107.68293, -95.6707306, -0.027863
0.1914062, -0.6933594, -0.8852539, -28.5365868, 90.6707306, -87.7439041, -0.0191348
0.1650391, -0.6289062, -0.6381836, -30.6097565, 85.3658524, -83.7804871, -0.0137636
0.1582031, -0.5917969, -0.5273438, -27.3170738, 87.8048782, -78.2926865, -0.0070497
0.159668, -0.5273438, -0.402832, -21.4634151, 96.3414688, -76.3414688, -0.021149
0.1674805, -0.5019531, -0.4106445, -1.8292683, 122.9268341, -75.7926865, -0.03122
0.2211914, -0.4765625, -0.5957031, 10.1829271, 137.8048859, -76.8292694, -0.0332341
0.2519531, -0.4794922, -0.7539062, 27.3780499, 158.3536682, -82.9268341, -0.0392767
0.2939453, -0.4814453, -1.1103516, 29.3902454, 160.9756165, -86.5853653, -0.0426337
0.300293, -0.4887695, -1.2636719, 17.5, 151.0365906, -92.9878082, -0.0419623
0.2885742, -0.4897461, -1.4238281, -9.1463413, 127.68293, -94.9390259, -0.0486763
0.2729492, -0.4897461, -1.4086914, -24.0853672, 112.5609818, -93.7804871, -0.0533761
0.2441406, -0.4794922, -1.184082, -51.7682953, 78.3536606, -88.7195129, -0.0527047
0.2602539, -0.4858398, -0.8598633, -61.341465, 63.9634171, -85.8536606, -0.0493477
0.3007812, -0.4956055, -0.7294922, -68.0487823, 55.9756126, -81.7073212, -0.0406195
0.4047852, -0.5556641, -0.5795898, -64.4512177, 64.3902435, -81.1585388, -0.0419623
0.4492188, -0.5898438, -0.5620117, -47.9268303, 93.4146347, -84.3902435, -0.0339055
0.4760742, -0.6635742, -0.581543, -38.7804871, 105.4878082, -87.3780518, -0.0352483
0.4516602, -0.6835938, -0.5981445, -24.6341476, 113.5975647, -94.0243912, -0.0433051
0.3769531, -0.6967773, -0.6220703, -21.5243912, 111.8292694, -95.5487823, -0.0540475
0.3525391, -0.6943359, -0.6420898, -18.4146347, 109.8780518, -93.7195129, -0.0584115
0.3530273, -0.7045898, -0.7319336, -13.2317076, 122.68293, -87.2560959, -0.0627756
0.4082031, -0.734375, -0.9130859, -8.4756098, 132.2561035, -84.8170776, -0.056733
0.4360352, -0.7421875, -1.0063477, -0.3048781, 143.6585388, -83.7195129, -0.0513619
0.4287109, -0.7211914, -1.144043, 0.6707317, 141.7682953, -84.5121994, -0.0386053
0.3930664, -0.6826172, -1.1464844, -4.8170733, 122.4390259, -85.9146347, -0.0271916
0.2929688, -0.5620117, -1.0024414, -11.5243902, 108.4146347, -84.9390259, -0.0352483
0.2514648, -0.4970703, -0.8833008, -25.6097565, 85.18293, -79.8170776, -0.0372625
0.2548828, -0.4086914, -0.6767578, -29.9390259, 81.0975647, -76.0365906, -0.027863
0.3076172, -0.3979492, -0.6430664, -27.3780499, 94.5731735, -72.3170776, -0.0070497
0.4667969, -0.4370117, -0.7543945, -20.5487804, 108.9634171, -73.8414688, 0.0023499
0.534668, -0.4746094, -0.8793945, -6.0365853, 134.0243988, -85.1219559, 0.0090639
0.5966797, -0.5566406, -1.1401367, -4.7560978, 133.2317047, -100.3658524, 0.0151064
0.5473633, -0.6118164, -1.2495117, -11.280488, 122.5, -106.4024429, 0.0063783
0.4985352, -0.6254883, -1.2133789, -34.4512215, 92.4390259, -109.8170776, -0.0171206
0.4086914, -0.6381836, -0.9902344, -46.0975609, 79.146347, -107.4390259, -0.0433051
0.3911133, -0.6445312, -0.8525391, -60.1219521, 69.3292694, -96.5853653, -0.0621042
0.4399414, -0.6635742, -0.6928711, -58.1097565, 77.0121994, -90.3048782, -0.0741894
0.5, -0.6826172, -0.7001953, -37.7439041, 112.0731735, -82.7439041, -0.0896315
0.6176758, -0.7226562, -0.8857422, -23.5365868, 131.4634247, -83.1707306, -0.087953
0.6362305, -0.7280273, -1.0024414, -4.5731707, 150.5487823, -91.2804871, -0.0929885
0.5625, -0.6948242, -1.1201172, -4.2682929, 145.7317047, -96.5853653, -0.0943313
0.4814453, -0.6494141, -1.074707, -21.4634151, 113.1707306, -102.0731735, -0.0889601
0.3164062, -0.5405273, -0.8051758, -44.3292694, 80.7317123, -95.9756088, -0.0802319
0.2729492, -0.4604492, -0.5073242, -50.3658562, 75.3048782, -89.4512253, -0.0728466
0.3134766, -0.449707, -0.4272461, -43.9024391, 89.2073212, -78.7804871, -0.0654612
0.4746094, -0.4833984, -0.4711914, -33.1097565, 103.4146347, -77.68293, -0.0520333
0.5595703, -0.5141602, -0.5859375, -8.5975609, 129.146347, -85.3658524, -0.0459907
0.6586914, -0.5673828, -0.8969727, -0.3048781, 135.7926788, -92.0731735, -0.0493477
0.6552734, -0.5771484, -1.0380859, 0.4878049, 132.8048859, -105.4268341, -0.0453193
0.5673828, -0.5585938, -1.1499023, -6.8292685, 124.9390259, -108.1097565, -0.0459907
0.5058594, -0.5385742, -1.1030273, -28.7195129, 101.8902435, -102.6219559, -0.0540475
0.4145508, -0.4804688, -0.8574219, -39.4512215, 89.6951218, -96.0975647, -0.0587472
0.4023438, -0.4501953, -0.6962891, -52.2560997, 71.6463394, -81.4634171, -0.0594186
0.4594727, -0.4262695, -0.4594727, -47.6219521, 74.1463394, -74.3292694, -0.0674754
0.6098633, -0.4418945, -0.4931641, -37.7439041, 87.0121994, -74.5731735, -0.066804
0.690918, -0.4702148, -0.637207, -8.9634151, 129.6341553, -82.7439041, -0.0647898
0.809082, -0.5517578, -1.1000977, 4.8170733, 150.8536682, -89.3292694, -0.0661326
0.824707, -0.5844727, -1.3413086, 13.841464, 169.8780518, -102.8048782, -0.066804
0.7451172, -0.6186523, -1.6298828, 5.9146342, 162.0121918, -107.6219559, -0.0694896
0.6660156, -0.6088867, -1.6235352, -30, 116.5243912, -108.0487823, -0.0708324
0.5068359, -0.5571289, -1.2680664, -52.5609779, 87.0121994, -103.2926865, -0.0762036
0.4526367, -0.519043, -0.9887695, -88.2926865, 40.7317085, -88.1707306, -0.0802319
0.4365234, -0.456543, -0.4350586, -96.7682953, 32.5609779, -80.1219559, -0.0866102
0.4682617, -0.4433594, -0.2270508, -87.4390259, 50, -69.2682953, -0.0822461
0.5917969, -0.4633789, -0.0634766, -49.4512215, 97.3780518, -71.8902435, -0.0802319
0.7172852, -0.5214844, -0.3154297, -24.7560978, 123.9634171, -77.7439041, -0.0809033
0.7607422, -0.5561523, -0.5600586, 16.7682934, 164.8780518, -94.5121994, -0.0782177
0.7646484, -0.6030273, -1.0991211, 26.5243912, 173.9024506, -102.1341476, -0.0755322
0.722168, -0.6103516, -1.3032227, 17.1341476, 162.7439117, -109.5121994, -0.0755322
0.5712891, -0.5830078, -1.3945312, 0.1829268, 144.0243988, -107.8048782, -0.070161
0.4858398, -0.5537109, -1.2680664, -42.2560997, 92.0731735, -94.9390259, -0.063447
0.3994141, -0.4863281, -0.8051758, -59.3292694, 67.4390259, -85.7317123, -0.0594186
0.4291992, -0.4638672, -0.581543, -71.7682953, 44.5731735, -70.3048782, -0.0594186
0.5917969, -0.4589844, -0.3408203, -64.8780518, 52.1341476, -66.5243912, -0.0547189
0.7001953, -0.480957, -0.3637695, -30.3048782, 97.5, -71.3414688, -0.0513619
0.862793, -0.5483398, -0.6464844, 7.0121951, 143.7804871, -88.3536606, -0.0466621
0.8803711, -0.5957031, -1.0566406, 17.0731716, 154.5731812, -97.9268341, -0.0399481
0.8325195, -0.5966797, -1.2075195, 11.4634151, 147.0731812, -109.7561035, -0.0446479
0.684082, -0.559082, -1.2773438, -1.9512196, 132.3170776, -109.3902435, -0.0493477
0.6113281, -0.5273438, -1.1914062, -35.1829262, 98.1097565, -97.3780518, -0.0486763
0.5498047, -0.4624023, -0.871582, -48.3536606, 84.5731735, -88.2926865, -0.0459907
0.5673828, -0.4370117, -0.703125, -57.8048782, 71.4634171, -73.0487823, -0.0392767
0.6640625, -0.3930664, -0.4633789, -54.7560997, 73.5365906, -69.2073212, -0.0439765
0.7241211, -0.3867188, -0.4257812, -36.7682953, 92.2561035, -71.8902435, -0.0412909
0.8149414, -0.3920898, -0.5332031, -13.5975609, 121.5853653, -82.9268341, -0.0379339
0.8364258, -0.4042969, -0.65625, -4.6951222, 134.2682953, -89.0243912, -0.0379339
0.8266602, -0.4306641, -0.9414062, 0.3048781, 144.9390259, -97.8048782, -0.0412909
0.75, -0.4414062, -1.1298828, -4.2682929, 141.1585388, -99.146347, -0.0345769
0.7045898, -0.4350586, -1.1396484, -24.6341476, 119.0853653, -95.2439041, -0.0328985
0.6416016, -0.4208984, -1.0004883, -36.341465, 105.1219559, -90.3048782, -0.0352483
0.6337891, -0.40625, -0.890625, -52.2560997, 86.1585388, -79.8170776, -0.0352483
0.6748047, -0.387207, -0.6928711, -54.2073174, 84.2682953, -76.1585388, -0.0365911
0.7143555, -0.3896484, -0.6337891, -47.2560997, 93.2926865, -73.5365906, -0.0379339
0.7885742, -0.4067383, -0.6157227, -41.0365868, 101.2195129, -75.9146347, -0.0372625
0.8120117, -0.4257812, -0.6464844, -30.060976, 114.2682953, -84.2682953, -0.0365911
0.8149414, -0.4599609, -0.7368164, -26.280489, 117.5, -91.8292694, -0.0352483
0.7944336, -0.4799805, -0.769043, -27.8048782, 115.36586, -93.7195129, -0.0359197
0.7509766, -0.4990234, -0.7797852, -34.6341476, 106.8902435, -92.68293, -0.0318914
0.7626953, -0.519043, -0.7792969, -37.0121956, 104.6341476, -90, -0.03122
0.7905273, -0.5336914, -0.7978516, -36.0975609, 110.2439041, -84.8780518, -0.0342412
0.8642578, -0.5561523, -0.8828125, -33.2317085, 115.4878082, -83.4756088, -0.03122
0.8901367, -0.5585938, -0.9277344, -29.3902454, 120.9756088, -83.9024429, -0.0298772
0.8916016, -0.5302734, -0.9677734, -30.7926846, 118.4756088, -84.8780518, -0.0325628
0.8671875, -0.5014648, -0.9389648, -38.7195129, 108.1097565, -85.3658524, -0.0352483
0.8237305, -0.4306641, -0.8134766, -43.841465, 103.8414688, -84.146347, -0.0359197
0.8081055, -0.4003906, -0.7426758, -48.1707344, 100.6097565, -80.4878082, -0.0352483
0.8183594, -0.3618164, -0.6425781, -45.1219521, 103.2926865, -78.4146347, -0.0439765
0.8369141, -0.3569336, -0.6181641, -41.9512215, 104.6951218, -78.5365906, -0.0459907
0.855957, -0.3583984, -0.6069336, -37.3170738, 104.7561035, -81.8902435, -0.0406195
0.8354492, -0.3603516, -0.5859375, -36.8902435, 102.3780518, -83.5365906, -0.0406195
0.8139648, -0.3671875, -0.5634766, -38.7195129, 95.7317123, -85.2439041, -0.0419623
0.7841797, -0.3886719, -0.5009766, -39.6951218, 92.9268341, -84.8170776, -0.0372625
0.7856445, -0.3999023, -0.4887695, -37.1951218, 93.6585388, -82.0731735, -0.0352483
0.8271484, -0.4233398, -0.5458984, -32.0121956, 99.2073212, -80.3658524, -0.0365911
0.8579102, -0.4375, -0.6264648, -17.0731716, 116.7073212, -78.7195129, -0.0439765
0.8950195, -0.4594727, -0.8364258, -10.4268293, 123.8414688, -78.7195129, -0.0412909
0.8999023, -0.456543, -0.9287109, -7.3170733, 123.1707382, -80.18293, -0.0439765
0.8730469, -0.4257812, -0.9799805, -20, 104.5121994, -80.0609741, -0.0466621
0.8466797, -0.402832, -0.9360352, -29.1463413, 92.8048782, -78.2926865, -0.0476692
0.8251953, -0.3588867, -0.7539062, -42.8048782, 78.2317123, -73.1707306, -0.0493477
0.8959961, -0.3432617, -0.6225586, -44.0243912, 79.4512177, -71.1585388, -0.0480049
0.9516602, -0.3505859, -0.6181641, -35, 94.8170776, -70.4268341, -0.0446479
1.043457, -0.3730469, -0.7045898, -27.9268303, 104.2682953, -72.4390259, -0.0433051
1.0610352, -0.3818359, -0.7685547, -18.6585369, 114.3902435, -78.3536606, -0.0449836
1.0263672, -0.3754883, -0.8535156, -18.9024391, 114.0243912, -80.3048782, -0.0433051
0.9829102, -0.359375, -0.8442383, -28.9634151, 105.3658524, -79.9390259, -0.0433051
0.8984375, -0.3291016, -0.7172852, -35.9146347, 99.0243912, -77.3170776, -0.0406195
0.8803711, -0.315918, -0.628418, -45.6707344, 90.7317123, -70.4878082, -0.0433051
0.9003906, -0.3120117, -0.5029297, -42.6219521, 92.9268341, -66.8292694, -0.0446479
0.9277344, -0.3227539, -0.4912109, -37.5609779, 97.8048782, -67.5, -0.0436408
0.9746094, -0.362793, -0.5581055, -27.0121956, 107.9268341, -73.1097565, -0.042298
0.9594727, -0.4047852, -0.6606445, -24.1463413, 109.7561035, -76.4634171, -0.0433051
0.9291992, -0.4208984, -0.6831055, -26.1585369, 105.7317123, -80.6097565, -0.0446479
0.8642578, -0.4438477, -0.6655273, -30, 101.2195129, -80.8536606, -0.0419623
0.8461914, -0.449707, -0.6328125, -35, 94.7561035, -77.0731735, -0.0406195
0.8579102, -0.4555664, -0.6142578, -34.5731697, 95.9146347, -74.3292694, -0.0406195
0.8891602, -0.453125, -0.6425781, -26.8902454, 107.0121994, -70.5487823, -0.0439765
0.9511719, -0.4418945, -0.7646484, -21.7682934, 114.146347, -70.3048782, -0.0406195
0.972168, -0.4350586, -0.8388672, -15.6097565, 121.3414688, -72.3170776, -0.0392767
0.9692383, -0.3857422, -0.9223633, -22.3170738, 112.3780518, -74.4512177, -0.0399481
0.9467773, -0.3574219, -0.8999023, -30, 102.9268341, -74.1463394, -0.0399481
0.8818359, -0.2929688, -0.7241211, -46.2195129, 83.4146347, -70.1219559, -0.0419623
0.8681641, -0.246582, -0.4702148, -52.1951218, 76.8292694, -67.2560959, -0.0386053
0.890625, -0.2329102, -0.3647461, -53.5975609, 74.3292694, -64.0853653, -0.0382696
0.9609375, -0.237793, -0.2773438, -49.0853653, 79.0243912, -64.2682953, -0.0412909
0.9907227, -0.2485352, -0.2944336, -33.9024391, 94.6951218, -67.8048782, -0.0459907
1.0161133, -0.2792969, -0.4121094, -26.0975609, 102.2561035, -70.18293, -0.0446479
1.0161133, -0.2900391, -0.484375, -17.1951218, 109.0853653, -73.7195129, -0.0433051
0.9780273, -0.3066406, -0.6025391, -16.9512196, 108.0487823, -74.0853653, -0.0382696
0.9511719, -0.309082, -0.6220703, -22.5, 100.7926865, -70.7926865, -0.0433051
0.909668, -0.3061523, -0.590332, -29.0853672, 91.5243912, -65.7317123, -0.0406195
0.9052734, -0.3037109, -0.5014648, -31.0975609, 87.7439041, -63.5975609, -0.0379339
0.9179688, -0.3085938, -0.4682617, -30.5487804, 81.9512177, -62.9268303, -0.0379339
0.9511719, -0.3208008, -0.4291992, -28.7195129, 81.3414688, -64.0243912, -0.0372625
0.9692383, -0.3349609, -0.4331055, -23.4146347, 84.146347, -67.3780518, -0.0419623
0.9829102, -0.3588867, -0.453125, -20.2439022, 87.0731735, -69.2682953, -0.0466621
0.9882812, -0.3710938, -0.4711914, -14.2073174, 91.7682953, -70.8536606, -0.0433051
0.9848633, -0.3818359, -0.5053711, -11.7682934, 93.1097565, -70.4268341, -0.0433051
0.9858398, -0.3745117, -0.5234375, -7.8048782, 95.2439041, -68.1097565, -0.0473335
0.9912109, -0.3457031, -0.5375977, -6.3414636, 96.2804871, -66.7073212, -0.0570687
1.0014648, -0.324707, -0.5429688, -5, 97.68293, -64.6951218, -0.0661326
1.0229492, -0.2841797, -0.5615234, -4.390244, 99.0853653, -65.0609741, -0.0674754
1.0493164, -0.265625, -0.5947266, -5, 99.2682953, -66.1585388, -0.0772107
1.0561523, -0.262207, -0.6098633, -7.8048782, 99.5731735, -69.6951218, -0.0889601
1.0673828, -0.2563477, -0.6308594, -10, 99.146347, -71.4024429, -0.0822461
1.0668945, -0.2592773, -0.6401367, -14.5731707, 99.3902435, -73.2317123, -0.0684825
1.0673828, -0.2539062, -0.675293, -16.4634151, 101.4024429, -73.5975647, -0.0406195
1.0683594, -0.2509766, -0.6943359, -18.6585369, 107.9878082, -72.6219559, -0.0258488
1.0693359, -0.2373047, -0.7373047, -19.3902435, 111.1585388, -71.7682953, -0.011078
1.0654297, -0.2207031, -0.7470703, -22.6219521, 111.7682953, -70.6097565, -0.0003357
1.0317383, -0.1918945, -0.7270508, -25.8536587, 108.6585388, -69.7560959, 0.0050355
1.0019531, -0.1743164, -0.6884766, -35.3658562, 98.7195129, -67.8658524, 0.0023499
0.9658203, -0.1269531, -0.5566406, -43.4146347, 91.1585388, -65, -0.011078
0.9604492, -0.1030273, -0.4213867, -45.1829262, 89.3902435, -63.4756126, -0.0154421
0.9731445, -0.1040039, -0.3803711, -44.9390259, 88.4146347, -62.2560997, -0.0345769
1.003418, -0.121582, -0.340332, -43.5365868, 88.4146347, -62.8658562, -0.0433051
1.0219727, -0.1401367, -0.340332, -40.8536606, 87.6219559, -64.3292694, -0.0409552
1.0419922, -0.1923828, -0.3613281, -40.2439041, 87.5609741, -64.8780518, -0.0258488
1.0424805, -0.2158203, -0.3720703, -38.9634171, 87.7439041, -64.8780518, -0.017792
1.0253906, -0.2553711, -0.3847656, -37.9878044, 88.1707306, -63.7804909, -0.0117494
1.019043, -0.262207, -0.3886719, -35.1829262, 90.1219559, -59.6951218, -0.0083925
1.0092773, -0.2436523, -0.3896484, -32.9268303, 91.0975647, -57.1341476, -0.0087282
1.0053711, -0.2255859, -0.3876953, -28.4146347, 92.4390259, -52.6829262, -0.0083925
1.015625, -0.1870117, -0.3891602, -25.5487804, 90.0609741, -50.4878044, -0.0164492
1.0327148, -0.1420898, -0.3989258, -25.1219521, 87.68293, -50.3048782, -0.0271916
1.0473633, -0.1293945, -0.402832, -26.0975609, 83.5975647, -50.6097565, -0.0305486
1.0693359, -0.1191406, -0.4067383, -27.0731716, 81.5853653, -50.4878044, -0.0298772
1.0786133, -0.1147461, -0.4052734, -29.5121956, 77.8658524, -51.0365868, -0.0302129
1.0986328, -0.1074219, -0.3930664, -30.6707325, 76.0975647, -50.5487823, -0.0352483
1.1108398, -0.1152344, -0.3803711, -32.9878044, 72.3780518, -49.8780518, -0.0406195
1.1289062, -0.1313477, -0.3535156, -33.5365868, 69.9390259, -49.5121956, -0.0399481
1.137207, -0.1386719, -0.3334961, -34.5121956, 66.4634171, -49.2073174, -0.0459907
1.1577148, -0.1674805, -0.2963867, -34.5731697, 65.7317123, -49.2073174, -0.0459907
1.1552734, -0.1835938, -0.2895508, -32.5, 67.3780518, -49.3292694, -0.0463264
1.144043, -0.21875, -0.2866211, -27.9268303, 71.2804871, -49.9390259, -0.0463264
1.1162109, -0.2470703, -0.3125, -25.2439022, 73.3536606, -50.0609779, -0.0459907
1.1044922, -0.2524414, -0.3364258, -19.1463413, 78.1097565, -48.9024391, -0.0419623
1.0854492, -0.25, -0.4150391, -15.9146347, 81.4634171, -48.2317085, -0.0486763
1.0761719, -0.2319336, -0.456543, -10.3048782, 86.8902435, -46.4024391, -0.0553902
1.0639648, -0.1918945, -0.5341797, -9.3902445, 87.6219559, -45.2439041, -0.056733
1.0566406, -0.1655273, -0.5556641, -11.7682934, 83.7195129, -43.4146347, -0.0540475
1.0395508, -0.1040039, -0.5444336, -14.9390249, 80.0609741, -42.3780479, -0.0574044
1.0351562, -0.0761719, -0.5205078, -22.560976, 72.5, -40.3048782, -0.056733
1.0341797, -0.0356445, -0.4541016, -26.2195129, 69.1463394, -39.5121956, -0.0580758
1.0454102, -0.0205078, -0.4233398, -31.1585369, 64.0853653, -39.5121956, -0.0553902
1.0712891, -0.0244141, -0.3823242, -33.7804871, 62.0121956, -40.1829262, -0.0500191
1.0854492, -0.0444336, -0.3540039, -35.0609779, 61.2804909, -40.6097565, -0.0540475
1.0869141, -0.0625, -0.3413086, -37.3780479, 59.4512215, -41.2804871, -0.0527047
1.0615234, -0.090332, -0.300293, -38.6585388, 58.2317085, -40.9146347, -0.0543832
1.0551758, -0.1069336, -0.2792969, -39.8780479, 56.2804909, -39.4512215, -0.0527047
1.03125, -0.1391602, -0.2333984, -39.5731735, 55.9146347, -38.7804871, -0.0527047
1.015625, -0.1533203, -0.2202148, -36.4024391, 57.6219521, -37.0731697, -0.0540475
0.9946289, -0.1567383, -0.2148438, -33.9024391, 59.0853691, -36.2195129, -0.0574044
0.9863281, -0.1582031, -0.2265625, -28.1707325, 61.1585388, -34.9390259, -0.0513619
0.9887695, -0.1616211, -0.269043, -24.5731716, 60.2439041, -34.6341476, -0.0453193
0.9960938, -0.159668, -0.2929688, -24.3292694, 58.3536606, -34.5731697, -0.056733
1.0097656, -0.1611328, -0.3291016, -25, 53.841465, -34.2682953, -0.0621042
1.0239258, -0.1572266, -0.3520508, -25.5487804, 52.5609779, -33.9634171, -0.0580758
1.0341797, -0.1533203, -0.3569336, -25.3048782, 51.4024391, -33.2317085, -0.0553902
1.0537109, -0.137207, -0.3706055, -25.060976, 51.0975609, -32.6219521, -0.0473335
1.0600586, -0.1269531, -0.3759766, -24.2073174, 50.6097565, -31.4634151, -0.0486763
1.0673828, -0.1113281, -0.3759766, -24.2682934, 50.2439041, -30.7926846, -0.0486763
1.0654297, -0.0986328, -0.3710938, -26.5243912, 48.4756126, -29.8780499, -0.0476692
1.0625, -0.0922852, -0.3603516, -27.560976, 47.9268303, -29.7560978, -0.0433051
1.0576172, -0.0927734, -0.3588867, -29.2682934, 47.8048782, -29.6951218, -0.0433051
1.0512695, -0.1064453, -0.3569336, -30.2439022, 47.5609779, -29.7560978, -0.0419623
1.0449219, -0.1176758, -0.359375, -30.4268303, 47.1341476, -29.7560978, -0.0396124
1.0307617, -0.1455078, -0.3764648, -30.5487804, 45.5487823, -30.1219521, -0.0439765
1.0161133, -0.1655273, -0.3793945, -30.9756107, 45, -30.1219521, -0.0379339
1.0048828, -0.1772461, -0.3764648, -32.0121956, 42.3780479, -29.3292694, -0.0392767
0.9936523, -0.1894531, -0.3647461, -32.4390259, 41.6463432, -28.7195129, -0.0386053
0.9926758, -0.1938477, -0.3588867, -31.8902454, 41.0975609, -27.7439022, -0.0365911
0.9868164, -0.1948242, -0.3583984, -30.6097565, 41.341465, -26.9512196, -0.0339055
0.9873047, -0.1884766, -0.3574219, -28.5975609, 41.8902435, -25.4878063, -0.0365911
0.9853516, -0.1625977, -0.3706055, -27.6829281, 42.5609779, -24.8170738, -0.03122
0.9794922, -0.1494141, -0.3745117, -26.5853672, 43.1097565, -23.2926826, -0.0305486
0.9716797, -0.1132812, -0.3754883, -27.9878063, 41.0975609, -22.1341476, -0.0339055
0.96875, -0.0996094, -0.3730469, -29.1463413, 38.841465, -21.7682934, -0.0362554
0.9638672, -0.0771484, -0.3579102, -32.7439041, 33.5365868, -21.8292694, -0.0365911
0.9711914, -0.090332, -0.3476562, -34.3292694, 31.280489, -22.1341476, -0.0298772
0.9711914, -0.1040039, -0.3398438, -37.1951218, 27.0121956, -23.0487804, -0.0339055
0.9760742, -0.1362305, -0.3452148, -38.0487823, 25.6097565, -22.9878063, -0.0386053
0.9780273, -0.1518555, -0.3491211, -38.6585388, 25.060976, -22.5, -0.0412909
0.9726562, -0.1801758, -0.3554688, -37.9268303, 25.2439022, -22.1951218, -0.0446479
0.9707031, -0.1884766, -0.3598633, -36.5243912, 25.1829281, -20.8536587, -0.0453193
0.9633789, -0.1894531, -0.378418, -35.7926826, 24.9390259, -19.7560978, -0.0409552
0.9672852, -0.1953125, -0.3911133, -34.5731697, 25.6707325, -18.5975609, -0.0486763
0.9731445, -0.1938477, -0.4199219, -34.0243912, 25.9756107, -17.7439022, -0.0553902
0.9731445, -0.1884766, -0.4365234, -34.5731697, 25.6097565, -17.2560978, -0.0506905
0.9775391, -0.184082, -0.4824219, -35.8536606, 26.0975609, -16.3414631, -0.0520333
0.9892578, -0.1606445, -0.5302734, -36.4024391, 27.3780499, -15.3048782, -0.0527047
0.9897461, -0.1411133, -0.5512695, -38.0487823, 29.2682934, -13.5365858, -0.0543832
0.996582, -0.1113281, -0.59375, -39.3902435, 29.5121956, -12.3170738, -0.0540475
0.9916992, -0.0864258, -0.6064453, -43.9024391, 27.4390259, -10.5487804, -0.0560616
0.9794922, -0.0493164, -0.5947266, -47.3170738, 25.4878063, -9.4512196, -0.0574044
0.9677734, -0.0351562, -0.5737305, -56.0365868, 19.5731716, -7.9268293, -0.056733
0.9584961, -0.027832, -0.5112305, -60.5487823, 16.0365849, -7.6219516, -0.0540475
0.9619141, -0.0336914, -0.4765625, -69.4512177, 8.3536587, -8.1097565, -0.0527047
0.9794922, -0.0771484, -0.418457, -75.3658524, 2.4390244, -9.7560978, -0.0486763
0.9941406, -0.109375, -0.3979492, -77.0731735, 0.9756098, -10.4878054, -0.0547189
1.0097656, -0.184082, -0.3779297, -76.8902435, 2.195122, -10.7926836, -0.0527047
1.0058594, -0.2304688, -0.3774414, -75.6097565, 4.2073174, -10.3048782, -0.0500191
1.0014648, -0.237793, -0.3710938, -71.4024429, 8.780488, -7.0121951, -0.0547189
0.9677734, -0.2226562, -0.3671875, -68.8414688, 10.4878054, -4.8780489, -0.0580758
0.9609375, -0.2089844, -0.3647461, -65.3048782, 12.0731707, -0.6097561, -0.0553902
0.9477539, -0.1611328, -0.3671875, -63.841465, 12.4390249, 1.097561, -0.0560616
0.9458008, -0.1381836, -0.3686523, -63.2926826, 10.4268293, 2.4390244, -0.0553902
0.9462891, -0.0961914, -0.3789062, -64.2682953, 7.5, 2.804878, -0.0580758
0.9521484, -0.0830078, -0.3779297, -68.1707306, 0.0609756, 2.6219513, -0.0574044
0.9716797, -0.0732422, -0.3642578, -73.6585388, -7.9268293, 2.3170731, -0.0570687
0.9780273, -0.0751953, -0.347168, -76.4634171, -11.6463413, 2.4390244, -0.0580758
0.9892578, -0.0854492, -0.3032227, -80.18293, -17.8658543, 3.1707318, -0.0621042
1.0097656, -0.1005859, -0.2729492, -80.6707306, -18.8414631, 4.0853658, -0.0527047
1.0131836, -0.1108398, -0.2719727, -78.0487823, -16.4024391, 6.1585369, -0.0473335
1.0214844, -0.1220703, -0.3017578, -75.8536606, -13.9024391, 7.3780489, -0.0480049
1.0219727, -0.1196289, -0.3286133, -70.6707306, -9.2073174, 9.9390249, -0.0446479
1.0214844, -0.1088867, -0.4023438, -69.0243912, -7.8048782, 10.8536587, -0.0436408
1.0229492, -0.0976562, -0.4414062, -68.5365906, -8.4146347, 12.6829271, -0.0513619
1.0092773, -0.078125, -0.4829102, -70.5487823, -10.9756098, 12.8658543, -0.0516976
1.003418, -0.0737305, -0.4838867, -76.4024429, -19.4512196, 13.4756098, -0.0446479
1.0039062, -0.0727539, -0.4628906, -82.5609741, -28.1707325, 14.2682934, -0.0446479
1.0429688, -0.1025391, -0.4628906, -84.146347, -31.0365868, 15.060976, -0.0473335
1.0693359, -0.1201172, -0.4765625, -84.2073212, -31.4634151, 15.4268293, -0.0473335
1.1020508, -0.1518555, -0.5161133, -83.5365906, -30.4878063, 15.6707325, -0.0480049
1.1035156, -0.159668, -0.527832, -83.5975647, -30.3658543, 17.1341476, -0.0513619
1.0825195, -0.1459961, -0.496582, -85.2439041, -32.3170738, 18.5975609, -0.0476692
1.0644531, -0.1347656, -0.4521484, -89.0853653, -38.2926826, 22.560976, -0.0459907
1.0498047, -0.0991211, -0.3505859, -90.1219559, -40.8536606, 24.5121956, -0.0453193
1.0576172, -0.0869141, -0.3134766, -87.4390259, -41.7682953, 27.5, -0.0486763
1.0795898, -0.0712891, -0.2861328, -84.3292694, -40.2439041, 28.2926826, -0.0453193
1.0917969, -0.0639648, -0.2978516, -77.68293, -37.3170738, 27.9878063, -0.0446479
1.1010742, -0.0595703, -0.3383789, -75, -38.0487823, 27.1951218, -0.0449836
1.1069336, -0.0766602, -0.3798828, -76.0365906, -40.1219521, 26.7682934, -0.0469978
1.1069336, -0.0883789, -0.3955078, -79.5731735, -44.8780479, 26.4634151, -0.0466621
1.1123047, -0.1220703, -0.4101562, -81.0365906, -46.4634171, 26.7682934, -0.0446479
1.1132812, -0.1396484, -0.4155273, -81.4024429, -47.5, 27.8048782, -0.0446479
1.1118164, -0.1577148, -0.418457, -80.4878082, -48.3536606, 28.5365868, -0.0439765
1.1142578, -0.1616211, -0.4116211, -80.3658524, -53.1097565, 28.841465, -0.0466621
1.1035156, -0.1723633, -0.3779297, -81.0365906, -56.9512215, 28.9634151, -0.0459907
1.1030273, -0.1748047, -0.359375, -82.1951218, -62.5, 29.8170738, -0.0486763
1.1171875, -0.1943359, -0.3427734, -81.4634171, -62.6219521, 30.1219521, -0.042298
1.1289062, -0.2109375, -0.3574219, -75.8536606, -58.7195129, 31.1585369, -0.0419623
1.1337891, -0.2197266, -0.4121094, -68.1707306, -55.4268303, 32.8048782, -0.0406195
1.1166992, -0.2060547, -0.4633789, -65.7317123, -55.6707344, 33.3536606, -0.0365911
1.1030273, -0.1928711, -0.4672852, -65.3658524, -59.8170738, 35.9756088, -0.0325628
1.0795898, -0.1645508, -0.4335938, -66.5853653, -63.3536606, 36.8902435, -0.0372625
1.0708008, -0.1616211, -0.4150391, -69.2682953, -70.18293, 37.6219521, -0.0379339
1.074707, -0.1689453, -0.3837891, -69.3902435, -72.9878082, 37.5609779, -0.0412909
1.0776367, -0.1845703, -0.3774414, -67.1951218, -75.9756088, 36.6463432, -0.0379339
1.0932617, -0.2275391, -0.4111328, -65.18293, -75.6707306, 36.2804871, -0.0359197
1.09375, -0.2392578, -0.4428711, -59.5731735, -73.3536606, 35.9756088, -0.0409552
1.0883789, -0.2578125, -0.5048828, -56.6463432, -72.0121994, 36.8292694, -0.0406195
1.078125, -0.25, -0.5336914, -52.5, -69.6341476, 39.3902435, -0.0486763
1.0703125, -0.2207031, -0.5874023, -49.8780518, -69.9390259, 42.3780479, -0.0547189
1.0722656, -0.1972656, -0.6235352, -49.8780518, -71.3414688, 42.9878044, -0.0527047
1.0688477, -0.1904297, -0.6210938, -53.4756126, -78.4756088, 43.1097565, -0.056733
1.0556641, -0.1806641, -0.5722656, -57.0121956, -83.5975647, 42.5609779, -0.0520333
1.0532227, -0.1831055, -0.5244141, -64.1463394, -93.4756088, 42.2560997, -0.0500191
1.0410156, -0.1875, -0.4228516, -65.9146347, -96.1585388, 42.1951218, -0.0500191
1.0458984, -0.2001953, -0.3930664, -63.7195129, -96.7073212, 42.8658562, -0.0543832
1.0566406, -0.2104492, -0.3808594, -59.8780518, -94.9390259, 43.3536606, -0.0647898
1.0634766, -0.2138672, -0.4008789, -50.3048782, -91.0365906, 44.8780479, -0.070161
1.0834961, -0.2138672, -0.4672852, -46.6463432, -90.2439041, 45.6707344, -0.073518
1.0834961, -0.215332, -0.5039062, -42.9268303, -91.4634171, 46.4634171, -0.0661326
1.0825195, -0.2119141, -0.5546875, -44.1463432, -93.8414688, 46.9512215, -0.0520333
1.0639648, -0.2177734, -0.5854492, -45.1829262, -95.2439041, 47.5, -0.0365911
1.0566406, -0.2202148, -0.5966797, -46.2804871, -98.1707306, 47.9268303, -0.0191348
1.0498047, -0.2275391, -0.6162109, -46.2195129, -99.8170776, 48.4756126, -0.0083925
1.0473633, -0.2260742, -0.6171875, -46.2195129, -103.1707306, 49.6951218, 0.0036927
1.0449219, -0.2167969, -0.6015625, -46.7073174, -104.5121994, 50.7317085, -0.0030213
1.0488281, -0.206543, -0.5854492, -47.0121956, -108.2317123, 52.1341476, -0.011078
1.0595703, -0.1870117, -0.5429688, -47.9268303, -110.6707306, 52.7439041, -0.0154421
1.0634766, -0.1855469, -0.5224609, -48.2317085, -115.36586, 52.8658562, -0.0198062
1.0712891, -0.1918945, -0.4897461, -48.0487823, -117.1341476, 53.1097565, -0.0261845
1.0776367, -0.2060547, -0.4882812, -45.6707344, -117.3170776, 53.1097565, -0.0386053
1.0830078, -0.2353516, -0.5288086, -38.4756088, -112.7439041, 53.6585388, -0.0406195
1.0795898, -0.2553711, -0.6245117, -34.6951218, -110.2439041, 54.2073174, -0.042298
1.0771484, -0.2558594, -0.6689453, -30.1829281, -108.6585388, 55.2439041, -0.0419623
1.0649414, -0.2431641, -0.722168, -30.3048782, -110.3048782, 55.7926826, -0.0406195
1.065918, -0.2280273, -0.7211914, -35.0609779, -116.2804871, 57.0731735, -0.0453193
1.0576172, -0.2045898, -0.675293, -38.5365868, -119.6341476, 57.68293, -0.0436408
1.0605469, -0.1987305, -0.6411133, -43.3536606, -124.5121994, 57.9268303, -0.0433051
1.0649414, -0.1987305, -0.5859375, -43.9024391, -125.6707382, 58.0487823, -0.0459907
1.0722656, -0.206543, -0.581543, -40.8536606, -125.4268341, 58.4146347, -0.0466621
1.081543, -0.2148438, -0.6186523, -35.4878044, -122.0121994, 58.9024391, -0.0459907
1.0834961, -0.2124023, -0.6479492, -33.9634171, -120.9146347, 59.3292694, -0.0520333
1.0864258, -0.1982422, -0.6904297, -34.0853653, -121.7073212, 60.6097565, -0.0480049
1.0810547, -0.1791992, -0.6884766, -35.7317085, -123.4756088, 61.341465, -0.0459907
1.0830078, -0.1708984, -0.6708984, -39.7560997, -128.7804871, 62.0731735, -0.0439765
1.0830078, -0.1713867, -0.6196289, -41.9512215, -131.8292694, 62.68293, -0.0446479
1.0864258, -0.1791992, -0.5976562, -43.2926826, -136.4634247, 61.6463432, -0.0459907
1.1015625, -0.2143555, -0.5805664, -42.7439041, -137.9878082, 61.0365868, -0.042298
1.1118164, -0.2319336, -0.5922852, -39.2682953, -138.7195129, 59.6951218, -0.0392767
1.1293945, -0.2753906, -0.6352539, -37.4390259, -138.2926788, 59.2682953, -0.0372625
1.1337891, -0.2856445, -0.6542969, -33.5365868, -138.4756165, 59.5731735, -0.0446479
1.1254883, -0.2875977, -0.6611328, -31.2195129, -139.2073212, 60.3658562, -0.0439765
1.1176758, -0.2832031, -0.6445312, -30.7926846, -140.6707306, 61.0365868, -0.0419623
1.0927734, -0.25, -0.5844727, -30.4878063, -143.7195129, 61.4634171, -0.0459907
1.0751953, -0.2192383, -0.5356445, -29.7560978, -144.9390259, 61.5853691, -0.0406195
1.0732422, -0.2128906, -0.5371094, -25.1219521, -144.7561035, 61.4024391, -0.0466621
1.090332, -0.2167969, -0.6044922, -21.5243912, -143.5365906, 61.0975609, -0.0480049
1.1005859, -0.2246094, -0.6611328, -15.6707325, -142.3170776, 61.341465, -0.0500191
1.1230469, -0.2265625, -0.762207, -14.8170738, -143.5975647, 61.4634171, -0.0486763
1.125, -0.2216797, -0.7861328, -18.8414631, -148.4146423, 61.8292694, -0.0520333
1.1279297, -0.2202148, -0.7719727, -22.2560978, -151.5243988, 62.0121956, -0.0580758
1.1264648, -0.2211914, -0.7519531, -28.1097565, -156.1585388, 62.4390259, -0.06009
1.1235352, -0.2231445, -0.6884766, -28.6585369, -159.0853729, 62.8658562, -0.0594186
1.1201172, -0.2246094, -0.6542969, -27.4390259, -159.9390259, 62.5609779, -0.0594186
1.1157227, -0.2368164, -0.6201172, -23.780489, -161.2804871, 61.7682953, -0.0647898
1.1254883, -0.2524414, -0.6245117, -21.8902435, -161.9512177, 61.5853691, -0.0664683
1.1264648, -0.2592773, -0.6352539, -18.5365849, -162.2561035, 61.4024391, -0.063447
1.1337891, -0.2685547, -0.6743164, -16.280489, -161.7073212, 61.7073174, -0.0647898
1.1367188, -0.2749023, -0.6992188, -12.3170738, -160.9146423, 62.3170738, -0.0594186
1.1401367, -0.2670898, -0.7270508, -11.0975609, -161.3414612, 62.68293, -0.0560616
