Application:, Trigno Discover (1.6.5)
Date/Time:, 29/01/2025 17:19:32
Collection Length (seconds):, 55.3365
wrist (81457), , , , , , bicep (81139)
sensor mode: 609, , , , , , sensor mode: 40
ACC X (G), ACC Y (G), ACC Z (G), GYRO X (deg/s), GYRO Y (deg/s), GYRO Z (deg/s), EMG 1 (mV)
370.3704 Hz, 370.3704 Hz, 370.3704 Hz, 370.3704 Hz, 370.3704 Hz, 370.3704 Hz, 2148.1481 Hz
0.9462891, -0.2475586, -0.1123047, -15.1219511, -12.1951218, -3.7804878, -0.0298772
0.9428711, -0.246582, -0.1074219, -15.9756098, -12.0731707, -3.5365853, -0.0339055
0.9394531, -0.2514648, -0.1015625, -16.280489, -11.6463413, -3.0487804, -0.0298772
0.9414062, -0.2470703, -0.0996094, -16.8292694, -10.9756098, -1.8292683, -0.027863
0.9389648, -0.2421875, -0.0898438, -16.6463413, -10, -0.5487805, -0.0231632
0.9438477, -0.2412109, -0.0874023, -16.7073174, -9.8170738, -0.3048781, -0.0218204
0.9506836, -0.237793, -0.0839844, -16.0365849, -10, 0.1219512, -0.0218204
0.9604492, -0.2353516, -0.0830078, -15.4878054, -10, 0.1829268, -0.0292058
0.9697266, -0.2333984, -0.0825195, -14.0853662, -10.1829271, 0.3658537, -0.0265202
0.972168, -0.2299805, -0.0844727, -13.4756098, -10.1219511, -0.2439024, -0.0238346
0.9785156, -0.2250977, -0.0874023, -12.3170738, -10.3048782, -0.9146342, -0.0305486
0.9838867, -0.2216797, -0.097168, -12.0121956, -10.4268293, -1.2195122, -0.0275273
0.9838867, -0.2255859, -0.0966797, -12.0121956, -10.1829271, -1.7073171, -0.027863
0.9833984, -0.2246094, -0.1074219, -12.3170738, -9.6951218, -2.2560976, -0.0298772
0.9853516, -0.2246094, -0.1074219, -13.0487804, -9.3292685, -1.5853659, -0.03122
0.9824219, -0.2314453, -0.1157227, -14.1463413, -8.4756098, -1.0365853, -0.0298772
0.9868164, -0.2324219, -0.1201172, -15.5487804, -8.1097565, -0.5487805, -0.0258488
0.9838867, -0.2333984, -0.1206055, -17.8658543, -7.4390244, 0.5487805, -0.0271916
0.9824219, -0.237793, -0.1113281, -19.0853672, -7.3780489, 1.2804878, -0.024506
0.9824219, -0.2363281, -0.1118164, -21.4024391, -6.9512196, 1.8292683, -0.03122
0.9833984, -0.2392578, -0.0957031, -21.9512196, -6.8292685, 2.0731707, -0.0379339
0.984375, -0.2407227, -0.0927734, -23.6585369, -6.890244, 2.5609756, -0.0372625
0.9848633, -0.2363281, -0.081543, -23.9634151, -7.1341467, 2.6829269, -0.0359197
0.9829102, -0.2348633, -0.074707, -24.0853672, -7.3170733, 2.4390244, -0.0406195
0.9838867, -0.2338867, -0.059082, -24.0853672, -7.5, 2.4390244, -0.0433051
0.9853516, -0.2329102, -0.0517578, -22.6219521, -8.1097565, 1.8292683, -0.0406195
0.9873047, -0.2329102, -0.0473633, -20.8536587, -8.0487804, 1.1585366, -0.0379339
0.9863281, -0.2338867, -0.0458984, -19.7560978, -8.2926826, 1.097561, -0.0382696
0.9853516, -0.2294922, -0.0454102, -17.9268303, -8.2926826, 0.3048781, -0.0399481
0.9790039, -0.2319336, -0.0449219, -17.2560978, -8.719512, 0.1219512, -0.038941
0.9785156, -0.2290039, -0.0512695, -15.9756098, -8.9024391, -0.5487805, -0.0439765
0.9736328, -0.2314453, -0.0541992, -15.2439032, -8.9024391, -0.9756098, -0.0406195
0.9702148, -0.2285156, -0.059082, -14.4512196, -9.6951218, -1.5853659, -0.0433051
0.9697266, -0.2299805, -0.078125, -13.9634151, -9.5731707, -1.7682927, -0.0433051
0.9643555, -0.2294922, -0.081543, -13.4146347, -9.8780489, -1.5853659, -0.0419623
0.9633789, -0.2241211, -0.0888672, -12.9268293, -9.7560978, -1.402439, -0.0379339
0.9658203, -0.2231445, -0.1000977, -12.5, -10, -0.6097561, -0.0386053
0.9707031, -0.2211914, -0.1181641, -12.3780489, -10, -0.0609756, -0.0412909
0.9750977, -0.2236328, -0.1264648, -12.6829271, -9.9390249, 0.1829268, -0.0392767
0.9785156, -0.2246094, -0.1381836, -13.7195129, -9.2073174, 0.9146342, -0.0392767
0.984375, -0.2182617, -0.144043, -14.7560978, -8.6585369, 1.0365853, -0.0433051
0.984375, -0.2148438, -0.1445312, -16.9512196, -7.0731707, 1.402439, -0.0409552
0.9814453, -0.2104492, -0.1503906, -17.9878044, -6.4634147, 1.2195122, -0.0379339
0.9824219, -0.2099609, -0.1474609, -20.4268303, -5.4878049, 1.3414634, -0.0372625
0.9731445, -0.2119141, -0.1484375, -21.7682934, -5, 1.4634147, -0.0372625
0.9697266, -0.2197266, -0.1474609, -24.3292694, -4.9390244, 1.2195122, -0.0392767
0.9580078, -0.2250977, -0.137207, -25.4878063, -4.9390244, 1.402439, -0.0392767
0.9511719, -0.234375, -0.1328125, -27.1951218, -4.5731707, 1.3414634, -0.0386053
0.9477539, -0.2529297, -0.1352539, -28.3536587, -4.6341462, 1.4634147, -0.0392767
0.9458008, -0.2592773, -0.1289062, -29.0243912, -4.9390244, 1.7073171, -0.0419623
0.9414062, -0.2695312, -0.1245117, -29.9390259, -4.9390244, 2.1341465, -0.0406195
0.9389648, -0.2861328, -0.1162109, -30.2439022, -4.9390244, 2.4390244, -0.0426337
0.9384766, -0.293457, -0.1098633, -30.5487804, -5.4268293, 3.3536587, -0.0406195
0.9482422, -0.2919922, -0.0932617, -30.3048782, -5.5487804, 4.0853658, -0.0433051
0.9575195, -0.2885742, -0.0883789, -28.5365868, -6.2195125, 5.3658538, -0.0386053
0.9697266, -0.2871094, -0.0771484, -26.8902454, -6.4024391, 5.7926831, -0.0379339
0.980957, -0.2836914, -0.0732422, -24.0243912, -6.8292685, 6.4024391, -0.0409552
1.0043945, -0.2749023, -0.0673828, -22.560976, -7.1951222, 6.4634147, -0.0473335
1.0146484, -0.269043, -0.0678711, -18.9024391, -7.3780489, 6.0365853, -0.0473335
1.0258789, -0.2626953, -0.0703125, -15.3048782, -7.1341467, 5.1219511, -0.0459907
1.0297852, -0.2563477, -0.0698242, -13.9024391, -7.1951222, 4.390244, -0.0513619
1.0410156, -0.2495117, -0.0800781, -10.8536587, -6.5243902, 2.3170731, -0.0480049
1.0332031, -0.2397461, -0.0874023, -10.060976, -6.2195125, 1.5243902, -0.0520333
1.0283203, -0.2304688, -0.0878906, -9.2073174, -5.1829271, -0.3048781, -0.0527047
1.0151367, -0.2202148, -0.0932617, -8.4146347, -4.7560978, -0.8536586, -0.0540475
1.0029297, -0.215332, -0.09375, -8.2926826, -3.6585367, -2.1341465, -0.0540475
0.984375, -0.2109375, -0.0966797, -8.3536587, -3.2317073, -2.3170731, -0.0540475
0.9741211, -0.2094727, -0.1005859, -8.719512, -2.9268293, -2.804878, -0.0520333
0.9575195, -0.2089844, -0.1074219, -8.9634151, -2.804878, -2.804878, -0.0540475
0.9462891, -0.206543, -0.1083984, -10.6707315, -3.1707318, -2.0731707, -0.0520333
0.9375, -0.2119141, -0.1181641, -12.9268293, -3.5365853, -1.097561, -0.0527047
0.9301758, -0.2148438, -0.1186523, -14.3292685, -3.7195122, -0.3658537, -0.0540475
0.9243164, -0.2192383, -0.1196289, -17.3170738, -4.390244, 1.0365853, -0.056733
0.9233398, -0.2241211, -0.1166992, -18.7195129, -5.1829271, 1.8902439, -0.0580758
0.9223633, -0.2250977, -0.1186523, -21.5243912, -5.7926831, 3.7195122, -0.0594186
0.9311523, -0.2294922, -0.1157227, -22.7439022, -5.9146342, 4.390244, -0.0580758
0.9370117, -0.2333984, -0.1137695, -25.060976, -6.890244, 5.9146342, -0.0540475
0.9477539, -0.2397461, -0.1064453, -26.2195129, -7.1341467, 6.4024391, -0.0527047
0.9550781, -0.2416992, -0.1000977, -27.2560978, -6.9512196, 7.1951222, -0.0520333
0.9731445, -0.2446289, -0.0859375, -27.7439022, -6.6463418, 7.1951222, -0.0533761
0.9760742, -0.2509766, -0.0791016, -27.560976, -6.2195125, 7.3780489, -0.0560616
0.9853516, -0.2509766, -0.0664062, -25.9146347, -6.2195125, 6.9512196, -0.0560616
0.9926758, -0.2509766, -0.0605469, -24.3902435, -6.0365853, 6.7682929, -0.0500191
0.9926758, -0.2529297, -0.0546875, -21.5243912, -6.280488, 5.670732, -0.0486763
1.0004883, -0.2617188, -0.0522461, -19.8780499, -6.1585369, 5.4268293, -0.0473335
0.9990234, -0.2626953, -0.0527344, -16.5243912, -6.0975609, 3.7195122, -0.0500191
0.9975586, -0.253418, -0.0541992, -14.3292685, -6.0365853, 3.1097562, -0.0486763
0.9946289, -0.2558594, -0.0571289, -11.1585369, -6.2195125, 1.5243902, -0.0486763
0.9873047, -0.25, -0.0649414, -9.0243902, -6.0975609, 0.7926829, -0.0493477
0.9794922, -0.2426758, -0.0693359, -5.670732, -6.4634147, -0.4878049, -0.0493477
0.9716797, -0.2348633, -0.081543, -4.2682929, -6.7073174, -1.0365853, -0.0446479
0.9667969, -0.2314453, -0.0888672, -2.3780489, -6.7073174, -1.402439, -0.0463264
0.9521484, -0.2255859, -0.0996094, -1.5853659, -6.3414636, -1.0365853, -0.0473335
0.9501953, -0.2216797, -0.1064453, -2.0731707, -6.2195125, -0.5487805, -0.0453193
0.9443359, -0.2226562, -0.1210938, -3.4756098, -5.9146342, 0.1829268, -0.049012
0.9428711, -0.2172852, -0.1289062, -4.7560978, -5.7317076, 0.6707317, -0.0513619
0.9404297, -0.2124023, -0.1308594, -7.6219516, -5.7317076, 1.6463414, -0.0503548
0.9394531, -0.2163086, -0.1386719, -9.2073174, -5.7317076, 2.3170731, -0.0520333
0.9394531, -0.2172852, -0.1376953, -12.3780489, -6.0365853, 3.1707318, -0.0473335
0.9414062, -0.2192383, -0.1420898, -14.3292685, -6.0365853, 3.5365853, -0.0449836
0.9472656, -0.2192383, -0.1401367, -17.8048782, -6.5243902, 4.8170733, -0.0433051
0.956543, -0.234375, -0.1386719, -19.1463413, -6.7073174, 5.670732, -0.0433051
0.9594727, -0.2333984, -0.1328125, -22.2560978, -6.8292685, 6.3414636, -0.0446479
0.9682617, -0.2421875, -0.1264648, -23.7195129, -6.4634147, 7.5609756, -0.0439765
0.972168, -0.2495117, -0.1196289, -24.5121956, -5.9146342, 7.9878049, -0.0513619
0.9765625, -0.2539062, -0.1049805, -25.1829281, -5.4878049, 8.2926826, -0.0500191
0.9902344, -0.2602539, -0.0922852, -24.8780499, -5.4268293, 8.2926826, -0.0493477
0.9941406, -0.2631836, -0.0849609, -23.780489, -4.8170733, 8.1097565, -0.0540475
0.9951172, -0.2563477, -0.0727539, -22.7439022, -4.8780489, 7.9268293, -0.0540475
0.9985352, -0.2548828, -0.0639648, -20, -4.9390244, 6.890244, -0.0540475
0.9882812, -0.2539062, -0.0522461, -18.4146347, -4.7560978, 5.9756098, -0.0513619
0.9873047, -0.2475586, -0.046875, -15.2439032, -4.6341462, 4.8780489, -0.0520333
0.9853516, -0.2480469, -0.0400391, -13.5975609, -4.6341462, 3.9024391, -0.0557259
0.980957, -0.2475586, -0.0415039, -10.9146347, -4.5121951, 2.804878, -0.056733
0.9697266, -0.2553711, -0.0463867, -8.6585369, -5.2439027, 1.8902439, -0.0547189
0.9614258, -0.2529297, -0.046875, -7.9268293, -5.9146342, 1.402439, -0.0594186
0.953125, -0.2543945, -0.0527344, -6.6463418, -7.1951222, 0.9756098, -0.056733
0.9487305, -0.2558594, -0.0625, -6.1585369, -7.5609756, 0.9756098, -0.0574044
0.9477539, -0.2558594, -0.065918, -5.670732, -9.0243902, 1.402439, -0.0557259
0.9487305, -0.2548828, -0.0708008, -5.8536587, -9.4512196, 1.7073171, -0.056733
0.9526367, -0.2514648, -0.0717773, -6.1585369, -9.9390249, 2.6219513, -0.056733
0.9599609, -0.2451172, -0.0708008, -6.6463418, -10.3048782, 3.0487804, -0.0527047
0.9672852, -0.2431641, -0.0698242, -7.2560978, -10.4268293, 3.8414636, -0.0527047
0.984375, -0.2363281, -0.0698242, -8.0487804, -10.5487804, 4.6341462, -0.0513619
0.9868164, -0.2304688, -0.0693359, -8.1707315, -11.0365858, 4.6951222, -0.0500191
0.9941406, -0.2241211, -0.065918, -8.3536587, -10.7926836, 4.9390244, -0.0486763
1.0073242, -0.2148438, -0.0620117, -8.2926826, -10.8536587, 5, -0.0500191
1.0141602, -0.2124023, -0.059082, -7.8658538, -10.060976, 4.2682929, -0.0466621
1.0175781, -0.2080078, -0.059082, -7.6219516, -9.4512196, 3.9634147, -0.0436408
1.0161133, -0.2050781, -0.0595703, -6.7073174, -8.9024391, 2.5, -0.0426337
1.0097656, -0.2021484, -0.0551758, -6.3414636, -8.4756098, 1.8902439, -0.0392767
1.012207, -0.2021484, -0.0507812, -3.9024391, -7.9878049, 0.1829268, -0.0379339
1.0068359, -0.2114258, -0.0415039, -2.1341465, -8.1097565, -0.7317073, -0.0365911
1.0039062, -0.2172852, -0.0429688, 2.0121951, -6.9512196, -2.4390244, -0.03122
1.0043945, -0.2275391, -0.0400391, 7.3780489, -5.7317076, -4.0853658, -0.0318914
1.0043945, -0.2338867, -0.0395508, 10.4268293, -4.5731707, -4.5731707, -0.0342412
1.0009766, -0.2519531, -0.0458984, 16.0365849, -2.3780489, -6.3414636, -0.0392767
0.9951172, -0.2646484, -0.0698242, 18.4756107, -2.195122, -6.8292685, -0.0339055
0.9926758, -0.2739258, -0.0786133, 22.0731716, -3.9634147, -8.9024391, -0.0325628
0.9931641, -0.2915039, -0.0991211, 23.1707325, -5.2439027, -9.8780489, -0.0352483
0.9897461, -0.2973633, -0.1088867, 25.060976, -7.5, -11.9512196, -0.0359197
0.9829102, -0.3022461, -0.1210938, 25.6707325, -8.2317076, -12.9878054, -0.0372625
0.9819336, -0.3037109, -0.1210938, 26.4024391, -8.2317076, -14.8170738, -0.0392767
0.9692383, -0.3032227, -0.1118164, 26.5243912, -7.9878049, -15.5487804, -0.0365911
0.9594727, -0.3061523, -0.1079102, 28.2926826, -6.9512196, -15.7317076, -0.0392767
0.949707, -0.2973633, -0.1069336, 30.3048782, -6.4634147, -15.6707325, -0.0433051
0.940918, -0.2983398, -0.1010742, 31.6463413, -7.1951222, -15.9756098, -0.0406195
0.9384766, -0.2880859, -0.1010742, 33.4756088, -9.0853662, -16.6463413, -0.0419623
0.9404297, -0.2871094, -0.1030273, 34.6951218, -10.4878054, -17.0731716, -0.0406195
0.9370117, -0.2841797, -0.1020508, 36.7073174, -12.7439032, -18.4146347, -0.0433051
0.9418945, -0.2817383, -0.1054688, 37.6829262, -13.7195129, -19.1463413, -0.042298
0.9423828, -0.2802734, -0.1088867, 39.4512215, -14.8780489, -19.8780499, -0.0459907
0.9482422, -0.2788086, -0.1230469, 40.1219521, -14.8780489, -20.1829281, -0.0406195
0.9501953, -0.2744141, -0.1298828, 40.7926826, -15.8536587, -20.1219521, -0.0379339
0.9560547, -0.2646484, -0.1455078, 40.2439041, -16.2195129, -19.6341476, -0.0419623
0.9545898, -0.2592773, -0.1542969, 38.6585388, -16.4634151, -18.780489, -0.0433051
0.9648438, -0.237793, -0.1591797, 36.5853653, -15.6097565, -17.2560978, -0.0433051
0.9692383, -0.2329102, -0.1630859, 35.1219521, -14.6341467, -16.2195129, -0.0433051
0.9736328, -0.2163086, -0.1606445, 32.6829262, -12.560976, -14.5731707, -0.0426337
0.984375, -0.1879883, -0.1650391, 31.4024391, -11.280488, -13.5975609, -0.0439765
0.987793, -0.1767578, -0.1640625, 29.1463413, -8.4146347, -11.9512196, -0.0433051
0.9882812, -0.1591797, -0.1625977, 28.780489, -7.3780489, -11.0365858, -0.0433051
0.9941406, -0.152832, -0.1660156, 27.4390259, -6.2195125, -10.060976, -0.0433051
0.9995117, -0.1416016, -0.171875, 26.0975609, -6.0365853, -9.5121956, -0.0433051
1.0014648, -0.1376953, -0.1689453, 23.5365868, -5.670732, -8.9024391, -0.0446479
0.9985352, -0.1381836, -0.1650391, 22.1341476, -5.5487804, -9.0243902, -0.0419623
1.0058594, -0.1411133, -0.1669922, 19.2682934, -4.2682929, -9.3902445, -0.0399481
1.0073242, -0.1435547, -0.1547852, 17.0121956, -2.804878, -9.5731707, -0.0433051
1.0073242, -0.1459961, -0.1523438, 15.7926836, -1.8292683, -9.5121956, -0.0412909
1.003418, -0.1542969, -0.1450195, 13.5365858, -1.2195122, -9.5731707, -0.0406195
0.996582, -0.1645508, -0.1367188, 12.2560978, -0.7926829, -9.0853662, -0.0365911
0.9897461, -0.1728516, -0.1264648, 9.7560978, -0.6097561, -8.1097565, -0.0412909
0.9863281, -0.1845703, -0.1147461, 8.5365858, -0.3048781, -7.1341467, -0.042298
0.987793, -0.1884766, -0.1079102, 7.1341467, 0.3048781, -5.3658538, -0.0379339
0.9863281, -0.1967773, -0.0864258, 6.280488, 0.8536586, -4.390244, -0.0392767
0.9838867, -0.199707, -0.0786133, 6.0975609, 1.402439, -3.4756098, -0.0406195
0.9799805, -0.2075195, -0.0585938, 6.6463418, 1.2804878, -3.2317073, -0.0365911
0.9799805, -0.2060547, -0.0537109, 9.8170738, 0.3658537, -3.7804878, -0.0352483
0.9785156, -0.1938477, -0.0512695, 11.8292685, -1.2804878, -4.8170733, -0.0339055
0.9760742, -0.1743164, -0.0454102, 12.0121956, -2.2560976, -5.7926831, -0.0325628
0.972168, -0.1411133, -0.0297852, 11.9512196, -4.1463413, -7.5609756, -0.0392767
0.9536133, -0.1147461, -0.0229492, 11.7682934, -4.6951222, -8.0487804, -0.0365911
0.9433594, -0.112793, -0.0273438, 10.7317076, -3.4146342, -7.7439027, -0.0392767
0.9223633, -0.1259766, -0.0551758, 9.2073174, -2.0731707, -6.4634147, -0.0392767
0.9106445, -0.1347656, -0.065918, 5.0609756, 0.9146342, -3.1097562, -0.0433051
0.8994141, -0.1469727, -0.0776367, 2.0731707, 1.8902439, -1.402439, -0.0433051
0.894043, -0.1459961, -0.0786133, -4.8780489, 3.2317073, 1.1585366, -0.0473335
0.8886719, -0.1469727, -0.0688477, -8.9634151, 3.5365853, 2.0731707, -0.0459907
0.8857422, -0.1484375, -0.0634766, -15.6707325, 3.3536587, 3.2317073, -0.0439765
0.8876953, -0.1635742, -0.0556641, -19.6951218, 2.195122, 4.6951222, -0.0419623
0.8881836, -0.1694336, -0.0507812, -21.1585369, 1.7682927, 5.670732, -0.0392767
0.9082031, -0.1787109, -0.0473633, -24.4512196, -0.2439024, 7.3780489, -0.0399481
0.9262695, -0.1860352, -0.0522461, -25.7926826, -0.7317073, 8.2926826, -0.0406195
0.9375, -0.1889648, -0.0566406, -28.1707325, -0.3048781, 10, -0.0406195
0.9599609, -0.1899414, -0.0629883, -28.841465, -0.3658537, 10.5487804, -0.0399481
0.965332, -0.1958008, -0.0712891, -29.1463413, 0, 12.1951218, -0.0459907
0.9824219, -0.1918945, -0.090332, -29.5121956, -0.0609756, 13.1707315, -0.0459907
0.9916992, -0.1899414, -0.0991211, -32.3170738, 0.8536586, 14.5121956, -0.0500191
1.0058594, -0.1782227, -0.1044922, -34.5731697, 1.3414634, 15.060976, -0.0473335
1.0092773, -0.1733398, -0.1040039, -38.9634171, 3.2317073, 14.8780489, -0.0486763
1.0058594, -0.1616211, -0.0966797, -41.4024391, 5.4268293, 13.5975609, -0.0480049
1.0053711, -0.1523438, -0.0981445, -41.8292694, 5.8536587, 12.560976, -0.0446479
0.987793, -0.1464844, -0.1020508, -43.4756126, 6.9512196, 11.0975609, -0.0473335
0.9658203, -0.1455078, -0.1113281, -45, 7.5609756, 10.4268293, -0.0513619
0.9555664, -0.1459961, -0.1132812, -48.1707344, 8.5975609, 10.2439022, -0.0486763
0.9355469, -0.1503906, -0.1152344, -49.5731735, 8.9634151, 9.9390249, -0.0459907
0.9267578, -0.1542969, -0.1152344, -52.4390259, 9.6951218, 10.3048782, -0.0446479
0.9072266, -0.159668, -0.1137695, -54.0853653, 10.1219511, 10.4878054, -0.0412909
0.9018555, -0.1601562, -0.1147461, -57.1951218, 10.9146347, 11.341464, -0.0416266
0.8925781, -0.1665039, -0.1064453, -58.9634171, 10.7317076, 11.7682934, -0.0412909
0.894043, -0.1757812, -0.1005859, -62.6219521, 10.2439022, 12.8048782, -0.0352483
0.8969727, -0.1879883, -0.081543, -65.4268341, 10.060976, 13.1707315, -0.0365911
0.8974609, -0.2021484, -0.0712891, -66.2804871, 9.7560978, 12.9878054, -0.0352483
0.8984375, -0.2172852, -0.046875, -66.2804871, 9.1463413, 12.7439032, -0.0318914
0.909668, -0.2358398, -0.0249023, -65.5487823, 8.5975609, 12.1951218, -0.027863
0.9130859, -0.2412109, -0.0112305, -63.7195129, 7.3780489, 11.1585369, -0.0302129
0.9121094, -0.2485352, 0.003418, -62.4390259, 6.7073174, 10.5487804, -0.0271916
0.9145508, -0.246582, 0.0112305, -60.18293, 5.8536587, 9.2682924, -0.0298772
0.9145508, -0.25, 0.0288086, -58.6585388, 5.3658538, 8.6585369, -0.0325628
0.9169922, -0.2514648, 0.0302734, -54.8780518, 4.3292685, 7.6829271, -0.03122
0.9160156, -0.2412109, 0.0336914, -52.5, 3.5975611, 7.0731707, -0.0325628
0.9204102, -0.2358398, 0.03125, -48.2317085, 1.7682927, 6.8292685, -0.0359197
0.9213867, -0.2241211, 0.0200195, -44.8780479, 0, 6.0365853, -0.0372625
0.9272461, -0.2177734, 0.0087891, -43.5975609, -0.9146342, 5.7317076, -0.0352483
0.9306641, -0.2016602, -0.0073242, -42.6219521, -2.4390244, 4.8780489, -0.0325628
0.9316406, -0.1860352, -0.0205078, -42.1951218, -3.0487804, 4.8780489, -0.03122
0.9335938, -0.1757812, -0.0263672, -42.9878044, -2.9268293, 3.9024391, -0.0359197
0.9389648, -0.1586914, -0.0356445, -43.9024391, -2.5609756, 3.4756098, -0.0392767
0.9355469, -0.1523438, -0.0390625, -45.9146347, -1.6463414, 3.2926829, -0.0365911
0.9316406, -0.1494141, -0.0517578, -47.1951218, -1.6463414, 3.0487804, -0.0426337
0.925293, -0.1523438, -0.0556641, -49.0243912, -2.1341465, 3.2926829, -0.0433051
0.9257812, -0.1650391, -0.0688477, -50.2439041, -2.7439024, 3.4756098, -0.0439765
0.9306641, -0.1689453, -0.078125, -53.2317085, -4.4512196, 4.3292685, -0.0433051
0.9414062, -0.1875, -0.0913086, -56.4024391, -6.0365853, 4.8170733, -0.0406195
0.9462891, -0.1953125, -0.0961914, -58.4146347, -6.0365853, 5, -0.0419623
0.9492188, -0.2045898, -0.0952148, -61.9512215, -7.0121951, 5.3658538, -0.0446479
0.9609375, -0.2231445, -0.0893555, -63.9634171, -7.2560978, 5.609756, -0.0466621
0.9677734, -0.2250977, -0.0859375, -66.6463394, -7.7439027, 5.9756098, -0.0500191
0.9892578, -0.2358398, -0.0620117, -67.8048782, -7.9268293, 6.280488, -0.0446479
1.0019531, -0.2363281, -0.0488281, -69.2073212, -8.6585369, 6.3414636, -0.0503548
1.0112305, -0.2392578, -0.0288086, -69.2073212, -8.841464, 6.1585369, -0.0520333
1.0117188, -0.2387695, -0.0175781, -68.4146347, -8.9634151, 5.5487804, -0.0506905
1.0146484, -0.2319336, 0.0131836, -67.8048782, -8.719512, 5.1219511, -0.0503548
1.0146484, -0.2241211, 0.0244141, -65.2439041, -8.9024391, 4.4512196, -0.0506905
1.0161133, -0.2133789, 0.0424805, -61.5853691, -9.2073174, 3.4756098, -0.0500191
1.0107422, -0.2011719, 0.0498047, -58.841465, -9.6341467, 2.8658538, -0.0459907
1.0048828, -0.1801758, 0.0556641, -53.7804909, -10.1829271, 0.9146342, -0.0466621
0.9897461, -0.1547852, 0.0498047, -51.4024391, -10.6707315, -0.3048781, -0.0433051
0.9794922, -0.1411133, 0.046875, -48.2926826, -10.4268293, -2.195122, -0.0433051
0.9477539, -0.1220703, 0.0390625, -47.5, -10.3048782, -2.8658538, -0.0476692
0.9350586, -0.1181641, 0.0283203, -45.6097565, -9.2682924, -4.0853658, -0.0433051
0.9121094, -0.1069336, 0.0083008, -44.5121956, -9.0853662, -3.9634147, -0.0406195
0.8974609, -0.105957, -0.0039062, -42.9878044, -8.2317076, -3.3536587, -0.0419623
0.8745117, -0.0942383, -0.0429688, -42.1341476, -8.1097565, -2.5609756, -0.0433051
0.8632812, -0.090332, -0.0615234, -41.8292694, -9.3292685, -1.0365853, -0.0396124
0.8613281, -0.0883789, -0.0986328, -43.2926826, -10.9756098, 0.1829268, -0.0379339
0.8569336, -0.0878906, -0.1235352, -44.2682953, -11.9512196, 0.6707317, -0.0379339
0.8652344, -0.0869141, -0.1611328, -47.9268303, -12.560976, 1.7682927, -0.0372625
0.8676758, -0.0922852, -0.1987305, -50.6097565, -12.5, 2.1341465, -0.0406195
0.8662109, -0.0961914, -0.2133789, -56.7682953, -12.0121956, 3.2317073, -0.0433051
0.8745117, -0.1142578, -0.2402344, -60.2439041, -11.1585369, 3.5975611, -0.0406195
0.8759766, -0.1235352, -0.2495117, -68.2317123, -10.6097565, 5.4268293, -0.0392767
0.8876953, -0.1445312, -0.2543945, -72.5, -10.6097565, 6.4024391, -0.0372625
0.8901367, -0.1582031, -0.2553711, -81.0365906, -10.060976, 7.6219516, -0.0392767
0.9042969, -0.1879883, -0.2514648, -85.3048782, -9.8170738, 8.4756098, -0.0369268
0.9101562, -0.2060547, -0.2441406, -91.3414688, -9.0243902, 9.3902445, -0.0325628
0.9316406, -0.230957, -0.2172852, -96.4024429, -7.6829271, 10.060976, -0.0352483
0.9404297, -0.2475586, -0.2011719, -98.3536606, -6.7682929, 9.6341467, -0.0419623
0.9511719, -0.269043, -0.1723633, -101.0365906, -5.1829271, 9.0853662, -0.0419623
0.9638672, -0.2880859, -0.1289062, -102.0731735, -4.390244, 8.9024391, -0.0382696
0.9682617, -0.3037109, -0.1088867, -102.0121994, -2.3170731, 7.8658538, -0.0392767
0.9741211, -0.3129883, -0.0600586, -101.4634171, -1.7682927, 7.2560978, -0.0379339
0.9804688, -0.3164062, -0.0351562, -97.3780518, -0.6097561, 5.8536587, -0.0372625
0.9814453, -0.3193359, 0.003418, -94.9390259, -0.1219512, 4.8170733, -0.0392767
0.9833984, -0.3198242, 0.0234375, -88.1707306, 0.4878049, 3.1097562, -0.0406195
0.980957, -0.3110352, 0.059082, -85.0609741, 0.9756098, 2.195122, -0.0433051
0.9833984, -0.3056641, 0.0737305, -77.0731735, 0.7317073, 0.1829268, -0.0473335
0.9775391, -0.293457, 0.0844727, -69.0243912, 0.6707317, -1.9512196, -0.0446479
0.9760742, -0.2758789, 0.0883789, -64.8780518, 0.7926829, -3.0487804, -0.0433051
0.9672852, -0.269043, 0.0810547, -58.1707344, 0.3658537, -5.1829271, -0.0406195
0.9555664, -0.2573242, 0.0673828, -55.3658562, 0.3658537, -6.0975609, -0.0473335
0.9458008, -0.2543945, 0.0620117, -51.9512215, 0.2439024, -7.1341467, -0.0486763
0.9414062, -0.2421875, 0.0493164, -50.4878044, 0.3658537, -7.7439027, -0.0486763
0.9350586, -0.234375, 0.0439453, -48.9634171, 0.2439024, -8.4756098, -0.049012
0.9140625, -0.2226562, 0.0273438, -48.7804871, 0.3048781, -9.0853662, -0.0473335
0.9057617, -0.2158203, 0.0200195, -49.3902435, 0.5487805, -9.3292685, -0.0433051
0.8916016, -0.2021484, 0.0102539, -50.7926826, 0.4878049, -8.841464, -0.0433051
0.8837891, -0.1987305, 0.0092773, -51.6463432, 0.0609756, -8.719512, -0.0459907
0.8779297, -0.1889648, 0, -53.9024391, -1.0365853, -8.3536587, -0.0459907
0.8706055, -0.1850586, -0.0048828, -55.3048782, -2.2560976, -7.9878049, -0.0459907
0.8710938, -0.1801758, -0.0048828, -58.9634171, -4.390244, -7.1341467, -0.0466621
0.8789062, -0.1801758, 0.0009766, -60.9146347, -5.4268293, -6.5243902, -0.0486763
0.8818359, -0.1762695, 0.0029297, -65, -6.7682929, -5.0609756, -0.0486763
0.8999023, -0.1879883, 0.0205078, -66.2804871, -7.2560978, -4.0853658, -0.0459907
0.9121094, -0.190918, 0.0244141, -65.9756088, -7.0731707, -2.9878049, -0.0419623
0.9355469, -0.2050781, 0.0175781, -64.0243912, -7.0731707, -2.8658538, -0.0362554
0.9462891, -0.2099609, 0.0068359, -59.3902435, -7.3170733, -2.9878049, -0.0369268
0.972168, -0.2265625, -0.0205078, -55.0609779, -7.4390244, -4.0243902, -0.0392767
0.9785156, -0.2333984, -0.0341797, -52.9878044, -7.1341467, -4.8780489, -0.0399481
0.9912109, -0.25, -0.0678711, -49.2682953, -5.3048782, -6.890244, -0.0459907
0.9912109, -0.2563477, -0.1049805, -48.2317085, -4.1463413, -7.8048782, -0.0386053
0.984375, -0.2617188, -0.1220703, -48.0487823, -0.9146342, -9.8170738, -0.0365911
0.9594727, -0.2749023, -0.1381836, -49.0853653, 0.8536586, -10.3658543, -0.0399481
0.9482422, -0.2734375, -0.1430664, -53.1707344, 4.2073174, -10.3048782, -0.0359197
0.9194336, -0.2841797, -0.1435547, -55.7926826, 5.7926831, -9.6341467, -0.0359197
0.9038086, -0.2924805, -0.1362305, -60, 7.6219516, -8.2317076, -0.0365911
0.8779297, -0.2949219, -0.1132812, -61.5853691, 7.9878049, -7.4390244, -0.0325628
0.8696289, -0.2880859, -0.1025391, -64.2073212, 8.3536587, -6.1585369, -0.0325628
0.8662109, -0.2758789, -0.0703125, -65.7926865, 7.7439027, -4.9390244, -0.035584
0.8657227, -0.262207, -0.0546875, -66.0365906, 6.8292685, -4.5731707, -0.0372625
0.8730469, -0.2504883, -0.0180664, -66.0365906, 5.0609756, -4.6341462, -0.0412909
0.890625, -0.2426758, 0.0058594, -65.7926865, 4.1463413, -4.6341462, -0.0459907
0.894043, -0.2441406, 0.0131836, -65.0609741, 3.2926829, -4.9390244, -0.0500191
0.90625, -0.2416992, 0.0229492, -64.2073212, 2.8658538, -5, -0.0473335
0.9165039, -0.2412109, 0.0224609, -61.8902435, 2.8658538, -5.1829271, -0.0486763
0.9262695, -0.2348633, 0.0200195, -60.9756126, 3.1707318, -4.8780489, -0.0513619
0.9311523, -0.2324219, 0.0175781, -59.6341476, 3.6585367, -4.7560978, -0.0503548
0.9521484, -0.2177734, 0.0146484, -59.7560997, 3.9024391, -4.2682929, -0.0500191
0.9550781, -0.2114258, 0.0097656, -60, 4.6341462, -3.4756098, -0.0520333
0.9628906, -0.2016602, 0.0083008, -60.7926826, 5.9146342, -3.1707318, -0.0513619
0.9692383, -0.2001953, 0.0102539, -61.4634171, 6.890244, -3.1707318, -0.0530404
0.9741211, -0.2016602, 0.0043945, -63.1097565, 8.0487804, -3.1097562, -0.0513619
0.9707031, -0.2045898, -0.0019531, -63.841465, 8.3536587, -3.4146342, -0.0513619
0.9672852, -0.2041016, -0.0063477, -65.3658524, 9.0853662, -3.9024391, -0.0533761
0.9575195, -0.2202148, -0.0166016, -65.6707306, 9.3902445, -4.2073174, -0.0540475
0.9492188, -0.2304688, -0.0224609, -64.3902435, 10.060976, -4.5731707, -0.0527047
0.9418945, -0.2407227, -0.0361328, -63.841465, 10.2439022, -4.4512196, -0.0553902
0.9389648, -0.2431641, -0.0405273, -62.9878082, 11.280488, -4.4512196, -0.0574044
0.925293, -0.2373047, -0.0488281, -62.8658562, 11.9512196, -4.390244, -0.0527047
0.9179688, -0.2358398, -0.0512695, -63.4756126, 12.9268293, -3.7804878, -0.0540475
0.9057617, -0.2421875, -0.0483398, -64.6341476, 13.4756098, -2.5, -0.0540475
0.9047852, -0.2441406, -0.0517578, -65.6707306, 13.780488, -2.1341465, -0.0543832
0.8959961, -0.2485352, -0.0541992, -67.1951218, 14.6341467, -1.402439, -0.0527047
0.8935547, -0.2460938, -0.0439453, -68.4146347, 14.8780489, -0.9146342, -0.0486763
0.8935547, -0.2451172, -0.0366211, -70.6707306, 14.7560978, -0.6707317, -0.0513619
0.8911133, -0.2412109, -0.0224609, -71.9512177, 14.3902445, -0.3658537, -0.0520333
0.8964844, -0.2412109, -0.0175781, -75.9146347, 13.4756098, 0.2439024, -0.052369
0.8974609, -0.237793, -0.0019531, -78.1097565, 13.4146347, 0.7926829, -0.0453193
0.8999023, -0.2353516, 0.012207, -82.2560959, 12.6829271, 1.5243902, -0.0436408
0.9106445, -0.2421875, 0.0322266, -83.7195129, 11.9512196, 1.7073171, -0.0486763
0.9165039, -0.2456055, 0.0410156, -86.0365906, 11.8902445, 2.4390244, -0.0486763
0.9277344, -0.2495117, 0.0566406, -85.5487823, 11.5853662, 3.1097562, -0.0480049
0.9311523, -0.2573242, 0.0620117, -83.9634171, 11.219512, 3.0487804, -0.0527047
0.949707, -0.2680664, 0.0639648, -79.0853653, 10.1219511, 2.804878, -0.0493477
0.9614258, -0.2768555, 0.0498047, -75.7926865, 9.5731707, 2.6219513, -0.0439765
0.9707031, -0.2802734, 0.0419922, -69.5731735, 8.2317076, 1.7682927, -0.0459907
0.9824219, -0.2851562, 0.0161133, -66.7682953, 7.5609756, 1.402439, -0.0419623
0.9882812, -0.2871094, 0.003418, -62.8658562, 7.5, 0.7317073, -0.0419623
1.0039062, -0.2983398, -0.0161133, -61.6463432, 7.8048782, 0.7317073, -0.0399481
1.0078125, -0.3056641, -0.0288086, -60.3048782, 10.060976, 0.7317073, -0.0392767
1.0039062, -0.2993164, -0.0410156, -60.0609779, 11.5853662, 0.5487805, -0.0433051
1, -0.2978516, -0.0415039, -59.8170738, 14.3902445, 0.1219512, -0.0382696
0.9824219, -0.2856445, -0.0473633, -60.5487823, 16.4024391, 0.1829268, -0.0352483
0.9726562, -0.2792969, -0.0463867, -61.9512215, 17.1341476, -0.0609756, -0.0339055
0.9492188, -0.2583008, -0.0332031, -64.4512177, 17.8048782, -0.0609756, -0.0379339
0.9296875, -0.2460938, -0.0131836, -65.6097565, 18.0487804, -0.3048781, -0.0352483
0.9165039, -0.2382812, -0.0048828, -66.4024429, 17.6829281, -1.1585366, -0.0328985
0.8974609, -0.2314453, 0.0063477, -66.2195129, 17.1951218, -1.8292683, -0.0379339
0.8857422, -0.2319336, 0.0024414, -66.3414612, 15.7317076, -2.4390244, -0.0372625
0.8701172, -0.2324219, -0.0024414, -66.2804871, 14.6951227, -2.9878049, -0.0392767
0.8666992, -0.2319336, -0.0063477, -66.4634171, 12.1341467, -3.2926829, -0.0406195
0.8608398, -0.2363281, -0.0195312, -66.9512177, 10.5487804, -3.1707318, -0.0436408
0.8623047, -0.2407227, -0.0224609, -66.6463394, 7.8658538, -2.5609756, -0.0459907
0.8740234, -0.2460938, -0.0449219, -66.7682953, 5.8536587, -1.3414634, -0.0412909
0.8867188, -0.246582, -0.0546875, -66.7682953, 4.9390244, -0.6707317, -0.0419623
0.909668, -0.2392578, -0.081543, -68.0487823, 3.5365853, 1.2804878, -0.0392767
0.9306641, -0.2353516, -0.0991211, -68.7804871, 3.1707318, 2.5, -0.0399481
0.9472656, -0.2319336, -0.1054688, -72.5, 3.5975611, 4.0243902, -0.0412909
0.9619141, -0.2202148, -0.1181641, -74.6951218, 4.1463413, 4.7560978, -0.0419623
0.9667969, -0.2197266, -0.1152344, -79.0243912, 5.9146342, 5.7317076, -0.0436408
0.9697266, -0.2099609, -0.1069336, -81.4634171, 6.9512196, 6.0365853, -0.0419623
0.9702148, -0.2104492, -0.1010742, -85.6707306, 8.9024391, 7.1341467, -0.0433051
0.9643555, -0.2050781, -0.0864258, -86.8902435, 9.9390249, 7.3780489, -0.0459907
0.9604492, -0.203125, -0.0810547, -88.6585388, 10.7926836, 7.5, -0.0466621
0.9545898, -0.2094727, -0.0776367, -89.3902435, 10.6707315, 6.7073174, -0.0500191
0.9541016, -0.2084961, -0.0751953, -90.2439041, 10.060976, 6.4024391, -0.0446479
0.9506836, -0.215332, -0.074707, -91.2195129, 8.841464, 5.3048782, -0.0436408
0.9462891, -0.230957, -0.0727539, -91.7073212, 7.6219516, 4.9390244, -0.0419623
0.9443359, -0.2363281, -0.0703125, -92.3170776, 6.4024391, 4.390244, -0.0386053
0.9438477, -0.237793, -0.0703125, -92.6219559, 5.7926831, 4.1463413, -0.0352483
0.9428711, -0.2387695, -0.0668945, -92.0731735, 4.2073174, 3.8414636, -0.0392767
0.9462891, -0.2441406, -0.0625, -91.8902435, 3.6585367, 4.0853658, -0.0372625
0.9521484, -0.2436523, -0.0629883, -90.7317123, 2.5, 4.5731707, -0.03122
0.965332, -0.2416992, -0.0556641, -89.9390259, 1.8902439, 5.1829271, -0.0365911
0.9750977, -0.2348633, -0.0541992, -88.1097565, 0.9756098, 6.4024391, -0.0372625
0.9926758, -0.2250977, -0.0478516, -85.1219559, 0.7926829, 6.7682929, -0.0359197
0.9980469, -0.2167969, -0.0473633, -83.6585388, 0.7317073, 6.6463418, -0.0345769
1.0078125, -0.1987305, -0.0449219, -80.4268341, 1.097561, 6.5853658, -0.0332341
1.0175781, -0.1904297, -0.0483398, -78.9024429, 1.1585366, 5.9146342, -0.0305486
1.0200195, -0.1889648, -0.0507812, -76.2804871, 1.0365853, 4.5731707, -0.0271916
1.0200195, -0.1855469, -0.0683594, -75.4268341, 0.6097561, 3.5365853, -0.0265202
1.0224609, -0.1835938, -0.0766602, -74.3902435, -0.6707317, 1.2195122, -0.0251774
1.015625, -0.1865234, -0.0864258, -74.8170776, -1.2195122, 0.0609756, -0.0271916
1.0112305, -0.1816406, -0.0917969, -76.4634171, -2.7439024, -1.9512196, -0.024506
0.9931641, -0.1806641, -0.0927734, -77.3780518, -3.5365853, -2.6219513, -0.0231632
0.9892578, -0.1772461, -0.0888672, -79.8780518, -4.8780489, -3.9024391, -0.0218204
0.9677734, -0.1728516, -0.0732422, -81.4024429, -5.9146342, -3.9024391, -0.0221561
0.9575195, -0.1665039, -0.0668945, -81.9512177, -6.7073174, -3.9634147, -0.0218204
0.9458008, -0.1655273, -0.0561523, -82.9268341, -8.9024391, -3.4146342, -0.0218204
0.9350586, -0.1660156, -0.050293, -82.9878082, -10.3658543, -3.4756098, -0.0218204
0.9291992, -0.1611328, -0.0483398, -83.4146347, -13.2926836, -3.4756098, -0.0298772
0.9331055, -0.1699219, -0.0410156, -83.5975647, -15.2439032, -3.7804878, -0.0285344
0.9296875, -0.1669922, -0.043457, -82.9268341, -18.8414631, -4.5731707, -0.03122
0.9345703, -0.1635742, -0.0336914, -82.3170776, -20.7317085, -5.2439027, -0.0315557
0.9321289, -0.1640625, -0.0283203, -80.3048782, -24.0853672, -6.5243902, -0.0345769
0.9248047, -0.1611328, -0.0234375, -79.0243912, -25.8536587, -7.1951222, -0.0345769
0.9331055, -0.1557617, -0.0253906, -76.5853653, -28.4756107, -7.8658538, -0.0325628
0.9467773, -0.1538086, -0.0288086, -72.68293, -31.2195129, -8.841464, -0.0379339
0.9511719, -0.1513672, -0.0292969, -70.3658524, -32.3170738, -9.5731707, -0.0379339
0.96875, -0.1469727, -0.0512695, -65.9146347, -34.2682953, -10.6707315, -0.0359197
0.9794922, -0.1386719, -0.0795898, -64.6951218, -35.5487823, -11.280488, -0.0386053
0.9824219, -0.1337891, -0.0922852, -63.2926826, -38.4756088, -12.560976, -0.0379339
0.9921875, -0.1206055, -0.1162109, -63.1707344, -39.5731735, -13.1707315, -0.0439765
0.996582, -0.1137695, -0.121582, -64.7560959, -41.2804871, -13.6585369, -0.0480049
1.0019531, -0.1025391, -0.137207, -66.0365906, -41.5243912, -14.0853662, -0.0493477
0.9980469, -0.0976562, -0.1411133, -68.9634171, -40.9146347, -13.9024391, -0.0500191
0.9985352, -0.0986328, -0.1621094, -71.0365906, -40.5487823, -14.0853662, -0.0446479
1.0014648, -0.0986328, -0.1723633, -75.5487823, -39.6951218, -14.0853662, -0.0473335
0.9956055, -0.1049805, -0.1884766, -80.0609741, -38.841465, -14.0853662, -0.0513619
0.9892578, -0.109375, -0.1928711, -82.2560959, -38.7804871, -14.3902445, -0.0540475
0.9853516, -0.121582, -0.1855469, -84.5121994, -36.8902435, -15.3048782, -0.0540475
0.9760742, -0.1289062, -0.1992188, -84.4512253, -35.5487823, -15.5487804, -0.0533761
0.9736328, -0.1342773, -0.2177734, -84.146347, -34.6341476, -16.5243912, -0.0500191
0.96875, -0.1469727, -0.2475586, -83.9024429, -35.2439041, -17.2560978, -0.0436408
0.9624023, -0.1503906, -0.265625, -84.5121994, -36.4634171, -18.3536587, -0.0433051
0.9614258, -0.1591797, -0.3007812, -85, -36.9512215, -19.1463413, -0.0473335
0.9614258, -0.1640625, -0.3183594, -86.2195129, -36.8902435, -20.1829281, -0.0459907
0.9580078, -0.1669922, -0.3496094, -86.8292694, -36.0975609, -20.1829281, -0.0459907
0.9545898, -0.1674805, -0.3598633, -89.3902435, -34.0243912, -19.6951218, -0.0486763
0.9487305, -0.1728516, -0.3789062, -91.0365906, -31.0975609, -18.2317085, -0.0513619
0.9501953, -0.1699219, -0.3891602, -92.0731735, -29.8170738, -17.3780499, -0.0446479
0.940918, -0.1699219, -0.4057617, -93.9634171, -28.2317085, -14.6951227, -0.0433051
0.9477539, -0.1650391, -0.4169922, -95.1219559, -27.5, -13.4146347, -0.0480049
0.9541016, -0.1621094, -0.4145508, -98.1707306, -25.9756107, -10.8536587, -0.0459907
0.9545898, -0.1552734, -0.4101562, -99.8170776, -25.3048782, -10.2439022, -0.0486763
0.9584961, -0.1479492, -0.3979492, -102.9878082, -24.3292694, -9.1463413, -0.0446479
0.9624023, -0.1396484, -0.3857422, -104.2682953, -23.4146347, -8.5975609, -0.0513619
0.9633789, -0.1362305, -0.378418, -106.4024429, -21.9512196, -8.4146347, -0.0473335
0.9711914, -0.1308594, -0.3613281, -107.1341476, -21.5243912, -8.4756098, -0.0503548
0.9750977, -0.1303711, -0.3603516, -107.8048782, -20.4878044, -8.841464, -0.0500191
0.9824219, -0.1381836, -0.3598633, -107.7439041, -20, -9.2073174, -0.0473335
0.9931641, -0.1494141, -0.3671875, -107.9878082, -20.1219521, -9.3902445, -0.0500191
0.9995117, -0.1572266, -0.3696289, -108.7195129, -19.4512196, -9.3292685, -0.0547189
1.0063477, -0.1630859, -0.3701172, -109.146347, -19.3292694, -9.0853662, -0.0516976
1.0107422, -0.1650391, -0.3652344, -110.7317123, -18.780489, -8.1707315, -0.049012
1.0141602, -0.1611328, -0.3447266, -111.5853653, -18.2317085, -7.2560978, -0.0503548
1.0224609, -0.1606445, -0.3310547, -112.0731735, -17.6829281, -5.7926831, -0.0496834
1.027832, -0.1533203, -0.3125, -111.7682953, -17.8658543, -5.2439027, -0.049012
1.0371094, -0.1552734, -0.3041992, -111.4024429, -16.7073174, -3.5365853, -0.0513619
1.0532227, -0.15625, -0.2963867, -110.7317123, -16.0975609, -2.5, -0.0493477
1.0649414, -0.159668, -0.2963867, -110.5487823, -15.6097565, -2.195122, -0.0527047
1.0844727, -0.1665039, -0.2954102, -110.6707306, -14.5731707, -2.5, -0.0547189
1.0991211, -0.1757812, -0.2880859, -110.8536606, -14.0243902, -2.6219513, -0.0553902
1.0966797, -0.1801758, -0.2827148, -111.1585388, -12.1341467, -3.6585367, -0.0553902
1.1020508, -0.1831055, -0.2646484, -110.6707306, -11.341464, -3.7195122, -0.0594186
1.1020508, -0.1860352, -0.2583008, -108.3536606, -9.8780489, -4.390244, -0.0651255
1.0942383, -0.1889648, -0.2431641, -107.1951218, -8.9024391, -4.8780489, -0.0621042
1.0888672, -0.1870117, -0.2407227, -104.3902435, -7.6219516, -5.9146342, -0.0607614
1.0844727, -0.1884766, -0.2368164, -103.0487823, -6.9512196, -6.280488, -0.0627756
1.0742188, -0.1884766, -0.234375, -100, -5.4268293, -7.2560978, -0.0654612
1.0605469, -0.1879883, -0.2324219, -97.0731735, -4.8170733, -8.6585369, -0.0688182
1.0537109, -0.1875, -0.2338867, -96.0975647, -5.1829271, -8.719512, -0.070161
1.0356445, -0.1879883, -0.2402344, -94.8170776, -6.1585369, -8.719512, -0.0728466
1.0317383, -0.1899414, -0.2539062, -94.3292694, -7.0731707, -8.841464, -0.0678111
1.0292969, -0.1928711, -0.2568359, -94.7561035, -8.3536587, -8.5975609, -0.0674754
1.0288086, -0.2094727, -0.2734375, -94.7561035, -8.719512, -8.4756098, -0.0688182
1.0292969, -0.2172852, -0.284668, -95.6097565, -9.1463413, -7.4390244, -0.0647898
1.0332031, -0.2387695, -0.3071289, -96.2804871, -9.0243902, -7.1951222, -0.063447
1.0385742, -0.2524414, -0.3178711, -98.1707306, -9.6341467, -6.1585369, -0.0674754
1.0371094, -0.2773438, -0.3305664, -99.2682953, -9.8780489, -5.670732, -0.0678111
1.0405273, -0.2929688, -0.3388672, -101.9512253, -10.1829271, -5.1219511, -0.0627756
1.0410156, -0.3129883, -0.3330078, -103.0487823, -10.7926836, -4.6341462, -0.0607614
1.0395508, -0.3183594, -0.3232422, -102.8048782, -11.0975609, -4.7560978, -0.056733
1.0366211, -0.3261719, -0.3017578, -101.4634171, -11.5853662, -4.6341462, -0.0553902
1.0351562, -0.3242188, -0.2714844, -99.6951218, -11.4634151, -4.7560978, -0.052369
1.0400391, -0.3227539, -0.2587891, -95.18293, -10.2439022, -5.1219511, -0.0547189
1.0380859, -0.3076172, -0.2485352, -91.2804871, -8.9024391, -5.3048782, -0.0594186
1.0444336, -0.2993164, -0.2456055, -82.5, -6.4634147, -6.4024391, -0.0540475
1.0458984, -0.2827148, -0.2578125, -78.0487823, -5.2439027, -6.8292685, -0.0506905
1.0478516, -0.2700195, -0.2675781, -70.2439041, -3.6585367, -8.2926826, -0.0513619
1.0395508, -0.2382812, -0.2773438, -67.3170776, -2.9878049, -9.4512196, -0.0459907
1.034668, -0.222168, -0.2788086, -63.5365868, -1.8902439, -10.8536587, -0.0453193
1.0205078, -0.1694336, -0.2758789, -62.1341476, -0.7317073, -11.8902445, -0.0513619
1.0107422, -0.1435547, -0.2680664, -62.1341476, 0, -12.1951218, -0.0500191
0.9980469, -0.0893555, -0.2460938, -62.8048782, 1.8902439, -12.1341467, -0.0480049
0.9804688, -0.046875, -0.2270508, -63.5365868, 2.5609756, -11.4634151, -0.0493477
0.9731445, -0.0292969, -0.2202148, -66.2804871, 3.7804878, -9.7560978, -0.0493477
0.9643555, 0.0004883, -0.2075195, -68.8414688, 3.8414636, -8.5365858, -0.0513619
0.9609375, 0.012207, -0.1948242, -75.4268341, 3.1707318, -6.1585369, -0.0466621
0.965332, 0.0292969, -0.1777344, -79.146347, 2.6219513, -4.9390244, -0.0433051
0.9648438, 0.0375977, -0.1645508, -86.4634171, 1.0365853, -2.3780489, -0.0433051
0.9746094, 0.0341797, -0.1586914, -89.8780518, 0, -1.3414634, -0.0419623
0.980957, 0.0268555, -0.1616211, -97.68293, -2.1341465, 0.7317073, -0.0386053
0.996582, -0.0078125, -0.1669922, -105.9146347, -4.2073174, 1.8902439, -0.0439765
1.0068359, -0.0273438, -0.1694336, -110.1219559, -4.9390244, 2.2560976, -0.0466621
1.0175781, -0.074707, -0.1650391, -118.9634171, -6.5243902, 2.804878, -0.0446479
1.0209961, -0.1225586, -0.1484375, -122.68293, -7.1341467, 2.9878049, -0.0446479
1.0185547, -0.1459961, -0.1362305, -128.1097565, -7.3780489, 3.2317073, -0.0409552
1.0102539, -0.1943359, -0.1113281, -129.146347, -7.4390244, 3.4146342, -0.0459907
1.0058594, -0.2138672, -0.0981445, -128.4756165, -7.1341467, 3.3536587, -0.0513619
1.0004883, -0.2509766, -0.0756836, -126.3414688, -6.890244, 3.0487804, -0.0459907
0.9956055, -0.262207, -0.065918, -119.2073212, -6.280488, 2.6829269, -0.0466621
0.9936523, -0.2641602, -0.0429688, -114.7561035, -6.3414636, 2.1341465, -0.0459907
0.9931641, -0.2583008, -0.0322266, -103.4756088, -6.2195125, 0.3658537, -0.0392767
0.9960938, -0.2304688, -0.0219727, -89.9390259, -4.8780489, -1.8902439, -0.0406195
0.996582, -0.2148438, -0.0229492, -82.5609741, -3.9024391, -2.804878, -0.0412909
0.9892578, -0.1811523, -0.0415039, -67.68293, -1.5243902, -4.8170733, -0.0409552
0.9921875, -0.15625, -0.1040039, -60.6097565, 0.0609756, -5.4878049, -0.0382696
0.9956055, -0.1484375, -0.1489258, -48.841465, 2.5609756, -5.8536587, -0.0298772
1.0097656, -0.1293945, -0.2636719, -45.0609779, 3.9024391, -5.8536587, -0.0271916
1.0175781, -0.1235352, -0.3256836, -43.5365868, 6.0975609, -4.7560978, -0.0238346
1.0288086, -0.1108398, -0.4453125, -46.2195129, 7.3170733, -4.0853658, -0.024506
1.0302734, -0.0986328, -0.4887695, -56.5853653, 8.841464, -2.2560976, -0.0285344
1.0205078, -0.0708008, -0.5361328, -63.7804909, 9.1463413, -1.5853659, -0.0271916
1.0141602, -0.0541992, -0.5419922, -80.3048782, 7.0121951, -0.0609756, -0.024506
0.9995117, -0.0297852, -0.5097656, -97.0731735, 2.0121951, 2.0731707, -0.0275273
0.9897461, -0.0185547, -0.4790039, -105.4878082, -0.6097561, 2.9878049, -0.0325628
0.984375, -0.0117188, -0.4189453, -120.6707382, -6.6463418, 5.3658538, -0.0305486
0.9770508, -0.0488281, -0.3583984, -127.9878082, -9.3902445, 6.5853658, -0.0298772
0.9785156, -0.0688477, -0.3305664, -141.0975647, -13.4146347, 9.6341467, -0.0271916
0.9794922, -0.1230469, -0.2792969, -147.1951294, -14.7560978, 11.5243902, -0.0238346
0.9814453, -0.1567383, -0.2548828, -159.2682953, -15.7926836, 15.3048782, -0.0258488
0.9907227, -0.2114258, -0.2036133, -164.146347, -15.6097565, 16.7682934, -0.0261845
0.9916992, -0.2426758, -0.1689453, -171.3414612, -14.6951227, 19.0853672, -0.0258488
0.9980469, -0.2866211, -0.1103516, -172.9268341, -14.0853662, 19.7560978, -0.0234989
0.9990234, -0.3076172, -0.0805664, -171.7073212, -13.7195129, 19.6951218, -0.0251774
0.9946289, -0.3408203, -0.0268555, -164.9390259, -14.2682934, 18.3536587, -0.0265202
0.9956055, -0.3579102, -0.0014648, -159.3902435, -14.9390249, 17.3170738, -0.0298772
0.996582, -0.3789062, 0.034668, -143.6585388, -16.280489, 15.3658543, -0.0288701
0.9951172, -0.3974609, 0.0498047, -133.1097565, -17.0731716, 14.5121956, -0.0271916
0.9975586, -0.4047852, 0.0444336, -110.2439041, -18.8414631, 13.780488, -0.0285344
1.0146484, -0.4194336, 0.0146484, -98.4146347, -20.1219521, 13.6585369, -0.0298772
1.0229492, -0.4194336, -0.0068359, -75.4878082, -21.5853672, 14.1463413, -0.0315557
1.0517578, -0.4208984, -0.0615234, -65.0609741, -21.7073174, 14.0853662, -0.0328985
1.0668945, -0.4160156, -0.0917969, -47.8658562, -21.5853672, 13.1707315, -0.0352483
1.0834961, -0.4008789, -0.1601562, -41.0365868, -21.0365868, 12.4390249, -0.0439765
1.097168, -0.3896484, -0.1870117, -31.341465, -19.8780499, 10.3048782, -0.0406195
1.109375, -0.3583984, -0.2373047, -25.5487804, -19.1463413, 7.8658538, -0.0412909
1.1054688, -0.3388672, -0.2646484, -24.2682934, -19.0853672, 6.890244, -0.0466621
1.0976562, -0.2861328, -0.3022461, -24.7560978, -19.6951218, 5.7926831, -0.0453193
1.0722656, -0.230957, -0.3256836, -26.5853672, -20, 5.670732, -0.0459907
1.0566406, -0.2050781, -0.3330078, -32.0121956, -20.060976, 7.6829271, -0.0476692
1.0268555, -0.1586914, -0.3359375, -35.0609779, -20.060976, 9.0853662, -0.0446479
1.0126953, -0.1347656, -0.3417969, -40.7926826, -21.0975609, 12.9268293, -0.0433051
0.9975586, -0.112793, -0.3530273, -43.7804871, -21.8902435, 15.1219511, -0.0473335
0.9951172, -0.1079102, -0.3642578, -50.6707344, -24.9390259, 19.939024, -0.0459907
0.9916992, -0.121582, -0.3911133, -54.8780518, -26.8902454, 22.1951218, -0.0412909
0.9931641, -0.137207, -0.4052734, -63.2317085, -31.0975609, 26.9512196, -0.0392767
1.0019531, -0.1704102, -0.4257812, -72.8048782, -34.6951218, 30.4878063, -0.0412909
1.0043945, -0.1938477, -0.4287109, -77.5609741, -36.4634171, 32.3780479, -0.0459907
1.0131836, -0.2373047, -0.4291992, -87.68293, -39.6341476, 35.8536606, -0.0399481
1.027832, -0.2880859, -0.4077148, -92.0731735, -41.2804871, 37.6829262, -0.0419623
1.034668, -0.309082, -0.3959961, -98.4146347, -44.1463432, 40.6707344, -0.0386053
1.0493164, -0.3564453, -0.362793, -100.2439041, -45.5487823, 42.4390259, -0.0379339
1.0595703, -0.3745117, -0.3549805, -102.1951218, -48.3536606, 45.3048782, -0.0386053
1.0810547, -0.4130859, -0.3168945, -102.5609818, -49.3902435, 46.9512215, -0.0352483
1.0849609, -0.421875, -0.2954102, -100.7926865, -50.5487823, 49.8780518, -0.0352483
1.0991211, -0.4418945, -0.2548828, -99.146347, -50.4878044, 50.9756126, -0.0339055
1.1079102, -0.4438477, -0.2348633, -92.8048782, -49.0243912, 53.4146347, -0.0339055
1.1235352, -0.4492188, -0.2021484, -81.4024429, -46.6463432, 54.5731735, -0.0386053
1.1254883, -0.4541016, -0.1972656, -73.5975647, -45.7926826, 54.5121956, -0.0339055
1.140625, -0.4672852, -0.2241211, -57.0121956, -44.7560997, 53.4756126, -0.0339055
1.15625, -0.480957, -0.2875977, -48.5365868, -44.8780479, 52.4390259, -0.0352483
1.1601562, -0.484375, -0.331543, -34.4512215, -45.1219521, 50.3048782, -0.0352483
1.1582031, -0.4887695, -0.421875, -28.7195129, -45.3658562, 50.0609779, -0.0339055
1.1601562, -0.4814453, -0.472168, -22.0121956, -44.5121956, 49.5121956, -0.03122
1.1391602, -0.4575195, -0.546875, -20.9146347, -43.4756126, 49.6951218, -0.0345769
1.1289062, -0.4384766, -0.5795898, -22.1951218, -41.0975609, 51.7073174, -0.0352483
1.1000977, -0.3857422, -0.6269531, -25.4268303, -39.5121956, 52.8658562, -0.0339055
1.0859375, -0.3540039, -0.6352539, -35.0609779, -36.341465, 56.1585388, -0.0345769
1.0507812, -0.3076172, -0.6342773, -46.2804871, -34.7560997, 60.9146347, -0.0332341
1.0327148, -0.2895508, -0.628418, -52.0121956, -35.5487823, 63.9634171, -0.0325628
1.0092773, -0.2729492, -0.6206055, -62.9878082, -40, 70.2439041, -0.0365911
1.0087891, -0.265625, -0.6064453, -68.7804871, -43.5365868, 73.5975647, -0.0379339
1.0161133, -0.269043, -0.5966797, -81.5853653, -50.3048782, 79.6951218, -0.0412909
1.0292969, -0.2841797, -0.5581055, -88.0487823, -53.4146347, 82.1341476, -0.0419623
1.0361328, -0.2885742, -0.5302734, -100.4268341, -57.68293, 86.5853653, -0.0453193
1.0478516, -0.3183594, -0.4765625, -106.4634171, -60, 88.4146347, -0.0473335
1.0561523, -0.3383789, -0.4428711, -115.6707306, -63.4756126, 91.9512253, -0.0459907
1.0668945, -0.3857422, -0.3852539, -118.9024429, -65.18293, 92.9878082, -0.0500191
1.0688477, -0.409668, -0.3564453, -123.8414688, -67.7439041, 95.1219559, -0.0500191
1.0727539, -0.4584961, -0.2919922, -123.1097565, -69.0853653, 97.0731735, -0.0473335
1.0751953, -0.4819336, -0.2617188, -119.6951218, -69.0853653, 97.8048782, -0.0503548
1.0839844, -0.5224609, -0.2202148, -106.4634171, -69.6341476, 97.9878082, -0.0513619
1.097168, -0.5400391, -0.2006836, -97.7439041, -70.2439041, 97.4390259, -0.0506905
1.0981445, -0.5429688, -0.199707, -78.0487823, -72.0121994, 95.7926865, -0.0540475
1.1040039, -0.5463867, -0.2089844, -68.2317123, -73.2926865, 94.3902435, -0.0513619
1.1040039, -0.5488281, -0.2246094, -49.8780518, -76.1585388, 91.1585388, -0.0513619
1.1132812, -0.5493164, -0.2675781, -41.4634171, -77.0731735, 89.6341476, -0.0473335
1.1166992, -0.5527344, -0.2973633, -26.5853672, -77.0121994, 87.0121994, -0.0473335
1.1210938, -0.5576172, -0.3676758, -20.2439022, -75.7317123, 85.4878082, -0.0486763
1.1186523, -0.5600586, -0.4140625, -9.9390249, -73.1707306, 82.8658524, -0.0493477
1.1005859, -0.5498047, -0.4975586, -4.1463413, -70.9756088, 80.7317123, -0.0480049
1.0864258, -0.5361328, -0.53125, -4.1463413, -70.8536606, 80.1219559, -0.0493477
1.050293, -0.4946289, -0.5717773, -7.7439027, -71.5853653, 79.0853653, -0.049012
1.0083008, -0.4428711, -0.5766602, -10.7317076, -72.5609741, 79.3902435, -0.0520333
0.9902344, -0.425293, -0.5766602, -18.780489, -74.7560959, 80.9146347, -0.0500191
0.9584961, -0.4057617, -0.5717773, -23.3536587, -76.2195129, 82.3170776, -0.0473335
0.9482422, -0.3999023, -0.5683594, -32.9268303, -79.3902435, 85.1219559, -0.0459907
0.9301758, -0.409668, -0.5649414, -38.2317085, -81.0365906, 86.4634171, -0.0473335
0.9296875, -0.4223633, -0.5556641, -49.1463432, -84.7560959, 90.1219559, -0.0433051
0.9272461, -0.4511719, -0.5322266, -54.6951218, -86.5243912, 91.8902435, -0.042298
0.9311523, -0.4648438, -0.5141602, -64.5121994, -90.7317123, 94.6951218, -0.0433051
0.9360352, -0.4926758, -0.4638672, -70.9756088, -94.5731735, 96.4024429, -0.0406195
0.9477539, -0.5161133, -0.4077148, -72.3780518, -95.9756088, 96.8902435, -0.0399481
0.9506836, -0.5268555, -0.3847656, -70.9756088, -98.3536606, 97.1951218, -0.0433051
0.9663086, -0.5424805, -0.3535156, -68.8414688, -99.2073212, 97.3170776, -0.0466621
0.9672852, -0.5541992, -0.340332, -63.2317085, -101.646347, 97.5609741, -0.0449836
0.984375, -0.5668945, -0.3291016, -59.5731735, -102.8658524, 97.5609741, -0.0419623
0.9887695, -0.5712891, -0.3261719, -53.2926826, -105.3658524, 96.5243912, -0.0439765
1, -0.5825195, -0.3222656, -50.1219521, -106.2804871, 96.2804871, -0.0473335
1.0029297, -0.5805664, -0.3183594, -44.2073174, -108.1097565, 94.5121994, -0.0446479
1.0092773, -0.5888672, -0.3203125, -36.4634171, -109.2682953, 91.8902435, -0.0412909
1.0097656, -0.5917969, -0.3300781, -31.9512196, -109.5121994, 90.18293, -0.0412909
1.0043945, -0.597168, -0.3623047, -22.1341476, -110.5487823, 87.68293, -0.0446479
0.9956055, -0.5913086, -0.4008789, -17.9878044, -111.646347, 86.7073212, -0.0453193
0.9892578, -0.5795898, -0.4155273, -11.280488, -114.146347, 86.2804871, -0.0412909
0.9794922, -0.5429688, -0.4379883, -8.6585369, -115.36586, 86.646347, -0.0466621
0.9746094, -0.5195312, -0.4404297, -4.8170733, -115.9146347, 87.9878082, -0.0480049
0.9716797, -0.4755859, -0.4526367, -3.0487804, -115.7926865, 89.2073212, -0.0449836
0.9726562, -0.4609375, -0.4628906, 0.6707317, -114.2073212, 91.2195129, -0.0446479
0.980957, -0.4482422, -0.5092773, 2.1341465, -113.4756088, 92.1341476, -0.0466621
0.9858398, -0.4477539, -0.534668, 3.5975611, -113.4146347, 93.5365906, -0.0459907
1.0004883, -0.4555664, -0.59375, 2.195122, -114.146347, 95.4268341, -0.0493477
1.0083008, -0.4638672, -0.6030273, 0.9146342, -116.4634171, 95.9756088, -0.0466621
1.0366211, -0.4682617, -0.6391602, -2.5609756, -121.5853653, 95, -0.0473335
1.0429688, -0.4677734, -0.6665039, -3.9024391, -120.6097565, 94.4512253, -0.0473335
1.0454102, -0.4682617, -0.6538086, -5, -114.0243912, 94.8170776, -0.0459907
1.0371094, -0.4711914, -0.6640625, -3.3536587, -109.8170776, 95.4878082, -0.0459907
1.0288086, -0.480957, -0.6879883, -2.9268293, -103.6585388, 98.2317123, -0.0473335
1.019043, -0.4838867, -0.7373047, -4.9390244, -103.1097565, 100.0609818, -0.0533761
1.0170898, -0.4863281, -0.7514648, -13.3536587, -105.7317123, 104.6341476, -0.0513619
1.0141602, -0.4912109, -0.7519531, -19.1463413, -108.2926865, 107.2561035, -0.0486763
1.0151367, -0.4956055, -0.7382812, -31.4024391, -112.86586, 112.5609818, -0.0446479
1.0239258, -0.5078125, -0.7006836, -39.8170738, -114.2073212, 117.8048782, -0.0446479
1.0361328, -0.5180664, -0.6787109, -42.1951218, -113.5365906, 120.36586, -0.0426337
1.0610352, -0.5371094, -0.6289062, -42.0731735, -110.9146347, 124.7561035, -0.0379339
1.0898438, -0.5576172, -0.6230469, -40.7317085, -109.6341476, 126.4634171, -0.0392767
1.1049805, -0.5678711, -0.6298828, -39.2073174, -109.8170776, 128.5975647, -0.0345769
1.1401367, -0.5791016, -0.6308594, -38.841465, -111.2804871, 128.9024353, -0.0325628
1.1547852, -0.5820312, -0.6298828, -38.0487823, -115.2439041, 128.4756165, -0.0328985
1.1713867, -0.5893555, -0.6269531, -37.0731697, -116.2804871, 128.0487823, -0.0345769
1.1743164, -0.5986328, -0.6337891, -33.7195129, -116.2195129, 126.1585388, -0.0318914
1.1806641, -0.6225586, -0.6523438, -31.280489, -115.4878082, 125.2439041, -0.0292058
1.1811523, -0.6342773, -0.6640625, -26.4634151, -112.7439041, 123.7804871, -0.03122
1.1713867, -0.6479492, -0.6889648, -19.939024, -110.36586, 123.1097565, -0.0325628
1.1635742, -0.6523438, -0.7060547, -16.280489, -109.4512253, 123.0487823, -0.0318914
1.1552734, -0.6542969, -0.7470703, -9.1463413, -109.3902435, 122.5, -0.035584
1.1357422, -0.6469727, -0.7944336, -7.5, -110.7926865, 122.3170776, -0.0359197
1.1254883, -0.637207, -0.8120117, -10.3048782, -115.4878082, 122.86586, -0.0332341
1.1108398, -0.6230469, -0.815918, -14.4512196, -117.9268341, 123.8414688, -0.0335698
1.1049805, -0.6176758, -0.8046875, -23.5975609, -121.4024429, 126.8292694, -0.0386053
1.097168, -0.6044922, -0.7675781, -27.0121956, -121.9512253, 129.0243988, -0.0379339
1.0917969, -0.605957, -0.7524414, -29.4512196, -120.6097565, 133.0487823, -0.0328985
1.0908203, -0.6166992, -0.7446289, -28.1097565, -119.6951218, 135, -0.0359197
1.0878906, -0.6274414, -0.753418, -25, -119.7561035, 137.9268341, -0.0365911
1.0957031, -0.6489258, -0.7807617, -25.1219521, -123.4146347, 139.6951294, -0.0325628
1.1005859, -0.6572266, -0.7875977, -26.4024391, -125.18293, 140.4878082, -0.0382696
1.1025391, -0.6704102, -0.7817383, -28.4146347, -128.2317047, 141.0975647, -0.0386053
1.0996094, -0.675293, -0.762207, -28.7195129, -128.5975647, 141.0365906, -0.0399481
1.0976562, -0.6694336, -0.746582, -28.2317085, -129.0853729, 141.4024353, -0.0392767
1.0751953, -0.6630859, -0.7172852, -27.3170738, -129.5731812, 141.4024353, -0.0379339
1.0654297, -0.6625977, -0.706543, -24.6951218, -130.9146423, 141.7682953, -0.0392767
1.0566406, -0.6733398, -0.7133789, -22.439024, -131.9512177, 141.9512177, -0.0379339
1.0556641, -0.6826172, -0.7333984, -16.7682934, -133.9634247, 141.7073212, -0.0379339
1.0493164, -0.7143555, -0.7851562, -14.5731707, -135.3048859, 141.7682953, -0.0399481
1.0458984, -0.7246094, -0.8095703, -11.8902445, -137.7439117, 142.1951294, -0.0406195
1.0380859, -0.7416992, -0.84375, -13.3536587, -140.2439117, 143.5975647, -0.0406195
1.0297852, -0.7431641, -0.8466797, -14.1463413, -141.2195129, 144.6341553, -0.0386053
1.019043, -0.7353516, -0.8344727, -16.5853653, -143.2926788, 146.7682953, -0.0419623
1.0014648, -0.7143555, -0.7929688, -17.3170738, -144.4512177, 147.7439117, -0.0433051
0.9970703, -0.7045898, -0.7797852, -16.8292694, -146.3414612, 149.2682953, -0.0433051
0.987793, -0.7041016, -0.7714844, -15.4878054, -147.1951294, 149.5731812, -0.0433051
0.9887695, -0.7124023, -0.7832031, -10.2439022, -147.6219482, 149.7561035, -0.0473335
0.9882812, -0.7319336, -0.8378906, -7.1951222, -147.4390259, 149.6341553, -0.0459907
0.9858398, -0.7441406, -0.875, -0.7317073, -146.2195129, 148.6585388, -0.0433051
0.9804688, -0.7558594, -0.9130859, 1.097561, -146.1585388, 148.3536682, -0.0459907
0.972168, -0.7563477, -0.9306641, 3.6585367, -144.3902435, 147.4390259, -0.0500191
0.9453125, -0.75, -0.9736328, 0.6707317, -144.7561035, 147.7439117, -0.0480049
0.9248047, -0.7363281, -0.9775391, -2.5609756, -146.4024353, 148.3536682, -0.049012
0.875, -0.7109375, -0.9536133, -11.0975609, -152.0121918, 150.1829376, -0.0486763
0.8447266, -0.6845703, -0.8959961, -15.4268293, -155.36586, 151.646347, -0.0466621
0.8374023, -0.6811523, -0.8666992, -21.0975609, -160.8536682, 155.1219482, -0.0463264
0.8291016, -0.6992188, -0.8188477, -21.9512196, -162.1341553, 156.1585388, -0.0426337
0.8291016, -0.7246094, -0.8164062, -19.2682934, -161.2195129, 158.2317047, -0.0433051
0.8393555, -0.7797852, -0.8637695, -17.0731716, -160.9756165, 159.2073212, -0.0433051
0.8481445, -0.8032227, -0.8896484, -13.1097565, -160.4878082, 160.1829376, -0.0433051
0.8427734, -0.8320312, -0.9301758, -12.2560978, -160.1219482, 160.3048859, -0.0433051
0.8408203, -0.8374023, -0.9355469, -9.6951218, -159.8170776, 160.6097565, -0.0466621
0.8208008, -0.8256836, -0.9453125, -5, -159.2073212, 160, -0.0463264
0.8120117, -0.8144531, -0.956543, -2.804878, -159.2682953, 159.9390259, -0.0446479
0.7890625, -0.7861328, -0.9643555, -1.8902439, -162.1341553, 160.0609741, -0.0439765
0.762207, -0.7607422, -0.9506836, -3.5975611, -164.4512177, 160.5487823, -0.0459907
0.7597656, -0.7612305, -0.949707, -8.9634151, -169.4512177, 161.4024353, -0.0486763
0.75, -0.7573242, -0.9326172, -12.4390249, -171.7682953, 161.646347, -0.0500191
0.7485352, -0.7607422, -0.9257812, -17.1341476, -173.7804871, 161.1585388, -0.0486763
0.7333984, -0.7827148, -0.9135742, -18.2926826, -174.3292694, 161.0365906, -0.0486763
0.7265625, -0.7958984, -0.9140625, -17.3170738, -173.7804871, 161.0975647, -0.0476692
0.7143555, -0.8227539, -0.925293, -14.9390249, -172.86586, 160.9756165, -0.0486763
0.7070312, -0.8295898, -0.9399414, -10.1829271, -172.5, 161.1585388, -0.0486763
0.6889648, -0.8378906, -0.9521484, -10.3658543, -174.4512177, 161.3414612, -0.0513619
0.6796875, -0.8330078, -0.949707, -12.3170738, -176.7682953, 160.8536682, -0.0520333
0.6557617, -0.815918, -0.9179688, -16.0975609, -180.2439117, 160, -0.0547189
0.6269531, -0.7988281, -0.8725586, -17.0121956, -181.1585388, 159.8170776, -0.0540475
0.6157227, -0.793457, -0.8530273, -14.9390249, -180.8536682, 159.8780518, -0.0500191
0.5908203, -0.8017578, -0.8442383, -11.8292685, -179.8780518, 160.1829376, -0.0503548
0.5805664, -0.8115234, -0.8569336, -3.5365853, -176.646347, 161.2195129, -0.0513619
0.5654297, -0.8305664, -0.9072266, 0, -175.4268341, 162.0731812, -0.0520333
0.5629883, -0.8344727, -0.9345703, 2.7439024, -175.7926941, 163.4146423, -0.0486763
0.5439453, -0.8242188, -0.9550781, 1.5243902, -177.0731812, 163.3536682, -0.0513619
0.5327148, -0.8134766, -0.9443359, -4.390244, -181.7682953, 163.6585388, -0.0540475
0.5043945, -0.7871094, -0.8881836, -11.219512, -187.6829376, 163.7195129, -0.0557259
0.4921875, -0.7773438, -0.8569336, -13.3536587, -189.5731812, 163.5975647, -0.056733
0.4799805, -0.7670898, -0.8037109, -12.1341467, -190.5487823, 163.8414612, -0.0540475
0.4726562, -0.7744141, -0.784668, -8.780488, -189.4512177, 163.2926941, -0.0540475
0.4667969, -0.7783203, -0.796875, -0.6097561, -186.2804871, 163.0487823, -0.0513619
0.4570312, -0.7954102, -0.8349609, 2.5609756, -184.5731812, 162.6829376, -0.056733
0.4492188, -0.7993164, -0.8535156, 4.2073174, -183.7804871, 162.5, -0.0547189
0.425293, -0.7827148, -0.8242188, 3.1707318, -184.0853729, 162.3170776, -0.056733
0.4267578, -0.7749023, -0.8178711, 2.8658538, -189.146347, 162.0121918, -0.0594186
0.4179688, -0.7773438, -0.8129883, 3.0487804, -191.7073212, 161.5853729, -0.0553902
0.4130859, -0.784668, -0.8208008, 2.9268293, -193.4756165, 159.5731812, -0.0540475
0.4091797, -0.7924805, -0.8330078, 0.7317073, -192.6829376, 158.5975647, -0.0553902
0.3989258, -0.7954102, -0.8286133, -1.1585366, -191.2804871, 158.2926941, -0.0560616
0.3828125, -0.7817383, -0.7929688, -3.7195122, -188.0487823, 156.7682953, -0.0513619
0.359375, -0.7578125, -0.7412109, -3.6585367, -186.2195129, 155.7317047, -0.0500191
0.3496094, -0.7451172, -0.7207031, -0.3658537, -183.4756165, 153.8414612, -0.0513619
0.3188477, -0.7319336, -0.690918, 2.4390244, -182.9878082, 152.9878082, -0.0513619
0.3051758, -0.7226562, -0.6865234, 7.7439027, -183.5365906, 151.4024353, -0.0533761
0.2890625, -0.7192383, -0.7021484, 10.2439022, -183.9634247, 150.8536682, -0.0527047
0.2802734, -0.7260742, -0.7172852, 14.0853662, -184.6341553, 150.2439117, -0.0533761
0.2661133, -0.7314453, -0.7514648, 15.2439032, -184.2073212, 150.1829376, -0.0540475
0.2568359, -0.730957, -0.7641602, 14.0243902, -183.4146423, 150.9756165, -0.0506905
0.2480469, -0.7163086, -0.7636719, 9.6951218, -182.9268341, 152.3780518, -0.0513619
0.2412109, -0.7075195, -0.7524414, 7.9878049, -182.1951294, 152.6829376, -0.0513619
0.2382812, -0.7036133, -0.7192383, 8.9024391, -183.1097565, 153.0487823, -0.0513619
0.2416992, -0.7138672, -0.7319336, 10.2439022, -183.1097565, 152.3780518, -0.0480049
0.2421875, -0.7246094, -0.7524414, 14.0853662, -180.9756165, 151.9512177, -0.0449836
0.2421875, -0.7270508, -0.7773438, 14.1463413, -179.6951294, 151.646347, -0.0446479
0.2353516, -0.715332, -0.7788086, 10.2439022, -178.4146423, 152.1341553, -0.0412909
0.2299805, -0.6938477, -0.7504883, 6.9512196, -178.1707306, 152.1951294, -0.0382696
0.2314453, -0.6865234, -0.730957, 1.7682927, -177.2561035, 151.7073212, -0.0379339
0.2329102, -0.6889648, -0.7011719, 0.8536586, -176.1585388, 151.4634247, -0.0386053
0.2294922, -0.6938477, -0.6923828, 1.5853659, -174.3902435, 151.3414612, -0.0419623
0.2387695, -0.6894531, -0.6743164, 5.609756, -172.0731812, 151.0365906, -0.0453193
0.2407227, -0.6821289, -0.668457, 7.8048782, -170.9756165, 150.6097565, -0.0439765
0.2373047, -0.6586914, -0.6567383, 9.8780489, -169.4512177, 149.2682953, -0.0406195
0.2338867, -0.6333008, -0.6401367, 10.3048782, -169.0853729, 148.5365906, -0.0379339
0.2358398, -0.6181641, -0.6298828, 8.780488, -168.1097565, 147.1951294, -0.0345769
0.234375, -0.5917969, -0.6020508, 7.8048782, -167.1951294, 145.9146423, -0.0406195
0.2299805, -0.5766602, -0.5849609, 7.1951222, -164.4512177, 143.1707306, -0.0396124
0.2163086, -0.5605469, -0.565918, 7.3780489, -162.6829376, 141.5243988, -0.0379339
0.2084961, -0.5576172, -0.5610352, 8.719512, -159.0243988, 138.6585388, -0.0406195
0.1943359, -0.5600586, -0.5678711, 9.2073174, -157.86586, 137.1951294, -0.0433051
0.1860352, -0.565918, -0.5732422, 11.0975609, -155.2439117, 135.7926788, -0.0473335
0.1708984, -0.5688477, -0.5917969, 13.1707315, -152.3780518, 134.146347, -0.0446479
0.1591797, -0.5678711, -0.6054688, 14.0243902, -151.2195129, 134.0243988, -0.0419623
0.1381836, -0.5708008, -0.628418, 15, -149.0853729, 134.0243988, -0.0446479
0.1303711, -0.5703125, -0.6547852, 15.1829271, -147.86586, 134.146347, -0.0399481
0.1230469, -0.5673828, -0.6689453, 13.1097565, -146.5243988, 135.1219482, -0.0392767
0.1123047, -0.5463867, -0.6723633, 10.3658543, -146.2804871, 135.7317047, -0.0369268
0.105957, -0.5361328, -0.6601562, 3.7804878, -146.5853729, 136.4634247, -0.0436408
0.1010742, -0.5112305, -0.6245117, 0.3658537, -146.9512177, 136.4634247, -0.0419623
0.1010742, -0.503418, -0.6049805, -3.4146342, -146.7682953, 135.0609741, -0.0365911
0.0864258, -0.5063477, -0.590332, -3.9024391, -146.5243988, 134.5731812, -0.0379339
0.0869141, -0.515625, -0.5908203, -1.8292683, -145.0609741, 134.3902435, -0.0372625
0.0869141, -0.5463867, -0.609375, 1.0365853, -142.5609741, 135.3048859, -0.0345769
0.0893555, -0.5654297, -0.6450195, 2.5, -140.7926788, 136.0975647, -0.0379339
0.0947266, -0.5664062, -0.6547852, 3.2317073, -136.5243988, 136.7682953, -0.0365911
0.097168, -0.5493164, -0.6552734, 1.7073171, -135.1219482, 137.0731812, -0.0332341
0.0961914, -0.5307617, -0.6391602, -3.9024391, -134.5121918, 136.0975647, -0.0328985
0.0913086, -0.480957, -0.5771484, -7.3780489, -135.0609741, 134.6341553, -0.0352483
0.0839844, -0.456543, -0.5361328, -12.9878054, -137.0121918, 130.5487823, -0.035584
0.0698242, -0.440918, -0.4775391, -14.5731707, -138.2317047, 128.0487823, -0.0339055
0.0644531, -0.4355469, -0.4594727, -14.6951227, -139.2073212, 123.4146347, -0.03122
0.0507812, -0.4448242, -0.4414062, -10.9146347, -138.1097565, 120.0609818, -0.03122
0.0458984, -0.4526367, -0.4428711, -8.2317076, -136.5853729, 119.0243912, -0.0352483
0.034668, -0.4711914, -0.4584961, -3.3536587, -131.7682953, 117.0121994, -0.0352483
0.0136719, -0.4970703, -0.4863281, -0.7317073, -128.9634247, 116.646347, -0.0275273
0.0024414, -0.5053711, -0.5073242, 2.804878, -123.2926865, 115.9146347, -0.0285344
-0.0185547, -0.5205078, -0.5439453, 3.4146342, -120.7926865, 115.6707306, -0.0325628
-0.0307617, -0.515625, -0.5473633, 3.0487804, -118.1707382, 115.4878082, -0.0305486
-0.0473633, -0.4926758, -0.543457, 1.8902439, -117.8048782, 115.1219559, -0.0271916
-0.0620117, -0.4833984, -0.5327148, 1.2804878, -117.7439041, 113.2926865, -0.0251774
-0.0869141, -0.4697266, -0.5273438, 1.6463414, -117.5609818, 112.3170776, -0.0258488
-0.0966797, -0.4760742, -0.5380859, 3.7195122, -117.1341476, 111.5243912, -0.0258488
-0.1088867, -0.4951172, -0.5722656, 5.7317076, -117.7439041, 111.5243912, -0.0292058
-0.1118164, -0.5097656, -0.5942383, 6.2195125, -117.86586, 112.0731735, -0.0271916
-0.1064453, -0.5258789, -0.6435547, 5.3048782, -116.8902435, 113.5365906, -0.0325628
-0.1123047, -0.5322266, -0.6699219, 3.3536587, -116.8902435, 114.146347, -0.0409552
-0.112793, -0.5224609, -0.6665039, -2.9878049, -118.7804871, 115.36586, -0.0436408
-0.1020508, -0.4902344, -0.6308594, -6.1585369, -120.0609818, 115.5487823, -0.0406195
-0.0961914, -0.4829102, -0.6132812, -9.2682924, -120.9146347, 114.6341476, -0.0419623
-0.09375, -0.4814453, -0.605957, -8.780488, -120.3048782, 113.9634171, -0.0459907
-0.0888672, -0.4887695, -0.6186523, -6.3414636, -117.6219559, 112.9268341, -0.0433051
-0.0756836, -0.5087891, -0.6484375, -6.1585369, -116.0365906, 112.6219559, -0.0446479
-0.0703125, -0.5112305, -0.6611328, -8.5975609, -113.2317123, 111.7073212, -0.0459907
-0.0576172, -0.5068359, -0.6538086, -16.5243912, -110.6097565, 107.6219559, -0.0473335
-0.0566406, -0.4946289, -0.6289062, -20.8536587, -109.0243912, 104.3292694, -0.0486763
-0.0693359, -0.4711914, -0.5683594, -25.7926826, -105.7926865, 96.1585388, -0.0513619
-0.0986328, -0.4614258, -0.5205078, -26.7073174, -104.2682953, 91.1585388, -0.0513619
-0.1181641, -0.4707031, -0.5092773, -25.8536587, -101.4024429, 83.1707306, -0.0500191
-0.1586914, -0.4990234, -0.5131836, -24.8170738, -100.4268341, 80.2439041, -0.0530404
-0.1767578, -0.5229492, -0.5229492, -22.0121956, -97.8658524, 77.1341476, -0.0553902
-0.1933594, -0.5668945, -0.5537109, -19.7560978, -95.9146347, 76.646347, -0.0574044
-0.2075195, -0.5795898, -0.5708008, -16.1585369, -90.6707306, 76.4634171, -0.0540475
-0.2373047, -0.5917969, -0.6010742, -14.7560978, -87.68293, 76.646347, -0.0513619
-0.2509766, -0.5932617, -0.6064453, -12.9878054, -82.6219559, 77.0731735, -0.0486763
-0.2861328, -0.5722656, -0.6098633, -13.1707315, -81.8292694, 77.68293, -0.0520333
-0.3017578, -0.5546875, -0.6044922, -14.6341467, -82.5, 78.0487823, -0.0527047
-0.3193359, -0.5180664, -0.5800781, -18.1707325, -86.2195129, 77.8048782, -0.0520333
-0.3383789, -0.4853516, -0.5532227, -20.3048782, -88.3536606, 77.1951218, -0.0520333
-0.3476562, -0.4741211, -0.5375977, -24.5731716, -92.1341476, 76.5853653, -0.0513619
-0.3525391, -0.4643555, -0.5136719, -25.4878063, -92.7439041, 75.8536606, -0.0459907
-0.362793, -0.4711914, -0.5107422, -23.6585369, -90.6707306, 75.4878082, -0.0459907
-0.3803711, -0.4985352, -0.5454102, -20.8536587, -87.7439041, 75.8536606, -0.0463264
-0.3823242, -0.5151367, -0.5756836, -15.6097565, -82.5, 79.6951218, -0.0466621
-0.3837891, -0.5473633, -0.6362305, -14.2073174, -80.6707306, 82.4390259, -0.0419623
-0.3789062, -0.559082, -0.6601562, -15.9146347, -78.7804871, 87.68293, -0.0446479
-0.3623047, -0.5478516, -0.6801758, -24.7560978, -80.0609741, 90, -0.0433051
-0.3540039, -0.5292969, -0.6674805, -31.341465, -82.3170776, 89.2682953, -0.0386053
-0.3525391, -0.4746094, -0.5917969, -46.1585388, -89.0853653, 84.7560959, -0.0399481
-0.3554688, -0.4140625, -0.4921875, -52.9268303, -92.8658524, 80.9146347, -0.042298
-0.3579102, -0.3916016, -0.4423828, -64.0243912, -100.0609818, 71.7682953, -0.0352483
-0.3774414, -0.371582, -0.3588867, -67.1341476, -102.68293, 67.4390259, -0.042298
-0.3925781, -0.3696289, -0.3261719, -69.3292694, -105.0609818, 61.4634171, -0.0433051
-0.4199219, -0.3823242, -0.2807617, -68.1097565, -104.4512253, 59.5731735, -0.0406195
-0.434082, -0.3935547, -0.2670898, -61.341465, -99.0243912, 58.3536606, -0.0352483
-0.4575195, -0.4160156, -0.2666016, -56.2195129, -94.5121994, 59.1463432, -0.0379339
-0.4750977, -0.4204102, -0.2714844, -46.5243912, -86.2804871, 61.4634171, -0.0446479
-0.4936523, -0.4155273, -0.2817383, -40.8536606, -82.1951218, 64.5731735, -0.0433051
-0.5029297, -0.4111328, -0.284668, -40.1829262, -82.1951218, 65, -0.0493477
-0.5273438, -0.3955078, -0.2788086, -42.3170738, -84.6341476, 64.3292694, -0.0486763
-0.5390625, -0.3862305, -0.265625, -42.9878044, -86.7073212, 63.7195129, -0.0513619
-0.5541992, -0.3847656, -0.2573242, -41.6463432, -89.3902435, 62.4390259, -0.0527047
-0.5771484, -0.3725586, -0.2470703, -39.5121956, -90.18293, 62.6219521, -0.0527047
-0.5864258, -0.3710938, -0.2451172, -32.9878044, -90.8536606, 64.6951218, -0.0473335
-0.6054688, -0.3515625, -0.2436523, -29.0853672, -90.9146347, 66.5243912, -0.0493477
-0.6083984, -0.3461914, -0.2490234, -20.6707325, -90.0609741, 71.5853653, -0.0540475
-0.6035156, -0.3310547, -0.2705078, -17.0731716, -89.6951218, 74.7560959, -0.0500191
-0.5961914, -0.3261719, -0.2871094, -11.6463413, -88.3536606, 81.5243912, -0.0500191
-0.5683594, -0.3100586, -0.3188477, -9.3902445, -87.3170776, 87.1341476, -0.0527047
-0.5541992, -0.3007812, -0.3325195, -9.6341467, -86.9512253, 89.3902435, -0.0527047
-0.5209961, -0.2929688, -0.3623047, -12.1951218, -86.646347, 91.9512253, -0.0459907
-0.4765625, -0.2900391, -0.3876953, -14.1463413, -86.3414688, 92.3170776, -0.0459907
-0.4589844, -0.296875, -0.4003906, -17.6829281, -84.8780518, 91.8902435, -0.0419623
-0.4243164, -0.3071289, -0.4321289, -19.6951218, -83.6585388, 91.1585388, -0.0433051
-0.4121094, -0.309082, -0.4472656, -26.0365868, -81.4024429, 88.7804871, -0.0433051
-0.3896484, -0.2915039, -0.4516602, -30.6707325, -81.2195129, 87.0121994, -0.0493477
-0.3798828, -0.2651367, -0.4360352, -44.5121956, -83.1097565, 81.2804871, -0.0520333
-0.3676758, -0.2167969, -0.3759766, -51.9512215, -84.0853653, 77.2560959, -0.0433051
-0.3652344, -0.1987305, -0.340332, -65.4878082, -83.7804871, 68.2317123, -0.0386053
-0.3847656, -0.1640625, -0.2705078, -74.9390259, -80.18293, 58.9024391, -0.0365911
-0.3891602, -0.1582031, -0.237793, -77.1341476, -77.4390259, 54.5731735, -0.0379339
-0.4169922, -0.1660156, -0.1933594, -76.8902435, -69.5731735, 47.5, -0.0392767
-0.4414062, -0.1958008, -0.1821289, -74.6951218, -64.9390259, 44.6341476, -0.0409552
-0.4575195, -0.2119141, -0.1884766, -71.0365906, -57.8048782, 41.0975609, -0.0379339
-0.4863281, -0.2397461, -0.203125, -70.0609741, -56.0365868, 39.8780479, -0.0325628
-0.4956055, -0.2480469, -0.2006836, -71.5243912, -55.3658562, 37.1951218, -0.0275273
-0.5209961, -0.2539062, -0.1875, -72.8048782, -55.1219521, 35.9146347, -0.027863
-0.5361328, -0.2568359, -0.1796875, -72.9878082, -52.6219521, 32.6219521, -0.0271916
-0.5712891, -0.2695312, -0.1591797, -71.4634171, -49.8170738, 31.5243912, -0.0238346
-0.5839844, -0.2753906, -0.1523438, -64.2682953, -43.7195129, 30.7926846, -0.0258488
-0.6137695, -0.2871094, -0.15625, -54.1463432, -39.0243912, 32.3170738, -0.0292058
-0.625, -0.2900391, -0.1611328, -49.5731735, -38.2317085, 33.7804871, -0.0285344
-0.6367188, -0.2924805, -0.1748047, -42.5609779, -38.6585388, 36.5853653, -0.0298772
-0.6323242, -0.2734375, -0.1743164, -39.9390259, -39.3292694, 37.7439041, -0.0339055
-0.6259766, -0.2641602, -0.1708984, -35.6097565, -39.3902435, 38.7804871, -0.0318914
-0.6113281, -0.2431641, -0.171875, -33.4756088, -38.0487823, 38.7195129, -0.0339055
-0.5981445, -0.2373047, -0.1791992, -28.5365868, -33.7195129, 37.7439041, -0.0325628
-0.5859375, -0.2387695, -0.2099609, -25.8536587, -31.0365868, 37.5609779, -0.0298772
-0.5791016, -0.2475586, -0.2270508, -20.6707325, -25.5487804, 38.1707344, -0.0315557
-0.5546875, -0.2568359, -0.265625, -18.7195129, -23.4146347, 38.841465, -0.0365911
-0.5395508, -0.2553711, -0.2900391, -17.439024, -20.5487804, 38.7195129, -0.0372625
-0.5136719, -0.2456055, -0.3134766, -20.9146347, -17.8658543, 36.6463432, -0.0392767
-0.5024414, -0.2402344, -0.3217773, -23.6585369, -16.4024391, 35.0609779, -0.0392767
-0.487793, -0.2148438, -0.3266602, -29.6951218, -11.4634151, 30, -0.0419623
-0.4882812, -0.1962891, -0.3208008, -32.6219521, -8.3536587, 27.0121956, -0.0406195
-0.4887695, -0.1850586, -0.3129883, -38.9634171, -2.6829269, 21.0365868, -0.042298
-0.5004883, -0.1679688, -0.3037109, -42.1341476, -0.1219512, 17.1951218, -0.0359197
-0.5097656, -0.1606445, -0.2978516, -48.9634171, 2.6829269, 10.3048782, -0.0359197
-0.5380859, -0.1499023, -0.2739258, -53.0487823, 2.3780489, 7.1951222, -0.0412909
-0.5483398, -0.1411133, -0.2651367, -62.4390259, -0.6097561, 0.6097561, -0.0419623
-0.5698242, -0.1337891, -0.2285156, -67.68293, -2.5, -3.1097562, -0.0406195
-0.5732422, -0.1455078, -0.2133789, -75.7317123, -3.8414636, -10.6707315, -0.0433051
-0.5991211, -0.168457, -0.1923828, -80.18293, -1.2195122, -16.5243912, -0.0446479
-0.6088867, -0.1923828, -0.1850586, -81.2195129, 0.6097561, -18.5365849, -0.0449836
-0.6401367, -0.2211914, -0.1669922, -83.2926865, 3.0487804, -21.0975609, -0.0473335
-0.6679688, -0.2363281, -0.1333008, -84.2682953, 2.804878, -22.1951218, -0.0459907
-0.6787109, -0.2456055, -0.1103516, -85.4268341, 1.5853659, -24.9390259, -0.0473335
-0.6958008, -0.2553711, -0.0634766, -84.6341476, 1.3414634, -26.2195129, -0.0473335
-0.7050781, -0.2641602, -0.043457, -80, 1.2804878, -29.2073174, -0.0473335
-0.7231445, -0.2841797, -0.0170898, -76.2195129, 1.7682927, -30.2439022, -0.0449836
-0.730957, -0.2910156, -0.0063477, -67.3170776, 2.2560976, -30.7926846, -0.0459907
-0.7397461, -0.3076172, 0.0126953, -62.9268303, 2.5609756, -30.4268303, -0.0433051
-0.7368164, -0.315918, 0.0195312, -53.1707344, 3.4756098, -30.1219521, -0.0396124
-0.7216797, -0.331543, 0.0195312, -42.6829262, 6.280488, -28.5365868, -0.0379339
-0.7177734, -0.3354492, 0.0258789, -37.0121956, 8.719512, -27.8658543, -0.0382696
-0.7036133, -0.3398438, 0.0209961, -24.9390259, 15.1219511, -26.3414631, -0.0412909
-0.6806641, -0.3276367, 0.0185547, -18.9024391, 18.7195129, -25.7926826, -0.0406195
-0.671875, -0.3237305, 0.0087891, -5.9146342, 26.9512196, -24.5731716, -0.0399481
-0.6591797, -0.3100586, -0.0175781, 0.4878049, 31.0365868, -24.2682934, -0.0406195
-0.6474609, -0.3071289, -0.0356445, 13.2926836, 39.7560997, -23.5975609, -0.0392767
-0.628418, -0.3056641, -0.0791016, 19.0853672, 44.2073174, -23.2926826, -0.0372625
-0.6162109, -0.3012695, -0.1118164, 30.8536587, 53.0487823, -22.8658543, -0.0369268
-0.6025391, -0.2875977, -0.1728516, 35.5487823, 57.3780518, -23.1707325, -0.0399481
-0.6010742, -0.2749023, -0.2016602, 41.0365868, 65.0609741, -24.2682934, -0.0379339
-0.6010742, -0.2441406, -0.262207, 40.3658562, 70.2439041, -26.9512196, -0.0352483
-0.6015625, -0.2231445, -0.2890625, 37.5, 71.7682953, -28.841465, -0.0325628
-0.6098633, -0.190918, -0.3222656, 29.0853672, 73.5975647, -33.3536606, -0.0292058
-0.6220703, -0.1645508, -0.3447266, 23.2926826, 74.1463394, -36.0975609, -0.0325628
-0.621582, -0.1591797, -0.3540039, 11.8292685, 74.2682953, -41.0365868, -0.0342412
-0.6352539, -0.1542969, -0.3671875, 6.0975609, 73.7804871, -43.3536606, -0.0318914
-0.6333008, -0.1616211, -0.3735352, -6.890244, 70.7317123, -48.2317085, -0.0302129
-0.6337891, -0.1708984, -0.3745117, -13.780488, 68.0487823, -50.4878044, -0.0372625
-0.637207, -0.1801758, -0.3735352, -28.3536587, 60.9756126, -55.1219521, -0.0392767
-0.625, -0.1972656, -0.3564453, -36.0975609, 56.6463432, -57.3780518, -0.0406195
-0.625, -0.2080078, -0.3393555, -50.8536606, 48.7804871, -62.1951218, -0.0433051
-0.6166992, -0.2241211, -0.2924805, -63.3536606, 42.9878044, -67.3170776, -0.0459907
-0.6069336, -0.2382812, -0.265625, -68.4756088, 40.9756088, -69.8170776, -0.0466621
-0.6020508, -0.2685547, -0.206543, -75.0609741, 38.4756088, -74.9390259, -0.0433051
-0.5854492, -0.3081055, -0.1557617, -76.1585388, 38.4146347, -76.8902435, -0.0453193
-0.5786133, -0.3334961, -0.1376953, -73.9634171, 40.2439041, -80.3658524, -0.0439765
-0.565918, -0.3769531, -0.112793, -71.1585388, 41.4024391, -81.2804871, -0.0426337
-0.559082, -0.4018555, -0.1020508, -66.2195129, 43.2317085, -83.2317123, -0.0439765
-0.5498047, -0.4296875, -0.0751953, -63.7195129, 43.9024391, -83.5975647, -0.0446479
-0.5473633, -0.4370117, -0.0546875, -58.1097565, 46.9512215, -84.4512253, -0.0433051
-0.5390625, -0.4428711, -0.0166016, -54.6951218, 50.1219521, -84.9390259, -0.0459907
-0.5385742, -0.4467773, -0.0053711, -44.5121956, 59.0243912, -85.1219559, -0.0459907
-0.527832, -0.4619141, 0.0073242, -29.6951218, 71.5853653, -83.7195129, -0.0459907
-0.5107422, -0.4814453, -0.0078125, -20.6097565, 77.68293, -82.5, -0.0527047
-0.5048828, -0.4912109, -0.0239258, -2.3170731, 88.5975647, -79.7560959, -0.0587472
-0.4868164, -0.4975586, -0.0737305, 6.7073174, 93.4146347, -78.2317123, -0.0560616
-0.4770508, -0.4960938, -0.1020508, 22.5, 101.8902435, -75.3048782, -0.0594186
-0.4575195, -0.4736328, -0.1567383, 28.7195129, 105.3658524, -74.3292694, -0.0574044
-0.453125, -0.4589844, -0.1850586, 38.1707344, 111.4634171, -72.9268341, -0.0580758
-0.4477539, -0.4233398, -0.2348633, 41.0975609, 114.0243912, -72.9878082, -0.0547189
-0.4370117, -0.4042969, -0.2617188, 43.9024391, 117.86586, -74.2073212, -0.0500191
-0.4262695, -0.3852539, -0.3193359, 44.1463432, 121.4024429, -75.8536606, -0.0500191
-0.4204102, -0.3686523, -0.3505859, 42.8048782, 122.8048782, -76.9512177, -0.0500191
-0.4145508, -0.3540039, -0.4179688, 36.8902435, 123.5365906, -79.146347, -0.0500191
-0.4003906, -0.3344727, -0.4604492, 32.0731697, 122.3780518, -80.6097565, -0.0513619
-0.3979492, -0.3173828, -0.472168, 19.4512196, 118.6585388, -83.7195129, -0.0500191
-0.3867188, -0.2797852, -0.4702148, 12.0731707, 116.0975647, -85.7926865, -0.0486763
-0.3793945, -0.2636719, -0.4599609, -1.9512196, 112.1951218, -90.4268341, -0.0500191
-0.3618164, -0.2504883, -0.4375, -8.1097565, 111.0365906, -92.9268341, -0.0473335
-0.3520508, -0.2519531, -0.425293, -18.4146347, 109.2682953, -97.8658524, -0.0553902
-0.3295898, -0.2729492, -0.4082031, -22.3170738, 108.2317123, -100.0609818, -0.0480049
-0.3129883, -0.2871094, -0.40625, -29.3292694, 106.1585388, -104.2073212, -0.0473335
-0.2797852, -0.3242188, -0.4042969, -35.5487823, 104.7561035, -107.7439041, -0.0459907
-0.265625, -0.3505859, -0.4008789, -38.4756088, 104.6341476, -109.4512253, -0.0453193
-0.237793, -0.3886719, -0.3891602, -43.9024391, 106.4634171, -112.9878082, -0.0433051
-0.215332, -0.4257812, -0.362793, -45.2439041, 108.1097565, -114.6951218, -0.0409552
-0.2104492, -0.4462891, -0.3569336, -46.2195129, 115, -118.7804871, -0.0365911
-0.2011719, -0.472168, -0.3349609, -45.3658562, 119.0853653, -120.7926865, -0.035584
-0.2036133, -0.4868164, -0.3242188, -41.4634171, 126.5853653, -123.9634171, -0.0365911
-0.2114258, -0.5024414, -0.3056641, -38.5365868, 130.2439117, -125.4268341, -0.0379339
-0.2192383, -0.5043945, -0.2993164, -30.6097565, 137.5609741, -127.4390259, -0.0386053
-0.2353516, -0.4995117, -0.2836914, -25.3048782, 142.1951294, -127.8048782, -0.0459907
-0.2475586, -0.4912109, -0.2861328, -12.3780489, 154.146347, -126.5243912, -0.0493477
-0.2666016, -0.4780273, -0.3095703, 2.4390244, 166.8902435, -122.68293, -0.0480049
-0.2768555, -0.4741211, -0.328125, 10.5487804, 173.7804871, -120.0609818, -0.049012
-0.2963867, -0.4536133, -0.3823242, 24.3902435, 183.9634247, -114.146347, -0.0500191
-0.2988281, -0.4321289, -0.4584961, 29.0853672, 186.5853729, -111.1585388, -0.0513619
-0.2949219, -0.4208984, -0.4946289, 32.3780479, 186.9512177, -106.9512253, -0.0553902
-0.2768555, -0.4057617, -0.5654297, 30.9146347, 184.2073212, -106.0365906, -0.0516976
-0.2675781, -0.3979492, -0.5932617, 23.5365868, 176.4634247, -106.0365906, -0.0527047
-0.2436523, -0.3935547, -0.6318359, 18.2317085, 171.646347, -106.4634171, -0.0540475
-0.2329102, -0.3886719, -0.6201172, 6.5853658, 162.1951294, -108.4146347, -0.0527047
-0.2016602, -0.3955078, -0.581543, 4.5121951, 154.5121918, -108.9634171, -0.0553902
-0.1806641, -0.4023438, -0.5927734, -1.9512196, 141.4634247, -110.9146347, -0.0553902
-0.1342773, -0.4130859, -0.5981445, -12.1951218, 133.0487823, -113.5365906, -0.056733
-0.1137695, -0.4160156, -0.5957031, -17.3780499, 132.4390259, -114.7561035, -0.056733
-0.0737305, -0.4291992, -0.5761719, -25.1219521, 137.1951294, -116.1585388, -0.0513619
-0.0429688, -0.4467773, -0.5493164, -26.8902454, 142.1341553, -116.7682953, -0.0543832
-0.0288086, -0.4560547, -0.543457, -27.0121956, 152.9878082, -117.8048782, -0.0527047
-0.012207, -0.4838867, -0.5371094, -26.2195129, 158.0487823, -117.8048782, -0.0553902
-0.0092773, -0.4951172, -0.5371094, -24.1463413, 164.3902435, -119.5731735, -0.0553902
0.0083008, -0.5141602, -0.5375977, -23.3536587, 166.3414612, -120.7317123, -0.0513619
0.015625, -0.519043, -0.5385742, -20.7317085, 169.2682953, -124.5731735, -0.0513619
0.0146484, -0.5258789, -0.5551758, -19.0243912, 171.4024506, -126.7073212, -0.0500191
0.0112305, -0.5288086, -0.5664062, -13.6585369, 176.9512177, -131.2195129, -0.0513619
-0.0073242, -0.5273438, -0.597168, -9.2073174, 182.2561035, -134.2073212, -0.056733
-0.0234375, -0.5224609, -0.6054688, -8.1097565, 183.7804871, -134.5121918, -0.0553902
-0.0478516, -0.503418, -0.5869141, -7.5, 182.3170776, -133.2926788, -0.0543832
-0.0400391, -0.4956055, -0.5581055, -4.8780489, 176.646347, -133.2926788, -0.0527047
-0.0351562, -0.4931641, -0.5581055, 1.097561, 170.2439117, -133.2317047, -0.0553902
-0.0366211, -0.5048828, -0.6079102, 5.7317076, 169.6951294, -132.5609741, -0.0466621
-0.0371094, -0.5136719, -0.6489258, 13.9024391, 172.86586, -129.146347, -0.0520333
-0.0366211, -0.5366211, -0.7294922, 15.7926836, 174.7561035, -126.0365906, -0.0480049
-0.0322266, -0.5493164, -0.7617188, 14.8780489, 176.0975647, -118.4756088, -0.0439765
-0.0058594, -0.5742188, -0.8115234, 12.9268293, 176.0365906, -114.0853653, -0.049012
0.0136719, -0.5820312, -0.8305664, 11.7073174, 176.7682953, -106.4634171, -0.0493477
0.0478516, -0.5839844, -0.8637695, 10.1829271, 177.8048859, -100.2439041, -0.0466621
0.0664062, -0.5844727, -0.8676758, 8.841464, 176.4634247, -97.68293, -0.0459907
0.105957, -0.5703125, -0.8295898, 2.6829269, 167.7439117, -94.7561035, -0.0486763
0.1450195, -0.5400391, -0.7788086, -0.7926829, 161.7073212, -94.3902435, -0.0433051
0.1665039, -0.5283203, -0.7514648, -5.4878049, 150.4268341, -96.4024429, -0.0446479
0.215332, -0.512207, -0.7124023, -6.6463418, 146.4024353, -98.3536606, -0.0459907
0.230957, -0.5161133, -0.6992188, -7.5609756, 142.6219482, -103.7804871, -0.0493477
0.2617188, -0.527832, -0.6826172, -7.9878049, 142.7439117, -106.1585388, -0.0486763
0.2768555, -0.5371094, -0.6748047, -7.4390244, 146.8902435, -109.5121994, -0.0473335
0.3017578, -0.559082, -0.6762695, -5.0609756, 151.8292694, -110.1219559, -0.0486763
0.3193359, -0.5800781, -0.6899414, 4.2073174, 166.7073212, -110.9756088, -0.0446479
0.3286133, -0.609375, -0.7475586, 14.4512196, 182.7439117, -110.7317123, -0.0446479
0.3266602, -0.6074219, -0.7744141, 17.0121956, 188.1707306, -110.4268341, -0.0459907
0.3208008, -0.5810547, -0.7954102, 15.1829271, 190.36586, -110.7926865, -0.0459907
0.3110352, -0.5234375, -0.7495117, 10.7926836, 187.5, -112.5, -0.0453193
0.3056641, -0.4916992, -0.7099609, 1.2195122, 178.9024506, -117.5609818, -0.0473335
0.3007812, -0.4575195, -0.6425781, -1.5853659, 175.7317047, -121.5853653, -0.0466621
0.293457, -0.4584961, -0.6313477, 1.7073171, 175.6097565, -130.3048859, -0.0453193
0.2744141, -0.4897461, -0.6679688, 7.1951222, 178.4756165, -134.146347, -0.0459907
0.2626953, -0.5117188, -0.7202148, 18.8414631, 184.2682953, -137.3780518, -0.0466621
0.2441406, -0.5644531, -0.8417969, 21.2195129, 185.1829376, -136.7682953, -0.0493477
0.2387695, -0.5786133, -0.8876953, 14.6951227, 180.6097565, -131.4024353, -0.0459907
0.246582, -0.6054688, -0.9453125, -1.1585366, 171.1585388, -124.2073212, -0.0436408
0.2607422, -0.6196289, -0.9526367, -9.5731707, 166.8292694, -121.0365906, -0.0466621
0.3007812, -0.6660156, -0.9467773, -22.8048782, 162.0731812, -115.36586, -0.0433051
0.3447266, -0.7285156, -0.9487305, -26.5853672, 161.5243988, -113.0487823, -0.0480049
0.3696289, -0.7646484, -0.9550781, -27.7439022, 162.5, -110, -0.0480049
0.4194336, -0.8276367, -0.9912109, -26.2195129, 163.7804871, -108.7195129, -0.0466621
0.440918, -0.8442383, -1.0058594, -22.3170738, 165.1219482, -106.8292694, -0.0433051
0.4707031, -0.8486328, -1.0068359, -22.0731716, 163.5975647, -106.7682953, -0.0409552
0.4829102, -0.831543, -0.9750977, -28.4146347, 153.7195129, -107.6219559, -0.0419623
0.4985352, -0.7617188, -0.855957, -34.2073174, 146.646347, -108.9634171, -0.0446479
0.5107422, -0.7280273, -0.7783203, -42.5, 133.9634247, -113.5975647, -0.0406195
0.5454102, -0.6855469, -0.6450195, -37.3170738, 134.0243988, -121.2804871, -0.0406195
0.5576172, -0.6791992, -0.6040039, -28.6585369, 140, -125.6707382, -0.0352483
0.5654297, -0.6875, -0.5913086, -6.4634147, 156.5853729, -133.8414612, -0.0332341
0.5371094, -0.6772461, -0.625, 2.6219513, 163.4756165, -136.8902435, -0.0345769
0.5126953, -0.6508789, -0.6245117, 8.2317076, 167.4390259, -140.6097565, -0.0369268
0.4731445, -0.5727539, -0.5639648, 4.8170733, 164.0853729, -141.5853729, -0.0379339
0.4609375, -0.5327148, -0.5092773, -9.6341467, 153.9634247, -144.8780518, -0.0402838
0.4448242, -0.4956055, -0.387207, -16.0365849, 149.9390259, -146.9512177, -0.0332341
0.440918, -0.5112305, -0.347168, -15.4268293, 150.3048859, -151.5243988, -0.0325628
0.4414062, -0.5913086, -0.34375, -6.890244, 155.2439117, -153.4146423, -0.03122
0.4375, -0.6489258, -0.3930664, 21.7073174, 168.1707306, -154.2682953, -0.0288701
0.4580078, -0.7773438, -0.5712891, 53.9634171, 179.5731812, -150.6097565, -0.0288701
0.4731445, -0.8388672, -0.6953125, 67.1951218, 184.0853729, -146.8902435, -0.03122
0.5200195, -0.9370117, -0.9765625, 83.8414688, 192.5609741, -137.8048859, -0.0271916
0.5786133, -0.987793, -1.2646484, 86.2195129, 196.4634247, -132.9878082, -0.0258488
0.6240234, -0.9794922, -1.340332, 80.9756088, 204.0243988, -125, -0.0298772
0.6938477, -0.9462891, -1.3979492, 76.4634171, 208.6585388, -122.9878082, -0.0325628
0.6943359, -0.9238281, -1.3237305, 62.6219521, 212.6829376, -120.36586, -0.0325628
0.7299805, -0.8833008, -1.3535156, 57.0121956, 210.4268341, -120.0609818, -0.0271916
0.7387695, -0.8461914, -1.3500977, 40.6707344, 201.0365906, -122.3170776, -0.0265202
0.7666016, -0.7861328, -1.3603516, 31.4024391, 192.86586, -124.2073212, -0.0285344
0.7788086, -0.762207, -1.3515625, 10.4268293, 176.0975647, -129.6951294, -0.0328985
0.7973633, -0.715332, -1.3110352, -12.3170738, 159.8170776, -134.5731812, -0.0339055
0.7978516, -0.6879883, -1.265625, -23.4146347, 152.3780518, -136.4024353, -0.0332341
0.8095703, -0.6450195, -1.1552734, -45.1219521, 140.7317047, -138.5975647, -0.0325628
0.8066406, -0.6113281, -1.0200195, -55.4268303, 137.0121918, -139.2682953, -0.0392767
0.8066406, -0.6069336, -0.9453125, -74.9390259, 133.5365906, -138.8414612, -0.0379339
0.8144531, -0.609375, -0.8105469, -82.8658524, 133.7804871, -137.86586, -0.0372625
0.8178711, -0.6323242, -0.7490234, -93.7195129, 138.5975647, -135.1829224, -0.0406195
0.8271484, -0.6992188, -0.6503906, -95.7926865, 143.6585388, -133.7804871, -0.0392767
0.8320312, -0.734375, -0.6108398, -92.1341476, 156.3414612, -130.6097565, -0.0386053
0.828125, -0.7871094, -0.5444336, -86.3414688, 162.8048859, -129.146347, -0.0399481
0.8251953, -0.8022461, -0.5102539, -69.4512177, 172.0731812, -126.2195129, -0.0406195
0.8066406, -0.7993164, -0.4482422, -47.6219521, 174.4512177, -124.0853653, -0.0433051
0.8037109, -0.7861328, -0.4179688, -35.4878044, 173.4756165, -123.3536606, -0.0412909
0.8037109, -0.7714844, -0.3789062, -8.0487804, 169.8170776, -123.3536606, -0.0419623
0.8227539, -0.7729492, -0.3950195, 8.1097565, 167.9268341, -123.2926865, -0.0406195
0.8447266, -0.7851562, -0.4282227, 44.5731735, 167.5609741, -123.0487823, -0.0412909
0.9101562, -0.828125, -0.5849609, 63.841465, 168.8414612, -122.1951218, -0.0412909
0.9584961, -0.847168, -0.6992188, 97.8658524, 174.3902435, -119.9390259, -0.0419623
1.0463867, -0.8618164, -0.987793, 109.2073212, 177.9268341, -118.4756088, -0.0365911
1.0927734, -0.8432617, -1.1259766, 113.3536606, 184.6951294, -115.8536606, -0.0302129
1.1352539, -0.7539062, -1.3369141, 105.18293, 186.5853729, -114.5731735, -0.0325628
1.1333008, -0.6889648, -1.3745117, 71.1585388, 184.0853729, -112.0121994, -0.0332341
1.1049805, -0.5410156, -1.3198242, 25.7317085, 171.7682953, -108.9634171, -0.0328985
1.0795898, -0.4711914, -1.2314453, 4.6951222, 162.9268341, -107.68293, -0.03122
1.0419922, -0.3662109, -1.0151367, -26.4634151, 143.7195129, -104.6951218, -0.0285344
1.0444336, -0.3339844, -0.824707, -35.2439041, 135.4268341, -103.1707306, -0.0305486
1.0664062, -0.3388672, -0.7651367, -40.5487823, 124.5731735, -101.4024429, -0.0298772
1.1313477, -0.3925781, -0.7255859, -40.7317085, 122.86586, -100.6097565, -0.0248417
1.1708984, -0.4370117, -0.7333984, -41.1585388, 124.7561035, -100.6707306, -0.024506
1.2412109, -0.5483398, -0.7631836, -42.8048782, 127.9268341, -100.8536606, -0.0248417
1.2709961, -0.6049805, -0.7802734, -48.1097565, 136.2195129, -103.1097565, -0.0221561
1.3051758, -0.722168, -0.800293, -49.2073174, 140.1829376, -104.9390259, -0.0261845
1.3125, -0.7753906, -0.8081055, -46.6463432, 146.7073212, -109.8170776, -0.0271916
1.3173828, -0.8525391, -0.8256836, -36.2804871, 150.6707306, -116.4634171, -0.0258488
1.309082, -0.8769531, -0.8325195, -29.5121956, 151.0975647, -120.3048782, -0.0224918
1.2675781, -0.8789062, -0.8261719, -16.5243912, 149.4512177, -127.4390259, -0.0251774
1.1923828, -0.8183594, -0.7753906, -12.5, 147.7439117, -130.1219482, -0.0298772
1.1484375, -0.7651367, -0.7324219, -9.6341467, 143.1707306, -132.9878082, -0.0292058
1.0625, -0.6474609, -0.6083984, -10.3658543, 141.9512177, -133.4756165, -0.0285344
1.0239258, -0.5898438, -0.5400391, -12.560976, 140.2439117, -132.5, -0.0285344
0.9575195, -0.5009766, -0.4121094, -12.6219511, 139.8780518, -130.9756165, -0.0332341
0.9370117, -0.4794922, -0.3681641, -8.780488, 138.4756165, -127.0731735, -0.0379339
0.9150391, -0.4775391, -0.3251953, -3.9634147, 137.7439117, -125, -0.0406195
0.9213867, -0.5019531, -0.3398438, 10.4268293, 135, -120.7926865, -0.0392767
0.9604492, -0.5756836, -0.4365234, 29.8170738, 131.2804871, -117.4390259, -0.0446479
1.0332031, -0.6601562, -0.6079102, 40.1829262, 129.146347, -116.0975647, -0.0433051
1.078125, -0.6958008, -0.7143555, 56.7682953, 127.9268341, -114.8170776, -0.0433051
1.1547852, -0.7270508, -0.9213867, 61.2195129, 128.4146423, -114.3902435, -0.0446479
1.1708984, -0.7192383, -1.0087891, 59.9390259, 130.1829224, -114.6341476, -0.042298
1.1870117, -0.6577148, -1.1044922, 54.0853653, 131.0365906, -114.8780518, -0.0446479
1.171875, -0.6074219, -1.1035156, 33.4756088, 131.8902435, -115.4878082, -0.0480049
1.1108398, -0.4931641, -1.0107422, 20.6707325, 130.9756165, -115.5487823, -0.0513619
1.0771484, -0.4423828, -0.9375, -2.6829269, 126.3414688, -113.8414688, -0.0493477
1.0126953, -0.3618164, -0.7680664, -19.2073174, 118.6585388, -110.5487823, -0.0533761
0.9931641, -0.3432617, -0.7011719, -24.4512196, 115, -108.1707306, -0.0553902
0.987793, -0.3422852, -0.6069336, -29.4512196, 108.6585388, -104.6341476, -0.056733
1.0053711, -0.3955078, -0.578125, -29.7560978, 106.646347, -103.3536606, -0.0570687
1.0253906, -0.4316406, -0.5834961, -28.9634151, 103.8414688, -101.3414688, -0.0584115
1.065918, -0.5175781, -0.6259766, -28.2926826, 103.4146347, -100.4268341, -0.0553902
1.0830078, -0.5581055, -0.6494141, -27.0121956, 105.3048782, -99.3902435, -0.0540475
1.1162109, -0.6147461, -0.6845703, -26.4634151, 106.8292694, -98.9634171, -0.056733
1.1210938, -0.6381836, -0.6953125, -24.2073174, 110.18293, -99.6951218, -0.052369
1.1196289, -0.652832, -0.6967773, -22.9268303, 111.4024429, -100.6707306, -0.0594186
1.1123047, -0.6518555, -0.6904297, -22.6219521, 112.0731735, -102.3170776, -0.0574044
1.090332, -0.6347656, -0.652832, -23.5365868, 110.9146347, -104.4512253, -0.0580758
1.0805664, -0.6225586, -0.628418, -24.1463413, 110.2439041, -105.4878082, -0.0540475
1.0512695, -0.5976562, -0.5712891, -23.1097565, 108.9024429, -107.3780518, -0.056733
1.0297852, -0.5893555, -0.5307617, -20.7317085, 108.4146347, -107.9878082, -0.0594186
1.0209961, -0.5888672, -0.5214844, -12.8048782, 108.0487823, -108.7195129, -0.0547189
1.0107422, -0.5786133, -0.5209961, -7.6829271, 107.8658524, -108.4756088, -0.0527047
1.0058594, -0.5678711, -0.5288086, 2.3780489, 106.9512253, -108.0487823, -0.0513619
1.0048828, -0.5463867, -0.5532227, 6.4634147, 106.3414688, -107.4390259, -0.0530404
1.0078125, -0.5351562, -0.5649414, 11.6463413, 105.4878082, -106.3414688, -0.0513619
1.003418, -0.5063477, -0.590332, 11.8292685, 104.9390259, -105.3048782, -0.0500191
1.0019531, -0.4916992, -0.5966797, 9.6951218, 104.0243912, -104.2682953, -0.0540475
0.9990234, -0.4711914, -0.6005859, 4.9390244, 102.5, -103.2926865, -0.0486763
0.9980469, -0.4643555, -0.6030273, 2.3780489, 101.5853653, -102.9268341, -0.0553902
0.9873047, -0.4516602, -0.6049805, -3.2926829, 97.9878082, -101.5243912, -0.0553902
0.9887695, -0.4462891, -0.6025391, -6.280488, 95.6097565, -100.9756088, -0.0486763
0.9926758, -0.4448242, -0.6030273, -12.8048782, 89.8170776, -98.9634171, -0.0500191
1.0019531, -0.4638672, -0.5864258, -16.4634151, 87.2560959, -97.68293, -0.0553902
1.0117188, -0.4697266, -0.5800781, -21.9512196, 82.5, -95, -0.0587472
1.0302734, -0.4829102, -0.5698242, -23.2317085, 80.9146347, -93.4146347, -0.056733
1.0405273, -0.4916992, -0.5585938, -24.2073174, 79.5731735, -90.6097565, -0.0584115
1.0717773, -0.4980469, -0.5400391, -23.3536587, 79.6341476, -89.8780518, -0.0580758
1.0864258, -0.4990234, -0.5380859, -20.6707325, 80.9756088, -89.6951218, -0.0607614
1.0976562, -0.4951172, -0.5229492, -17.439024, 82.8048782, -91.4024429, -0.0607614
1.0996094, -0.4916992, -0.5151367, -15.9146347, 83.4756088, -92.7439041, -0.0594186
1.0908203, -0.4838867, -0.4956055, -13.3536587, 83.5975647, -96.4634171, -0.056733
1.0678711, -0.4731445, -0.4794922, -11.8902445, 82.5609741, -98.1707306, -0.0614328
1.0576172, -0.46875, -0.4677734, -10.2439022, 80.6707306, -101.2804871, -0.0654612
1.0302734, -0.4624023, -0.4550781, -9.6341467, 79.7560959, -102.0731735, -0.0691539
1.015625, -0.4633789, -0.4487305, -7.8658538, 77.1341476, -102.68293, -0.070161
0.9985352, -0.4760742, -0.4492188, -6.1585369, 75.9756088, -101.8292694, -0.0694896
0.9995117, -0.4794922, -0.4516602, -2.6219513, 74.6341476, -98.4756088, -0.0688182
0.9975586, -0.46875, -0.4516602, -0.6097561, 74.3292694, -96.5243912, -0.0715038
1.003418, -0.4589844, -0.4516602, 3.3536587, 74.6341476, -93.2926865, -0.0688182
1.0161133, -0.4448242, -0.4580078, 7.7439027, 75.18293, -91.1585388, -0.0674754
1.019043, -0.4345703, -0.4624023, 9.6951218, 75.4878082, -90.6707306, -0.0674754
1.0351562, -0.4262695, -0.4794922, 13.4146347, 75.3048782, -90.0609741, -0.0624399
1.0551758, -0.4199219, -0.5170898, 14.0243902, 74.5121994, -90.3048782, -0.0607614
1.059082, -0.4125977, -0.5336914, 12.7439032, 72.3780518, -91.2804871, -0.0594186
1.0556641, -0.3925781, -0.5483398, 10.1219511, 71.4634171, -92.0731735, -0.0574044
1.0507812, -0.3793945, -0.5458984, 2.3780489, 69.6341476, -93.6585388, -0.0547189
1.0268555, -0.3569336, -0.5249023, -1.9512196, 68.7195129, -93.8414688, -0.0553902
1.0107422, -0.3530273, -0.5039062, -9.2682924, 66.7073212, -93.2317123, -0.0574044
0.9936523, -0.3525391, -0.472168, -11.280488, 65.9756088, -92.0731735, -0.0516976
0.9931641, -0.3569336, -0.4648438, -12.0121956, 64.1463394, -88.5365906, -0.0513619
0.9946289, -0.3579102, -0.4555664, -8.9634151, 62.7439041, -84.5731735, -0.052369
1, -0.3608398, -0.4570312, -6.890244, 62.5609779, -82.7439041, -0.0500191
1.0136719, -0.3642578, -0.4814453, -4.2682929, 62.3170738, -79.8780518, -0.0459907
1.0258789, -0.3510742, -0.5004883, -4.4512196, 62.4390259, -79.0243912, -0.0466621
1.0258789, -0.3427734, -0.5024414, -7.5609756, 63.5975609, -78.0487823, -0.0433051
1.0136719, -0.3261719, -0.4995117, -10.1219511, 64.0853653, -77.9268341, -0.0406195
1.0048828, -0.3168945, -0.4902344, -15.8536587, 64.4512177, -77.5609741, -0.0433051
0.9780273, -0.3051758, -0.4648438, -18.4756107, 63.4146347, -77.1341476, -0.0439765
0.9711914, -0.2998047, -0.4501953, -22.439024, 60.3048782, -75.18293, -0.0409552
0.9643555, -0.3012695, -0.4272461, -24.0243912, 58.4146347, -74.5731735, -0.0392767
0.9658203, -0.3071289, -0.4223633, -24.3292694, 54.5121956, -72.3170776, -0.0379339
0.9775391, -0.3251953, -0.4248047, -23.780489, 51.4634171, -69.5121994, -0.0365911
0.9887695, -0.3374023, -0.4326172, -23.780489, 49.8780518, -68.3536606, -0.0365911
1.0063477, -0.3637695, -0.4516602, -25.5487804, 48.5975609, -65.7317123, -0.03122
1.0253906, -0.3779297, -0.453125, -27.1341476, 48.5365868, -64.4512177, -0.0325628
1.0332031, -0.3745117, -0.4477539, -30.1829281, 49.3292694, -64.2682953, -0.0352483
1.0336914, -0.3735352, -0.4248047, -31.8902454, 49.8780518, -64.3902435, -0.0342412
1.0263672, -0.3740234, -0.4091797, -33.9634171, 50.3048782, -65.7926865, -0.0352483
1.0166016, -0.3764648, -0.3720703, -34.2682953, 50.3048782, -66.3414612, -0.0325628
1.0117188, -0.378418, -0.3613281, -32.4390259, 48.1097565, -67.3170776, -0.0365911
1.0048828, -0.4023438, -0.3564453, -30.7317085, 47.0121956, -67.4390259, -0.0406195
1.0039062, -0.4121094, -0.3564453, -25.8536587, 44.4512215, -67.8658524, -0.0443122
1.0063477, -0.4238281, -0.3681641, -21.5243912, 43.2317085, -67.9268341, -0.0406195
1.0107422, -0.4301758, -0.375, -20.1829281, 43.4756126, -67.6219559, -0.0409552
1.0126953, -0.4345703, -0.3833008, -18.780489, 45.9146347, -66.5853653, -0.0419623
1.0009766, -0.4350586, -0.3793945, -17.5, 47.5, -66.3414612, -0.0379339
0.9985352, -0.4238281, -0.3803711, -13.9634151, 49.5121956, -65.6097565, -0.0392767
0.9785156, -0.4018555, -0.3730469, -12.3780489, 49.4512215, -65.5487823, -0.0406195
0.9702148, -0.3862305, -0.3657227, -10.6707315, 46.8292694, -65.18293, -0.0446479
0.9536133, -0.3613281, -0.3564453, -10.7317076, 44.4512215, -64.5731735, -0.0446479
0.9492188, -0.3491211, -0.3530273, -12.3170738, 39.0243912, -62.9878082, -0.0449836
0.9428711, -0.3413086, -0.3427734, -13.841464, 36.4024391, -61.7073174, -0.0426337
0.9487305, -0.3413086, -0.3452148, -15, 32.0121956, -58.4146347, -0.0439765
0.9638672, -0.3422852, -0.3383789, -14.3292685, 30.3658543, -55.1219521, -0.0412909
0.9692383, -0.3388672, -0.3432617, -13.3536587, 30.2439022, -53.5975609, -0.0453193
0.9902344, -0.3383789, -0.3476562, -10, 30.5487804, -50.8536606, -0.0473335
0.9946289, -0.3291016, -0.3598633, -8.4756098, 30.7317085, -49.8780518, -0.0439765
1.003418, -0.3310547, -0.3676758, -5.7926831, 30.7317085, -49.0243912, -0.0446479
1.0078125, -0.3300781, -0.3901367, -4.8780489, 30.2439022, -48.7195129, -0.0433051
1.0097656, -0.3344727, -0.4038086, -4.390244, 28.2317085, -48.5975609, -0.0433051
1.0131836, -0.3398438, -0.4272461, -4.8170733, 27.5, -48.7804871, -0.0446479
1.0200195, -0.34375, -0.4453125, -7.6829271, 26.6463413, -48.7804871, -0.0406195
1.015625, -0.3500977, -0.4609375, -9.8170738, 26.6463413, -48.4756126, -0.0406195
1.012207, -0.3549805, -0.4628906, -13.4756098, 28.3536587, -47.8658562, -0.0406195
1.0097656, -0.3637695, -0.4633789, -15.060976, 29.8170738, -46.5853653, -0.0409552
1.003418, -0.3662109, -0.4663086, -15.4268293, 30.3048782, -46.0365868, -0.0439765
0.9873047, -0.3652344, -0.4599609, -15.6707325, 30.5487804, -44.8780479, -0.0419623
0.9760742, -0.3706055, -0.4594727, -15.4878054, 30, -45, -0.0379339
0.9672852, -0.3740234, -0.4594727, -14.5731707, 28.3536587, -44.7560997, -0.0386053
0.9599609, -0.3969727, -0.4770508, -13.9024391, 27.3780499, -44.8780479, -0.0332341
0.9628906, -0.4077148, -0.4873047, -12.4390249, 24.8780499, -45.1829262, -0.035584
0.9541016, -0.4326172, -0.519043, -12.4390249, 23.4756107, -45.0609779, -0.0325628
0.9506836, -0.4438477, -0.5332031, -14.9390249, 19.939024, -44.1463432, -0.0339055
0.9438477, -0.453125, -0.5488281, -17.5, 18.5975609, -43.2317085, -0.0332341
0.9350586, -0.4570312, -0.5483398, -24.3292694, 16.0365849, -40.9146347, -0.0352483
0.9248047, -0.4570312, -0.5273438, -30.4268303, 13.9024391, -37.1951218, -0.035584
0.9194336, -0.4545898, -0.515625, -31.9512196, 12.7439032, -35.5487823, -0.0365911
0.9042969, -0.4492188, -0.4858398, -31.9512196, 10.4878054, -31.5853672, -0.0369268
0.8964844, -0.4365234, -0.4604492, -30.9756107, 9.4512196, -29.5731716, -0.0382696
0.8964844, -0.4267578, -0.4545898, -28.4146347, 6.890244, -26.0365868, -0.0406195
0.8969727, -0.4111328, -0.4472656, -27.1341476, 6.1585369, -24.6951218, -0.0409552
0.8945312, -0.4052734, -0.4462891, -25.2439022, 4.0853658, -22.1951218, -0.0433051
0.8969727, -0.390625, -0.4506836, -25.060976, 3.1707318, -21.0975609, -0.0459907
0.8945312, -0.3862305, -0.4545898, -26.0975609, 1.6463414, -19.6951218, -0.0473335
0.8950195, -0.3945312, -0.4589844, -26.8902454, 0.7317073, -19.3902435, -0.0459907
0.8964844, -0.3994141, -0.4658203, -28.2317085, -1.5243902, -18.6585369, -0.0493477
0.8911133, -0.4116211, -0.4936523, -29.7560978, -4.5121951, -17.7439022, -0.0540475
0.887207, -0.421875, -0.5039062, -31.0365868, -5.8536587, -17.0121956, -0.0540475
0.8852539, -0.4414062, -0.5161133, -34.2682953, -8.719512, -15.4268293, -0.0553902
0.8901367, -0.4619141, -0.5283203, -35.7317085, -9.7560978, -14.6341467, -0.0513619
0.8857422, -0.4711914, -0.53125, -36.4634171, -10.6707315, -12.9268293, -0.0503548
0.8793945, -0.4848633, -0.5410156, -35.9756088, -10.3658543, -11.9512196, -0.0527047
0.8803711, -0.496582, -0.5507812, -33.9634171, -10.2439022, -10, -0.0533761
0.8789062, -0.5, -0.5673828, -33.5975609, -10.3658543, -9.0853662, -0.0547189
0.878418, -0.4980469, -0.5776367, -34.3902435, -12.3780489, -5.9756098, -0.0530404
0.8828125, -0.4838867, -0.5825195, -36.4024391, -13.6585369, -4.5121951, -0.0557259
0.8828125, -0.4736328, -0.5722656, -43.4146347, -16.2195129, -2.2560976, -0.0553902
0.8818359, -0.4477539, -0.5454102, -52.5, -16.8902435, 0.4268293, -0.0594186
0.8823242, -0.4306641, -0.5234375, -56.0975609, -16.7073174, 1.9512196, -0.0547189
0.8720703, -0.4165039, -0.4873047, -59.5731735, -15.060976, 5.1829271, -0.0506905
0.8759766, -0.4238281, -0.46875, -59.7560997, -14.8780489, 7.1341467, -0.0459907
0.887207, -0.4296875, -0.4726562, -57.3780518, -15.2439032, 12.0121956, -0.0473335
0.90625, -0.4453125, -0.4951172, -56.0365868, -15.9756098, 14.3292685, -0.0453193
0.9140625, -0.4472656, -0.5019531, -54.6951218, -18.4756107, 17.6219521, -0.0459907
0.9306641, -0.4438477, -0.5102539, -55, -19.5121956, 18.5365849, -0.0466621
0.9375, -0.4306641, -0.5131836, -57.6219521, -21.6463413, 19.3292694, -0.0433051
0.9379883, -0.4013672, -0.4858398, -59.3292694, -22.8658543, 19.4512196, -0.0446479
0.9291992, -0.3852539, -0.4677734, -63.9024391, -24.6341476, 20.1219521, -0.0419623
0.9169922, -0.3564453, -0.4272461, -65.9756088, -26.6463413, 21.5243912, -0.0433051
0.9111328, -0.3520508, -0.4106445, -66.5853653, -28.2317085, 22.9268303, -0.0379339
0.9067383, -0.3535156, -0.3925781, -65.6097565, -31.9512196, 25.4268303, -0.0369268
0.9174805, -0.3637695, -0.3989258, -64.3292694, -34.3292694, 26.8902454, -0.0392767
0.925293, -0.3706055, -0.4106445, -61.8292694, -39.3902435, 30.3048782, -0.0359197
0.9458008, -0.3911133, -0.4316406, -60.8536606, -42.0731735, 32.1951218, -0.0298772
0.9545898, -0.3930664, -0.4389648, -61.5853691, -46.4634171, 35, -0.0258488
0.9770508, -0.390625, -0.4404297, -62.2560997, -48.4756126, 36.2195129, -0.0271916
0.9824219, -0.3876953, -0.4287109, -63.9024391, -50.5487823, 37.5, -0.0231632
0.9814453, -0.3730469, -0.4013672, -64.3292694, -51.0975609, 37.7439041, -0.0258488
0.9897461, -0.3725586, -0.3881836, -62.3170738, -51.341465, 38.3536606, -0.0318914
0.9848633, -0.3759766, -0.3735352, -57.4390259, -53.5365868, 38.9634171, -0.0298772
0.9941406, -0.390625, -0.3842773, -54.4512215, -55.4268303, 39.5121956, -0.024506
1.0009766, -0.3955078, -0.3979492, -48.4756126, -59.1463432, 40.9756088, -0.0251774
1.0117188, -0.4169922, -0.4291992, -45.6707344, -60.9146347, 41.7682953, -0.0198062
1.015625, -0.4248047, -0.4458008, -42.2560997, -63.841465, 42.6219521, -0.0204776
1.0332031, -0.4448242, -0.4780273, -41.1585388, -64.8170776, 43.0487823, -0.0248417
1.0390625, -0.4501953, -0.4882812, -40.4268303, -65.6097565, 44.4512215, -0.0234989
1.0439453, -0.4433594, -0.4960938, -39.5731735, -65.4268341, 45.2439041, -0.0224918
1.0449219, -0.4433594, -0.4990234, -38.4756088, -64.5121994, 46.341465, -0.0218204
1.0424805, -0.4287109, -0.5019531, -35.5487823, -64.0243912, 47.5609779, -0.0238346
1.0415039, -0.4282227, -0.5058594, -33.7195129, -64.0853653, 48.6585388, -0.0238346
1.0419922, -0.4296875, -0.534668, -29.1463413, -66.2804871, 50.1219521, -0.0285344
1.0522461, -0.4350586, -0.5717773, -27.0121956, -67.3780518, 51.2804909, -0.027863
1.0551758, -0.4306641, -0.5869141, -24.6341476, -71.0975647, 53.6585388, -0.0285344
1.0678711, -0.4106445, -0.6147461, -24.6951218, -72.5, 55.1219521, -0.0298772
1.0742188, -0.3984375, -0.6186523, -27.6219521, -74.2073212, 57.3780518, -0.0305486
1.0708008, -0.3535156, -0.6132812, -29.8780499, -74.7560959, 57.9878044, -0.0318914
1.0712891, -0.3339844, -0.6020508, -36.4024391, -75.5487823, 59.5731735, -0.0302129
1.0576172, -0.3168945, -0.5791016, -40.4268303, -76.2804871, 60.4268303, -0.0352483
1.0458984, -0.3168945, -0.5649414, -46.6463432, -79.5731735, 63.4146347, -0.0365911
1.0400391, -0.3457031, -0.5522461, -51.2195129, -84.5731735, 67.0731735, -0.0386053
1.0415039, -0.3696289, -0.5615234, -52.6219521, -87.1341476, 68.9634171, -0.0406195
1.0615234, -0.4262695, -0.5751953, -53.4756126, -91.8902435, 72.6219559, -0.0392767
1.0805664, -0.4702148, -0.5942383, -53.0487823, -93.3536606, 74.5731735, -0.0379339
1.0932617, -0.4829102, -0.6025391, -50.6707344, -94.9390259, 78.2317123, -0.0369268
1.1103516, -0.496582, -0.612793, -48.4756126, -95.0609741, 79.6951218, -0.0386053
1.1147461, -0.496582, -0.6152344, -42.9878044, -94.0243912, 82.4390259, -0.0365911
1.1274414, -0.4936523, -0.6328125, -41.2195129, -93.2926865, 83.7804871, -0.0419623
1.1352539, -0.4951172, -0.6450195, -40.3048782, -93.4756088, 87.1951218, -0.0399481
1.1479492, -0.5004883, -0.6635742, -41.8902435, -94.146347, 88.8414688, -0.0396124
1.1586914, -0.5039062, -0.6640625, -45.4878044, -96.2804871, 91.3414688, -0.0365911
1.1743164, -0.5, -0.65625, -48.5975609, -98.8414688, 92.68293, -0.0379339
1.1723633, -0.4912109, -0.6459961, -50.1219521, -100.0609818, 92.9878082, -0.0379339
1.1704102, -0.4707031, -0.6069336, -50.5487823, -102.1341476, 93.3536606, -0.0386053
1.1645508, -0.4536133, -0.5732422, -50.0609779, -103.4756088, 93.3536606, -0.0365911
1.1586914, -0.4516602, -0.5620117, -46.7682953, -105.2439041, 94.7561035, -0.0359197
1.1601562, -0.4550781, -0.5600586, -44.2682953, -106.7682953, 96.1585388, -0.0345769
1.1655273, -0.4628906, -0.5678711, -39.3292694, -110, 98.9024429, -0.0379339
1.1870117, -0.4775391, -0.5957031, -36.8902435, -112.0731735, 100.7926865, -0.0352483
1.1938477, -0.4887695, -0.6220703, -33.1097565, -114.7561035, 103.8414688, -0.0325628
1.215332, -0.5161133, -0.668457, -32.5, -115.3048782, 105.3658524, -0.0379339
1.2207031, -0.5292969, -0.6938477, -32.5, -116.0975647, 108.0487823, -0.0369268
1.2407227, -0.5332031, -0.7255859, -35.0609779, -114.7561035, 110.7926865, -0.0365911
1.246582, -0.53125, -0.7314453, -36.4024391, -113.5975647, 111.7073212, -0.0332341
1.2490234, -0.5292969, -0.730957, -35.7926826, -109.3902435, 113.7195129, -0.0365911
1.246582, -0.5273438, -0.7431641, -33.7195129, -107.6219559, 114.8170776, -0.0379339
1.2456055, -0.5307617, -0.7519531, -26.5243912, -105.4268341, 117.9268341, -0.0372625
1.2514648, -0.5146484, -0.7963867, -23.3536587, -105.3658524, 119.8170776, -0.0392767
1.2583008, -0.5024414, -0.8208008, -19.0243912, -105.3658524, 123.9634171, -0.0392767
1.2729492, -0.4741211, -0.8686523, -19.6951218, -105.3048782, 125.7317123, -0.0379339
1.277832, -0.4614258, -0.8867188, -26.5853672, -104.3292694, 130.1219482, -0.0352483
1.2832031, -0.4472656, -0.9057617, -32.9268303, -103.5975647, 132.5, -0.0352483
1.2817383, -0.4389648, -0.9038086, -49.7560997, -102.0731735, 137.0731812, -0.0386053
1.2749023, -0.4345703, -0.8740234, -67.1951218, -101.0975647, 141.4634247, -0.0392767
1.2680664, -0.4375, -0.8569336, -75.0609741, -101.5853653, 143.5975647, -0.0372625
1.2592773, -0.4501953, -0.8037109, -87.5, -106.1585388, 147.9268341, -0.0379339
1.2509766, -0.4633789, -0.7504883, -91.8292694, -110, 150.4878082, -0.0406195
1.2568359, -0.4663086, -0.7250977, -99.0243912, -119.6341476, 155.6097565, -0.0473335
1.2719727, -0.4829102, -0.6806641, -102.3170776, -124.2073212, 158.1097565, -0.0406195
1.2783203, -0.503418, -0.6679688, -108.0487823, -130.5487823, 163.2926941, -0.0339055
1.3085938, -0.5625, -0.6450195, -110, -132.5, 166.0365906, -0.0392767
1.3276367, -0.6010742, -0.640625, -110.9756088, -134.2682953, 168.9634247, -0.0426337
1.3725586, -0.6694336, -0.6499023, -109.8780518, -133.5975647, 168.5975647, -0.0433051
1.3833008, -0.7006836, -0.6499023, -107.0731735, -134.0243988, 167.5, -0.0406195
1.3920898, -0.7602539, -0.6538086, -105.3658524, -139.6341553, 167.0121918, -0.0426337
1.3955078, -0.7729492, -0.6499023, -104.8170776, -143.5365906, 166.7682953, -0.0439765
1.3955078, -0.7832031, -0.6201172, -103.9024429, -152.6219482, 166.7682953, -0.0459907
1.4013672, -0.7978516, -0.5678711, -101.4634171, -156.4634247, 166.4634247, -0.0459907
1.4052734, -0.8061523, -0.5463867, -90.6707306, -164.2073212, 166.4024353, -0.0426337
1.418457, -0.8120117, -0.5185547, -82.9878082, -167.1341553, 166.3414612, -0.0392767
1.4223633, -0.8100586, -0.512207, -67.1341476, -171.8902435, 165.4268341, -0.0379339
1.4326172, -0.7910156, -0.5, -60.2439041, -172.9878082, 164.4512177, -0.0419623
1.4272461, -0.7822266, -0.4946289, -48.9024391, -174.6951294, 161.2804871, -0.0439765
1.4116211, -0.7792969, -0.4824219, -44.4512215, -175.0609741, 159.3292694, -0.0446479
1.3911133, -0.7817383, -0.4760742, -34.6341476, -177.9878082, 155.4268341, -0.0419623
1.3681641, -0.8066406, -0.4848633, -20.3658543, -184.2682953, 152.1341553, -0.0399481
1.355957, -0.8198242, -0.4916992, -12.2560978, -187.9878082, 150.7926788, -0.042298
1.3339844, -0.8212891, -0.5053711, 4.0853658, -196.2804871, 148.7195129, -0.0396124
1.3105469, -0.8129883, -0.5268555, 10.9756098, -199.2682953, 148.1097565, -0.0433051
1.2993164, -0.8061523, -0.5327148, 22.5, -202.1951294, 147.2561035, -0.0446479
1.2729492, -0.7939453, -0.5429688, 27.5, -202.6829376, 147.3780518, -0.0473335
1.2597656, -0.7885742, -0.5551758, 39.3902435, -202.4390259, 147.5, -0.0480049
1.2382812, -0.7797852, -0.581543, 45.9146347, -202.9268341, 147.3780518, -0.0480049
1.2265625, -0.7729492, -0.6005859, 58.2317085, -205.1829376, 147.0731812, -0.0486763
1.1948242, -0.7553711, -0.6474609, 63.1097565, -206.5853729, 146.5243988, -0.0476692
1.1811523, -0.7426758, -0.6713867, 68.3536606, -208.4756165, 145.9756165, -0.0453193
1.1401367, -0.737793, -0.7172852, 67.9878082, -209.2682953, 146.646347, -0.0500191
1.1157227, -0.7397461, -0.7373047, 66.8902435, -209.5731812, 148.0487823, -0.0493477
1.0800781, -0.7436523, -0.769043, 62.8048782, -210.36586, 151.2195129, -0.0493477
1.0517578, -0.7382812, -0.78125, 60.3048782, -210.8536682, 153.0487823, -0.0500191
1.0351562, -0.7392578, -0.7900391, 55.5487823, -212.3170776, 156.646347, -0.0473335
1.012207, -0.7563477, -0.8110352, 52.9878044, -214.0853729, 158.3536682, -0.0486763
1.0019531, -0.7685547, -0.8295898, 47.6829262, -217.86586, 162.5609741, -0.0466621
0.9931641, -0.7871094, -0.8417969, 44.9390259, -220.6707306, 164.8780518, -0.0473335
0.9897461, -0.7910156, -0.8427734, 38.3536606, -225.36586, 169.5731812, -0.0513619
0.984375, -0.7900391, -0.8325195, 35.6097565, -227.0731812, 171.4634247, -0.0550546
0.9780273, -0.7915039, -0.8266602, 31.9512196, -228.9634247, 174.5731812, -0.056733
0.9711914, -0.7885742, -0.8022461, 29.9390259, -230.73172, 176.1585388, -0.0547189
0.9658203, -0.7836914, -0.7963867, 29.5731716, -231.1585388, 176.5243988, -0.0594186
0.953125, -0.7910156, -0.7763672, 27.7439022, -233.4146423, 176.646347, -0.0621042
0.9399414, -0.7905273, -0.7602539, 26.5853672, -234.9390259, 176.9512177, -0.0641184
0.9311523, -0.793457, -0.7509766, 24.9390259, -238.9024506, 177.1341553, -0.0654612
0.9228516, -0.8125, -0.7260742, 25.3048782, -240.9756165, 177.4390259, -0.0681468
0.9204102, -0.8193359, -0.7167969, 29.1463413, -244.0243988, 177.9268341, -0.0674754
0.9199219, -0.8393555, -0.7089844, 32.6219521, -244.8780518, 177.3780518, -0.0661326
0.918457, -0.8549805, -0.7158203, 42.8658562, -245.6707306, 177.0121918, -0.0641184
0.9160156, -0.8779297, -0.7397461, 48.3536606, -245.2439117, 176.646347, -0.0647898
0.9140625, -0.8901367, -0.7602539, 58.4146347, -243.9634247, 175.4878082, -0.063447
0.9082031, -0.8881836, -0.7866211, 65.2439041, -242.1341553, 174.7561035, -0.0661326
0.8994141, -0.8803711, -0.7939453, 67.7439041, -241.3414764, 174.2073212, -0.0674754
0.8901367, -0.8540039, -0.8022461, 71.7073212, -238.4146423, 172.3170776, -0.0688182
0.8666992, -0.8208008, -0.8154297, 73.2926865, -236.7073212, 171.2195129, -0.0647898
0.8564453, -0.8022461, -0.8168945, 76.4634171, -234.5731812, 170.3048859, -0.0688182
0.8339844, -0.7685547, -0.8354492, 78.4146347, -233.9634247, 170.36586, -0.0627756
0.8266602, -0.7553711, -0.8481445, 82.2560959, -232.6829376, 171.1585388, -0.0610971
0.8144531, -0.7333984, -0.887207, 83.1097565, -232.3170776, 171.7073212, -0.0627756
0.8085938, -0.7241211, -0.9047852, 81.5243912, -230.1829376, 172.2561035, -0.0594186
0.7919922, -0.7099609, -0.9418945, 78.6585388, -229.0243988, 172.86586, -0.0594186
0.7841797, -0.7070312, -0.965332, 71.0365906, -226.0365906, 173.9634247, -0.0607614
0.762207, -0.7148438, -0.9892578, 61.7682953, -223.23172, 174.8780518, -0.0641184
0.7543945, -0.71875, -0.9970703, 57.1341476, -222.0731812, 175.9756165, -0.063447
0.7304688, -0.7177734, -0.996582, 47.9878044, -221.8292694, 177.86586, -0.063447
0.7050781, -0.7060547, -0.9682617, 43.2926826, -222.1951294, 178.9634247, -0.0621042
0.6943359, -0.7006836, -0.9462891, 34.2682953, -223.4756165, 180.1219482, -0.0570687
0.6757812, -0.6938477, -0.9116211, 30.3048782, -224.2682953, 180.7317047, -0.0527047
0.6665039, -0.6938477, -0.8901367, 23.8414631, -224.6951294, 181.0975647, -0.0527047
0.6547852, -0.6977539, -0.8500977, 21.2195129, -225.1219635, 181.2804871, -0.0486763
0.6469727, -0.6987305, -0.8217773, 17.560976, -224.5731812, 180.6097565, -0.0446479
0.6254883, -0.7006836, -0.7709961, 16.6463413, -224.512207, 179.8170776, -0.0513619
0.6181641, -0.6987305, -0.7475586, 18.5975609, -223.6585388, 177.9268341, -0.0506905
0.6000977, -0.7192383, -0.7226562, 24.0243912, -222.1341553, 176.5243988, -0.0500191
0.590332, -0.7353516, -0.7270508, 28.1097565, -221.7682953, 176.0365906, -0.0520333
0.574707, -0.7729492, -0.7460938, 36.2195129, -220.2439117, 176.4634247, -0.0480049
0.5776367, -0.8012695, -0.7871094, 40.3048782, -219.3292694, 176.4024506, -0.0399481
0.5820312, -0.815918, -0.8085938, 46.9512215, -216.3414612, 176.9512177, -0.0409552
0.5786133, -0.8242188, -0.8525391, 49.3902435, -214.3902435, 177.3780518, -0.0433051
0.574707, -0.8208008, -0.8657227, 51.6463432, -210.2439117, 177.3780518, -0.0459907
0.5634766, -0.7734375, -0.8642578, 51.1585388, -208.2926941, 177.0731812, -0.0453193
0.550293, -0.7441406, -0.8505859, 47.5, -205.3048859, 175.6097565, -0.0459907
0.5209961, -0.6845703, -0.8085938, 45.6097565, -204.3292694, 174.8780518, -0.0476692
0.5087891, -0.6625977, -0.7900391, 43.0487823, -203.2317047, 173.4146423, -0.0486763
0.4833984, -0.6386719, -0.7661133, 43.9024391, -201.8902435, 172.9878082, -0.0433051
0.4711914, -0.6367188, -0.7636719, 45.6707344, -200.5487823, 173.1707306, -0.0433051
0.4589844, -0.6533203, -0.7915039, 48.9634171, -198.1097565, 174.3292694, -0.0446479
0.4516602, -0.6850586, -0.8486328, 49.7560997, -196.5853729, 175.1219482, -0.0433051
0.4477539, -0.6962891, -0.8754883, 46.0975609, -193.0487823, 176.7682953, -0.0419623
0.434082, -0.7119141, -0.9042969, 41.9512215, -191.646347, 177.7439117, -0.0433051
0.4277344, -0.7070312, -0.9003906, 29.1463413, -190.9146423, 178.2317047, -0.0406195
0.4008789, -0.6845703, -0.8461914, 22.2560978, -191.4634247, 178.5975647, -0.0406195
0.3876953, -0.6694336, -0.8071289, 10.7926836, -192.1341553, 177.4390259, -0.0419623
0.3603516, -0.6567383, -0.7319336, 8.5975609, -191.7682953, 176.3414612, -0.0399481
0.3413086, -0.6621094, -0.7055664, 10.5487804, -190.1219482, 175.1219482, -0.0433051
0.3227539, -0.6918945, -0.7006836, 17.3780499, -187.4390259, 176.2804871, -0.0379339
0.3178711, -0.7080078, -0.7099609, 20.9146347, -186.5853729, 177.4390259, -0.0396124
0.3051758, -0.734375, -0.7387695, 25.3048782, -184.2073212, 179.8780518, -0.0399481
0.2915039, -0.7421875, -0.7607422, 25.5487804, -183.1707306, 181.2804871, -0.0379339
0.2900391, -0.7407227, -0.7641602, 22.9268303, -182.0121918, 183.5365906, -0.0352483
0.2788086, -0.7294922, -0.7495117, 21.0975609, -181.2804871, 185.0609741, -0.0369268
0.2788086, -0.7202148, -0.7382812, 17.8658543, -179.3292694, 187.2561035, -0.0379339
0.2695312, -0.6992188, -0.7104492, 17.2560978, -177.5609741, 188.2317047, -0.0315557
0.2651367, -0.6928711, -0.7021484, 16.5243912, -174.3902435, 188.7195129, -0.0325628
0.2587891, -0.6645508, -0.6816406, 16.0365849, -173.4146423, 188.4756165, -0.03122
0.2475586, -0.6489258, -0.6723633, 12.9878054, -171.8292694, 186.7073212, -0.0285344
0.2294922, -0.6323242, -0.65625, 7.1341467, -172.2561035, 184.2682953, -0.0298772
0.2192383, -0.6264648, -0.6435547, 3.5365853, -173.0487823, 183.1097565, -0.0258488
0.2021484, -0.6342773, -0.6176758, -1.7682927, -173.2317047, 181.8292694, -0.024506
0.1850586, -0.6459961, -0.6005859, -2.6829269, -172.4390259, 181.3414612, -0.0224918
0.1772461, -0.6459961, -0.5952148, -2.6219513, -170.3048859, 180.36586, -0.0191348
0.1577148, -0.6547852, -0.5795898, -2.5, -169.2073212, 179.8170776, -0.0204776
0.1474609, -0.6572266, -0.5742188, -1.2195122, -167.86586, 180, -0.0198062
0.1293945, -0.6860352, -0.5771484, -0.3658537, -166.8292694, 180.7926941, -0.017792
0.1230469, -0.7089844, -0.5844727, 0.9146342, -165.4268341, 182.6829376, -0.0191348
0.1235352, -0.7290039, -0.5932617, 1.2195122, -164.4512177, 184.2073212, -0.0191348
0.1240234, -0.7299805, -0.5908203, 1.4634147, -162.3170776, 185.5487823, -0.0194705
