,Application:, Trigno Discover (1.6.5),Unnamed: 2,Unnamed: 3,Unnamed: 4,Unnamed: 5,Unnamed: 6
0,Date/Time:, 28/01/2025 15:25:03,,,,,
1,Collection Length (seconds):,50.1525,,,,,
2,wrist (81457), , , , , , bicep (81139)
3,sensor mode: 609, , , , , , sensor mode: 40
4,ACC X (G), ACC Y (G), ACC Z (G), GYRO X (deg/s), GYRO Y (deg/s), GYRO Z (deg/s), EMG 1 (mV)
5,370.3704 Hz, 370.3704 Hz, 370.3704 Hz, 370.3704 Hz, 370.3704 Hz, 370.3704 Hz, 2148.1481 Hz
6,-0.8608398,0.4912109,-0.078125,-35.9756088,6.5853658,1.9512196,-0.0433051
7,-0.8579102,0.4833984,-0.0688477,-36.8292694,6.6463418,2.0121951,-0.0459907
8,-0.8579102,0.4814453,-0.0629883,-37.2560997,6.6463418,1.7682927,-0.0446479
9,-0.8569336,0.4858398,-0.0556641,-37.5,7.3170733,1.097561,-0.0453193
10,-0.855957,0.4838867,-0.0498047,-37.3780479,7.1951222,0.6097561,-0.0480049
11,-0.8647461,0.4892578,-0.0429688,-37.4390259,7.0121951,0.0609756,-0.0540475
12,-0.8647461,0.4887695,-0.0439453,-37.8658562,7.0121951,-0.4878049,-0.0459907
13,-0.8618164,0.484375,-0.0429688,-38.3536606,7.0121951,0,-0.0412909
14,-0.8598633,0.4780273,-0.0400391,-38.5975609,7.0731707,-0.0609756,-0.0419623
15,-0.8583984,0.4726562,-0.0463867,-38.9024391,7.3170733,0.6097561,-0.0419623
16,-0.8603516,0.4648438,-0.050293,-39.0243912,7.6829271,0.6097561,-0.0412909
17,-0.8618164,0.4628906,-0.0507812,-39.0243912,8.2926826,0.6097561,-0.0500191
18,-0.8598633,0.4624023,-0.0517578,-39.1463432,8.2317076,0.7317073,-0.0480049
19,-0.8569336,0.4628906,-0.0527344,-39.2682953,8.2317076,-0.3048781,-0.0406195
20,-0.8608398,0.4658203,-0.0585938,-39.9390259,9.0243902,-1.2804878,-0.0426337
21,-0.8603516,0.46875,-0.0605469,-39.7560997,9.0243902,-1.2804878,-0.0369268
22,-0.8662109,0.4775391,-0.0625,-40.1219521,8.9024391,-1.9512196,-0.0426337
23,-0.8652344,0.4824219,-0.0620117,-40.5487823,8.9634151,-1.8902439,-0.0399481
24,-0.8647461,0.4946289,-0.0664062,-41.4634171,9.2073174,-2.5,-0.0426337
25,-0.8554688,0.5009766,-0.0688477,-42.2560997,9.2682924,-2.6219513,-0.0439765
26,-0.8554688,0.5,-0.0688477,-43.6585388,9.3292685,-2.3780489,-0.0480049
27,-0.8476562,0.4985352,-0.0703125,-44.2073174,9.3902445,-2.3170731,-0.0446479
28,-0.8452148,0.496582,-0.0693359,-45.3658562,9.9390249,-2.6829269,-0.0446479
29,-0.847168,0.4912109,-0.0678711,-45.7926826,10.3658543,-2.8658538,-0.0433051
30,-0.8500977,0.4931641,-0.0654297,-46.5243912,10.9146347,-2.804878,-0.0513619
31,-0.8544922,0.496582,-0.065918,-47.1341476,11.4634151,-3.1097562,-0.0527047
32,-0.8579102,0.4980469,-0.0644531,-47.4390259,11.5853662,-3.1097562,-0.0459907
33,-0.8598633,0.5,-0.0654297,-48.5975609,11.7682934,-3.2317073,-0.0473335
34,-0.8642578,0.4990234,-0.0634766,-49.0243912,12.0731707,-3.1707318,-0.0459907
35,-0.8730469,0.4975586,-0.0600586,-49.9390259,11.9512196,-3.5365853,-0.0459907
36,-0.8745117,0.4990234,-0.0546875,-50,12.3170738,-3.7195122,-0.0476692
37,-0.8725586,0.4956055,-0.0488281,-50.6097565,12.1341467,-3.7804878,-0.0486763
38,-0.8735352,0.4926758,-0.0361328,-50.9146347,12.0731707,-3.8414636,-0.0500191
39,-0.8725586,0.4858398,-0.0292969,-50.6097565,12.0731707,-4.2682929,-0.0527047
40,-0.8769531,0.4848633,-0.0244141,-50.4878044,12.3170738,-4.1463413,-0.056733
41,-0.8769531,0.4848633,-0.0229492,-50.1829262,12.6219511,-4.2682929,-0.0547189
42,-0.8793945,0.4790039,-0.019043,-50.3048782,12.6829271,-4.2682929,-0.0553902
43,-0.8823242,0.4780273,-0.0185547,-50.3658562,12.8048782,-4.1463413,-0.0560616
44,-0.8789062,0.4775391,-0.0200195,-50.3048782,12.6219511,-4.2073174,-0.0540475
45,-0.8813477,0.4760742,-0.0273438,-50.3048782,12.6829271,-4.390244,-0.0540475
46,-0.8798828,0.465332,-0.0366211,-50.9146347,12.7439032,-4.2073174,-0.0560616
47,-0.8793945,0.4482422,-0.0371094,-51.2195129,12.8658543,-4.2073174,-0.056733
48,-0.878418,0.4375,-0.0371094,-51.4024391,12.9268293,-3.5975611,-0.0500191
49,-0.8789062,0.4277344,-0.0439453,-51.1585388,12.9268293,-3.5975611,-0.0486763
50,-0.8745117,0.4291992,-0.043457,-50.8536606,13.4146347,-3.9024391,-0.0473335
51,-0.8735352,0.4404297,-0.0380859,-50.7926826,13.7195129,-4.6951222,-0.0486763
52,-0.8789062,0.4443359,-0.0385742,-50.2439041,13.9024391,-5.1219511,-0.0540475
53,-0.8828125,0.4575195,-0.0400391,-50.0609779,14.1463413,-5.4878049,-0.0607614
54,-0.8876953,0.4648438,-0.0444336,-49.7560997,14.1463413,-5.670732,-0.0513619
55,-0.8911133,0.4780273,-0.0458984,-49.6951218,13.9024391,-5.9756098,-0.0453193
56,-0.8891602,0.4897461,-0.0473633,-49.3902435,13.4756098,-5.7926831,-0.0446479
57,-0.8833008,0.5019531,-0.0541992,-49.7560997,13.7195129,-6.280488,-0.0466621
58,-0.8857422,0.5097656,-0.0595703,-49.7560997,13.7195129,-6.2195125,-0.0466621
59,-0.8833008,0.5141602,-0.059082,-50.9146347,13.7195129,-6.1585369,-0.0500191
60,-0.8740234,0.5117188,-0.0556641,-51.6463432,13.4146347,-5.9756098,-0.0500191
61,-0.8701172,0.5063477,-0.0546875,-52.4390259,13.5975609,-6.0975609,-0.0419623
62,-0.8676758,0.4921875,-0.0546875,-53.1707344,14.1463413,-5.9756098,-0.0365911
63,-0.8666992,0.4902344,-0.0512695,-53.9024391,14.3902445,-6.0365853,-0.0386053
64,-0.8696289,0.4887695,-0.0439453,-53.6585388,14.7560978,-5.9756098,-0.0409552
65,-0.8740234,0.4892578,-0.0390625,-53.7804909,14.5731707,-6.0365853,-0.0392767
66,-0.8823242,0.496582,-0.03125,-53.7195129,14.6951227,-6.5853658,-0.0406195
67,-0.8828125,0.4980469,-0.0322266,-53.7804909,14.5121956,-6.6463418,-0.0426337
68,-0.8818359,0.5014648,-0.0390625,-54.5121956,14.7560978,-7.0731707,-0.0412909
69,-0.8862305,0.5043945,-0.0209961,-55.0609779,15,-7.4390244,-0.0486763
70,-0.8862305,0.5039062,-0.0214844,-55.2439041,14.3292685,-7.5,-0.0446479
71,-0.8764648,0.4960938,-0.0253906,-55.7317085,13.7195129,-7.3170733,-0.0433051
72,-0.8730469,0.496582,-0.0224609,-56.6463432,14.2682934,-6.890244,-0.0386053
73,-0.8662109,0.4916992,-0.0141602,-57.6219521,14.2682934,-7.0121951,-0.0406195
74,-0.871582,0.4912109,-0.0126953,-58.6585388,14.7560978,-7.6829271,-0.0419623
75,-0.8774414,0.4833984,-0.0078125,-59.6951218,15.1219511,-8.5365858,-0.0459907
76,-0.8779297,0.4765625,0.0009766,-60.1219521,14.8780489,-8.4146347,-0.0503548
77,-0.8793945,0.4746094,0.0102539,-59.8780518,14.6951227,-8.1707315,-0.0486763
78,-0.8837891,0.4672852,0.0146484,-60.0609779,14.8780489,-8.3536587,-0.056733
79,-0.8857422,0.465332,0.0087891,-59.9390259,14.7560978,-7.9878049,-0.0513619
80,-0.8901367,0.4599609,0.0078125,-60.2439041,14.6341467,-7.8048782,-0.0513619
81,-0.8881836,0.4492188,0.0073242,-60.2439041,14.6341467,-7.5,-0.0527047
82,-0.8867188,0.4389648,0.0102539,-59.8780518,14.4512196,-7.5,-0.0580758
83,-0.8891602,0.4326172,0.012207,-59.0243912,14.2073174,-7.8048782,-0.0527047
84,-0.8847656,0.4399414,0.0107422,-58.5975609,13.9634151,-7.6219516,-0.0540475
85,-0.8813477,0.4384766,0.0131836,-57.8048782,13.841464,-8.1707315,-0.0540475
86,-0.8833008,0.4389648,0.0131836,-57.5,13.780488,-7.9268293,-0.0557259
87,-0.8857422,0.4423828,0.0185547,-57.0731735,13.7195129,-7.9268293,-0.0553902
88,-0.8896484,0.4516602,0.019043,-56.6463432,13.9634151,-7.8658538,-0.0570687
89,-0.8911133,0.4575195,0.0200195,-56.9512215,13.7195129,-7.8048782,-0.0594186
90,-0.8901367,0.4648438,0.015625,-57.0121956,13.780488,-7.8658538,-0.0500191
91,-0.8920898,0.4682617,0.019043,-57.2560997,13.5365858,-7.5609756,-0.0466621
92,-0.890625,0.472168,0.0224609,-57.8658562,13.5365858,-7.5,-0.0433051
93,-0.8891602,0.4677734,0.0292969,-58.1707344,13.1707315,-7.7439027,-0.0446479
94,-0.887207,0.4658203,0.03125,-58.5365868,13.4756098,-7.2560978,-0.0439765
95,-0.8867188,0.4677734,0.0283203,-58.4146347,13.5365858,-6.890244,-0.0406195
96,-0.8862305,0.4658203,0.0317383,-58.1707344,13.5975609,-6.3414636,-0.0392767
97,-0.8823242,0.4677734,0.034668,-58.2926826,13.4756098,-6.0365853,-0.0406195
98,-0.8842773,0.4638672,0.03125,-58.2317085,13.4146347,-5.9756098,-0.0486763
99,-0.8930664,0.4624023,0.0288086,-58.3536606,13.7195129,-5.670732,-0.0406195
100,-0.8935547,0.46875,0.0268555,-58.4756126,13.6585369,-5.609756,-0.0406195
101,-0.8994141,0.4672852,0.0322266,-58.5975609,13.2926836,-5.670732,-0.0412909
102,-0.9052734,0.4716797,0.0322266,-58.9634171,13.1707315,-5.5487804,-0.0396124
103,-0.9013672,0.4746094,0.0292969,-59.0853691,13.1707315,-5.670732,-0.0406195
104,-0.9047852,0.4819336,0.027832,-59.5731735,12.8658543,-5.4268293,-0.0493477
105,-0.9077148,0.4858398,0.0307617,-60.2439041,13.1097565,-5.4878049,-0.0446479
106,-0.9106445,0.4848633,0.0375977,-60.4878044,13.2317076,-5.3048782,-0.0399481
107,-0.9160156,0.4833984,0.0419922,-61.2195129,12.7439032,-5.3048782,-0.0419623
108,-0.9179688,0.4736328,0.0361328,-61.4024391,13.0487804,-4.8780489,-0.0365911
109,-0.9223633,0.4755859,0.0336914,-61.4634171,13.1097565,-4.4512196,-0.0379339
110,-0.9291992,0.4692383,0.0317383,-61.0975609,13.1097565,-3.9024391,-0.0372625
111,-0.9331055,0.4633789,0.0327148,-61.0365868,12.9268293,-3.7804878,-0.0433051
112,-0.934082,0.4516602,0.0283203,-60.9756126,12.560976,-3.6585367,-0.0369268
113,-0.9326172,0.4272461,0.0263672,-60.6707344,12.5,-3.4146342,-0.035584
114,-0.934082,0.4189453,0.0258789,-59.3902435,12.1951218,-2.804878,-0.0365911
115,-0.9404297,0.4033203,0.0224609,-58.4756126,12.0121956,-2.804878,-0.0352483
116,-0.9414062,0.3989258,0.0146484,-56.4634171,11.7682934,-2.6219513,-0.0339055
117,-0.9462891,0.3969727,0.0063477,-55.6097565,11.6463413,-2.6829269,-0.0419623
118,-0.9492188,0.3950195,0.0043945,-54.2682953,10.7317076,-2.5609756,-0.0426337
119,-0.9443359,0.3964844,-0.0043945,-52.6219521,10.1829271,-2.9268293,-0.0339055
120,-0.9428711,0.3955078,-0.0053711,-51.9512215,10,-2.7439024,-0.0359197
121,-0.9453125,0.3984375,-0.0112305,-50.7317085,9.0853662,-2.3780489,-0.0352483
122,-0.9472656,0.402832,-0.0112305,-50.6097565,8.9634151,-2.5609756,-0.0372625
123,-0.9370117,0.4023438,-0.0083008,-50.1829262,8.841464,-1.9512196,-0.03122
124,-0.9311523,0.4008789,-0.0092773,-49.9390259,8.5365858,-1.8902439,-0.0352483
125,-0.9321289,0.4018555,-0.0112305,-48.841465,8.9024391,-2.1341465,-0.0379339
126,-0.9414062,0.4130859,-0.0161133,-48.5975609,8.841464,-2.0121951,-0.0372625
127,-0.9448242,0.4155273,-0.0209961,-48.0487823,8.780488,-1.5853659,-0.0433051
128,-0.9501953,0.4233398,-0.0229492,-47.5609779,8.5365858,-1.4634147,-0.0386053
129,-0.9526367,0.4213867,-0.0200195,-47.0121956,8.2926826,-0.5487805,-0.0342412
130,-0.9492188,0.4213867,-0.0126953,-46.7682953,7.7439027,-0.7317073,-0.0396124
131,-0.9487305,0.4194336,-0.0102539,-46.4024391,7.5,-0.5487805,-0.035584
132,-0.9501953,0.4106445,0.0024414,-45.3658562,7.5,-0.4268293,-0.0325628
133,-0.9526367,0.4101562,0.0083008,-43.9024391,6.890244,-0.2439024,-0.0382696
134,-0.949707,0.4116211,0.0126953,-41.7682953,6.280488,-0.0609756,-0.0359197
135,-0.9448242,0.4199219,0.0151367,-40.9756088,5.4878049,-0.1219512,-0.0302129
136,-0.9458008,0.4248047,0.0131836,-39.6341476,4.7560978,-0.3658537,-0.0325628
137,-0.9399414,0.4306641,0.0151367,-38.5975609,4.6341462,-0.1219512,-0.03122
138,-0.9365234,0.4296875,0.0175781,-37.8048782,4.2682929,-0.2439024,-0.0325628
139,-0.9243164,0.4277344,0.0161133,-37.4390259,4.1463413,0,-0.0386053
140,-0.921875,0.4223633,0.012207,-37.1341476,3.9024391,0.4268293,-0.0406195
141,-0.9174805,0.4189453,0.0200195,-35.9756088,3.6585367,0.4878049,-0.0352483
142,-0.9140625,0.4150391,0.0224609,-35.7317085,3.8414636,0.4268293,-0.0399481
143,-0.9160156,0.4042969,0.0136719,-34.6951218,4.0243902,0.4878049,-0.0379339
144,-0.9204102,0.402832,0.0073242,-34.3902435,4.4512196,0.6097561,-0.0359197
145,-0.9243164,0.4023438,-0.0048828,-33.0487823,4.4512196,0.6097561,-0.0379339
146,-0.9282227,0.3989258,-0.0083008,-32.3780479,4.3292685,0.9146342,-0.0446479
147,-0.9291992,0.402832,-0.0097656,-30.4268303,3.2926829,0.6097561,-0.0473335
148,-0.9296875,0.3989258,-0.0131836,-29.3292694,3.0487804,0.3048781,-0.038941
149,-0.9291992,0.4008789,-0.019043,-27.7439022,2.4390244,0.2439024,-0.0369268
150,-0.9248047,0.4013672,-0.0166016,-27.4390259,2.2560976,0.0609756,-0.0379339
151,-0.9228516,0.3964844,-0.015625,-25.3048782,1.8902439,0.6097561,-0.0365911
152,-0.9101562,0.3876953,-0.0166016,-23.4756107,1.5243902,0.4268293,-0.0406195
153,-0.9077148,0.3886719,-0.0146484,-22.6219521,1.4634147,0.6097561,-0.0433051
154,-0.9013672,0.3891602,-0.0161133,-21.0975609,1.5243902,0.7926829,-0.0412909
155,-0.90625,0.387207,-0.0229492,-20.1219521,1.5853659,0.9146342,-0.0486763
156,-0.9057617,0.3925781,-0.0219727,-18.6585369,1.402439,0.8536586,-0.0527047
157,-0.9072266,0.390625,-0.0288086,-18.2926826,1.3414634,1.2804878,-0.0446479
158,-0.9038086,0.3862305,-0.0356445,-17.1341476,1.2195122,1.5853659,-0.0399481
159,-0.9082031,0.3730469,-0.0478516,-16.7682934,1.4634147,1.7073171,-0.0459907
160,-0.9077148,0.3632812,-0.0498047,-15.4878054,1.1585366,2.195122,-0.0433051
161,-0.90625,0.347168,-0.046875,-14.1463413,0.6707317,2.3780489,-0.0392767
162,-0.9047852,0.3427734,-0.0488281,-12.9268293,0.3658537,2.3170731,-0.0473335
163,-0.9018555,0.3354492,-0.0512695,-10.1219511,0.7926829,1.5243902,-0.0486763
164,-0.9052734,0.3466797,-0.0551758,-8.4756098,0.7317073,1.4634147,-0.0406195
165,-0.909668,0.3696289,-0.0703125,-6.2195125,0.1219512,0.6097561,-0.0433051
166,-0.9077148,0.3964844,-0.0791016,-5.3658538,-0.3048781,0.4878049,-0.0406195
167,-0.9042969,0.4101562,-0.0834961,-3.9024391,-0.6707317,-0.0609756,-0.0419623
168,-0.8979492,0.4301758,-0.0854492,-3.9024391,-0.7317073,-0.8536586,-0.0433051
169,-0.8935547,0.4350586,-0.090332,-3.8414636,-1.0365853,-1.1585366,-0.0459907
170,-0.8862305,0.4399414,-0.090332,-4.2073174,-0.9756098,-1.2195122,-0.0439765
171,-0.8828125,0.4433594,-0.0878906,-4.390244,-0.6097561,-1.097561,-0.0392767
172,-0.8798828,0.4370117,-0.0898438,-5.5487804,0,-1.2195122,-0.0419623
173,-0.8759766,0.4375,-0.0869141,-6.0975609,0.6707317,-1.3414634,-0.0409552
174,-0.8691406,0.4287109,-0.0883789,-7.5,1.7073171,-1.7073171,-0.0406195
175,-0.8706055,0.4243164,-0.0932617,-8.4756098,2.0731707,-2.195122,-0.0449836
176,-0.8789062,0.4145508,-0.1030273,-9.9390249,2.5609756,-2.7439024,-0.0406195
177,-0.8837891,0.4023438,-0.1152344,-10.6097565,3.1097562,-2.9878049,-0.0396124
178,-0.8857422,0.3989258,-0.1210938,-12.0121956,3.2317073,-4.4512196,-0.0396124
179,-0.8735352,0.402832,-0.1254883,-12.8658543,3.0487804,-5,-0.0379339
180,-0.8764648,0.4072266,-0.1235352,-14.7560978,2.9878049,-6.890244,-0.0379339
181,-0.8632812,0.4121094,-0.121582,-15.7926836,3.4756098,-7.8048782,-0.0392767
182,-0.8608398,0.4150391,-0.1166992,-19.0853672,4.7560978,-9.8170738,-0.0392767
183,-0.8544922,0.4179688,-0.09375,-22.8658543,5.7317076,-11.4024391,-0.0419623
184,-0.8500977,0.418457,-0.0864258,-24.1463413,6.2195125,-12.0121956,-0.0412909
185,-0.8481445,0.4174805,-0.0766602,-27.6829281,7.9878049,-12.560976,-0.0473335
186,-0.8481445,0.4208984,-0.0688477,-29.3292694,8.719512,-12.9878054,-0.0439765
187,-0.8481445,0.4213867,-0.0493164,-32.3780479,10.7926836,-13.6585369,-0.0439765
188,-0.8530273,0.418457,-0.027832,-33.7195129,11.0975609,-13.9634151,-0.0459907
189,-0.8549805,0.4174805,-0.0234375,-34.9390259,11.9512196,-14.5731707,-0.0486763
190,-0.8676758,0.40625,-0.0209961,-35.1829262,12.8658543,-14.9390249,-0.0473335
191,-0.8730469,0.3994141,-0.0209961,-35.4268303,13.841464,-14.3902445,-0.0520333
192,-0.8759766,0.3950195,-0.0214844,-35.1829262,14.0243902,-13.9634151,-0.0540475
193,-0.8769531,0.3886719,-0.0224609,-33.4756088,14.3902445,-14.3292685,-0.0459907
194,-0.8881836,0.3857422,-0.0405273,-31.6463413,14.8780489,-14.7560978,-0.0493477
195,-0.8979492,0.3901367,-0.0498047,-30.9756107,15.4268293,-14.8780489,-0.0516976
196,-0.9267578,0.3974609,-0.0673828,-29.0243912,16.0975609,-14.5121956,-0.0543832
197,-0.9316406,0.4047852,-0.0791016,-28.2926826,16.1585369,-14.0853662,-0.056733
198,-0.956543,0.4160156,-0.1025391,-26.8292694,15.7317076,-13.7195129,-0.0574044
199,-0.9648438,0.4204102,-0.1225586,-25.6707325,15.060976,-13.5975609,-0.0594186
200,-0.9682617,0.4199219,-0.1313477,-23.2926826,13.4146347,-13.4146347,-0.0516976
201,-0.9750977,0.4267578,-0.1508789,-22.3780499,12.7439032,-12.9268293,-0.0540475
202,-0.9697266,0.4272461,-0.1572266,-20.7926826,11.341464,-12.6829271,-0.0540475
203,-0.9604492,0.4331055,-0.1728516,-20.3048782,10.4268293,-12.6829271,-0.0513619
204,-0.9521484,0.4326172,-0.1860352,-19.2073174,9.6951218,-12.560976,-0.0540475
205,-0.9472656,0.4316406,-0.1933594,-18.1707325,8.719512,-12.0731707,-0.056733
206,-0.9399414,0.4345703,-0.1987305,-17.560976,8.2317076,-12.1341467,-0.0513619
207,-0.9418945,0.4316406,-0.2006836,-16.6463413,7.6219516,-11.5243902,-0.0459907
208,-0.9365234,0.4316406,-0.1977539,-15.9756098,7.1951222,-11.219512,-0.0473335
209,-0.9335938,0.4433594,-0.2119141,-15.4268293,6.3414636,-11.341464,-0.0513619
210,-0.9384766,0.4536133,-0.2163086,-15.5487804,6.3414636,-11.9512196,-0.0480049
211,-0.9428711,0.4580078,-0.2128906,-16.5853653,6.1585369,-12.0121956,-0.0459907
212,-0.9350586,0.4516602,-0.1889648,-16.7682934,5.609756,-12.2560978,-0.0446479
213,-0.9316406,0.4433594,-0.1796875,-15.8536587,4.6951222,-12.3780489,-0.0439765
214,-0.9311523,0.4365234,-0.1708984,-15.3658543,4.2073174,-12.6219511,-0.0540475
215,-0.9331055,0.4350586,-0.1679688,-14.3902445,4.6951222,-12.0121956,-0.0476692
216,-0.9370117,0.4375,-0.1625977,-15.060976,4.3292685,-11.7073174,-0.0439765
217,-0.9360352,0.4360352,-0.1572266,-14.9390249,3.7195122,-12.0731707,-0.0486763
218,-0.9311523,0.4213867,-0.1513672,-15,2.5609756,-12.1951218,-0.0463264
219,-0.9291992,0.4111328,-0.1450195,-14.9390249,1.9512196,-12.0121956,-0.0506905
220,-0.9169922,0.390625,-0.1381836,-14.5731707,1.9512196,-12.0731707,-0.056733
221,-0.9140625,0.3847656,-0.1435547,-13.9634151,2.1341465,-12.2560978,-0.0587472
222,-0.9125977,0.3837891,-0.1484375,-12.6219511,2.0121951,-12.0121956,-0.0540475
223,-0.9160156,0.3935547,-0.1552734,-12.0121956,2.2560976,-11.8292685,-0.0527047
224,-0.9165039,0.3925781,-0.1655273,-10.6097565,1.4634147,-11.8902445,-0.0527047
225,-0.909668,0.3984375,-0.1723633,-10.4878054,1.6463414,-12.1951218,-0.0543832
226,-0.9106445,0.3955078,-0.175293,-9.3902445,1.402439,-11.7682934,-0.0553902
227,-0.9067383,0.3867188,-0.1767578,-8.1097565,1.2195122,-10.7317076,-0.0594186
228,-0.9077148,0.3891602,-0.1772461,-7.3780489,0.8536586,-10.4878054,-0.0543832
229,-0.8950195,0.387207,-0.1704102,-4.8170733,0.3658537,-9.8780489,-0.0500191
230,-0.8911133,0.3916016,-0.1645508,-3.4756098,0.4878049,-9.6341467,-0.0486763
231,-0.8842773,0.4052734,-0.1611328,-1.1585366,0.6097561,-9.6951218,-0.0480049
232,-0.8891602,0.4223633,-0.1557617,-0.3048781,0.0609756,-9.6951218,-0.0480049
233,-0.887207,0.4311523,-0.1552734,1.0365853,0.0609756,-8.719512,-0.0513619
234,-0.8833008,0.440918,-0.1459961,1.402439,0.1219512,-8.3536587,-0.0530404
235,-0.8828125,0.4350586,-0.1391602,2.195122,0.1219512,-7.3170733,-0.0493477
236,-0.8818359,0.4311523,-0.1333008,2.0731707,0.3048781,-6.890244,-0.049012
237,-0.8852539,0.4331055,-0.1337891,3.3536587,0.7317073,-6.0975609,-0.0486763
238,-0.8950195,0.4296875,-0.1279297,4.4512196,1.1585366,-5.1219511,-0.0533761
239,-0.8999023,0.4335938,-0.1289062,5.0609756,0.8536586,-5,-0.0530404
240,-0.9125977,0.4399414,-0.128418,6.4634147,0.8536586,-4.2682929,-0.0493477
241,-0.9238281,0.4414062,-0.1264648,7.3170733,0.5487805,-4.0243902,-0.0466621
242,-0.9350586,0.4501953,-0.1318359,9.4512196,0.0609756,-2.9878049,-0.0459907
243,-0.9433594,0.4555664,-0.1459961,10.3048782,-0.5487805,-2.804878,-0.0540475
244,-0.9453125,0.4624023,-0.1508789,12.2560978,-1.0365853,-2.2560976,-0.0500191
245,-0.9467773,0.4648438,-0.1611328,13.1707315,-1.2195122,-1.7073171,-0.0486763
246,-0.9428711,0.4633789,-0.1655273,14.6341467,-1.8292683,-1.2804878,-0.0486763
247,-0.9326172,0.4648438,-0.1655273,15.1219511,-2.804878,-1.097561,-0.0459907
248,-0.9267578,0.4726562,-0.1674805,15.8536587,-3.4146342,-0.3658537,-0.0480049
249,-0.9155273,0.4731445,-0.1547852,16.5243912,-3.4146342,-0.1219512,-0.0553902
250,-0.9091797,0.4697266,-0.1533203,16.7073174,-3.2317073,-0.1219512,-0.0530404
251,-0.9091797,0.4770508,-0.1577148,16.7682934,-2.804878,0.0609756,-0.0446479
252,-0.9130859,0.4794922,-0.1591797,16.7682934,-2.9268293,0.4878049,-0.0433051
253,-0.9155273,0.484375,-0.1665039,16.3414631,-2.804878,0.8536586,-0.0500191
254,-0.9174805,0.484375,-0.1655273,16.280489,-2.8658538,1.2195122,-0.049012
255,-0.918457,0.4853516,-0.1635742,15.1219511,-2.6829269,1.0365853,-0.0476692
256,-0.9204102,0.4824219,-0.1665039,15.1829271,-2.6829269,0.3048781,-0.06009
257,-0.9233398,0.4829102,-0.1713867,15.060976,-2.195122,0.3658537,-0.0540475
258,-0.9243164,0.4833984,-0.171875,15.3048782,-2.3170731,0.3048781,-0.0486763
259,-0.9257812,0.4858398,-0.1713867,15.9756098,-2.6829269,0.4268293,-0.0506905
260,-0.9238281,0.5009766,-0.1806641,16.6463413,-2.9268293,-0.1829268,-0.0473335
261,-0.9194336,0.5126953,-0.1821289,16.6463413,-2.8658538,-0.4268293,-0.0473335
262,-0.9130859,0.5214844,-0.1826172,15.7926836,-2.6219513,-0.9756098,-0.0527047
263,-0.9052734,0.5200195,-0.1801758,15.2439032,-2.6829269,-1.2195122,-0.0540475
264,-0.9018555,0.5224609,-0.175293,14.3902445,-2.5,-1.5243902,-0.0473335
265,-0.8964844,0.5180664,-0.1694336,13.7195129,-2.1341465,-1.7073171,-0.0486763
266,-0.8896484,0.5161133,-0.1699219,13.5365858,-1.9512196,-0.9756098,-0.0449836
267,-0.894043,0.5112305,-0.1738281,13.2926836,-1.5243902,-0.6707317,-0.0446479
268,-0.8979492,0.5063477,-0.1713867,13.2317076,-0.8536586,0.2439024,-0.0436408
269,-0.9023438,0.4941406,-0.1674805,13.2317076,-0.6097561,0.3658537,-0.0433051
270,-0.9057617,0.487793,-0.1669922,12.9878054,-0.7317073,1.0365853,-0.0433051
271,-0.9111328,0.4692383,-0.1699219,13.7195129,-0.6097561,1.402439,-0.042298
272,-0.9169922,0.4624023,-0.1689453,14.2682934,-0.8536586,1.4634147,-0.0493477
273,-0.925293,0.4487305,-0.1689453,15.9756098,-1.2195122,2.2560976,-0.0433051
274,-0.9296875,0.4462891,-0.1733398,17.1341476,-1.5243902,2.5,-0.0352483
275,-0.9355469,0.4560547,-0.1821289,19.0853672,-2.1341465,2.9268293,-0.0365911
276,-0.9394531,0.46875,-0.206543,19.6951218,-2.3780489,3.1707318,-0.0439765
277,-0.9379883,0.4716797,-0.2158203,20.8536587,-3.2317073,3.2317073,-0.0473335
278,-0.9326172,0.480957,-0.2333984,21.4634151,-3.8414636,3.7195122,-0.0486763
279,-0.9326172,0.4814453,-0.2348633,22.3170738,-4.6951222,4.2682929,-0.0500191
280,-0.9174805,0.4848633,-0.2426758,22.6219521,-5.1219511,4.6341462,-0.0466621
281,-0.9111328,0.4819336,-0.2436523,22.6829281,-5.4268293,5.1219511,-0.0506905
282,-0.8964844,0.4765625,-0.2421875,22.5,-5.4878049,5.8536587,-0.0513619
283,-0.8920898,0.4672852,-0.2382812,22.3170738,-5.3658538,6.3414636,-0.0473335
284,-0.8876953,0.4604492,-0.2270508,22.8048782,-5.1219511,6.6463418,-0.0493477
285,-0.8916016,0.4609375,-0.2280273,22.8658543,-5.0609756,6.7682929,-0.0500191
286,-0.8959961,0.472168,-0.2250977,23.7195129,-5.2439027,7.0731707,-0.0446479
287,-0.8989258,0.4858398,-0.2260742,24.0243912,-5.4268293,7.0121951,-0.0433051
288,-0.8994141,0.4936523,-0.2338867,24.0243912,-5.9756098,7.1341467,-0.0446479
289,-0.9091797,0.5004883,-0.246582,23.6585369,-6.1585369,7.1341467,-0.0446479
290,-0.9018555,0.5029297,-0.2514648,22.7439022,-6.4634147,6.9512196,-0.0446479
291,-0.8901367,0.4946289,-0.2631836,22.560976,-6.890244,7.1951222,-0.0516976
292,-0.8779297,0.4873047,-0.2646484,21.7682934,-7.2560978,6.5853658,-0.0503548
293,-0.8618164,0.4824219,-0.2695312,21.0975609,-8.0487804,6.2195125,-0.0476692
294,-0.8540039,0.4833984,-0.2719727,21.0365868,-7.6829271,6.0975609,-0.0426337
295,-0.8413086,0.4907227,-0.2749023,20.4878044,-7.2560978,5.8536587,-0.0439765
296,-0.8408203,0.4951172,-0.2783203,20.6707325,-7.3170733,5.4878049,-0.0379339
297,-0.8354492,0.5087891,-0.2797852,19.7560978,-7.0731707,5.1829271,-0.0386053
298,-0.8408203,0.5161133,-0.2856445,19.4512196,-6.8292685,5,-0.0379339
299,-0.84375,0.5146484,-0.2841797,18.0487804,-6.8292685,5,-0.0379339
300,-0.8461914,0.5136719,-0.2885742,17.2560978,-6.890244,4.8170733,-0.0379339
301,-0.8505859,0.5083008,-0.2890625,15.9146347,-6.890244,5.3048782,-0.0436408
302,-0.8491211,0.4936523,-0.2895508,15.3048782,-6.890244,5.2439027,-0.0379339
303,-0.8535156,0.4868164,-0.2861328,14.4512196,-6.4024391,5.7317076,-0.0372625
304,-0.855957,0.4702148,-0.2768555,14.0853662,-6.0975609,5.7926831,-0.0345769
305,-0.8632812,0.4658203,-0.2763672,14.5121956,-6.0975609,5.9146342,-0.0325628
306,-0.8696289,0.4545898,-0.2773438,15.6707325,-6.3414636,6.4024391,-0.03122
307,-0.8720703,0.4506836,-0.2749023,16.280489,-6.8292685,6.4634147,-0.0386053
308,-0.8662109,0.449707,-0.2724609,17.439024,-7.3780489,6.5853658,-0.0406195
309,-0.8632812,0.4443359,-0.2695312,17.9268303,-7.5,6.7073174,-0.0318914
310,-0.8671875,0.4492188,-0.2709961,17.9878044,-7.0731707,7.1341467,-0.03122
311,-0.8657227,0.4453125,-0.2753906,17.8658543,-7.3170733,7.5609756,-0.0406195
312,-0.862793,0.4423828,-0.2753906,17.3780499,-7.1341467,7.8658538,-0.0392767
313,-0.8598633,0.4394531,-0.2719727,17.1951218,-7.2560978,7.8658538,-0.0406195
314,-0.862793,0.4311523,-0.2695312,16.8902435,-7.1951222,8.5365858,-0.0486763
315,-0.8613281,0.4179688,-0.2617188,17.2560978,-7.0121951,9.0853662,-0.0386053
316,-0.859375,0.4160156,-0.2587891,17.7439022,-7.0731707,9.2682924,-0.0352483
317,-0.8510742,0.409668,-0.246582,18.2317085,-6.890244,9.6951218,-0.0386053
318,-0.8520508,0.4091797,-0.2412109,18.3536587,-6.8292685,9.9390249,-0.0386053
319,-0.8569336,0.4165039,-0.2387695,19.1463413,-6.2195125,10.1219511,-0.0406195
320,-0.8608398,0.4272461,-0.2338867,19.3292694,-5.9146342,9.8170738,-0.0466621
321,-0.8662109,0.4399414,-0.2402344,20.1219521,-6.0975609,10.060976,-0.0459907
322,-0.8730469,0.4589844,-0.2607422,19.8780499,-6.0365853,10.2439022,-0.0419623
323,-0.875,0.465332,-0.269043,19.3902435,-6.0975609,10.7317076,-0.0406195
324,-0.8720703,0.4648438,-0.2797852,18.780489,-6.280488,10.8536587,-0.0426337
325,-0.8671875,0.4628906,-0.2807617,17.9878044,-6.5853658,11.5243902,-0.0486763
326,-0.8613281,0.4477539,-0.277832,17.6219521,-6.5243902,11.5243902,-0.0459907
327,-0.8569336,0.4443359,-0.2788086,17.6829281,-6.7073174,11.4634151,-0.0433051
328,-0.855957,0.4384766,-0.2744141,18.0487804,-6.3414636,11.4634151,-0.0433051
329,-0.8608398,0.4458008,-0.2724609,18.4146347,-6.1585369,11.4634151,-0.0433051
330,-0.8701172,0.4638672,-0.2729492,18.7195129,-6.3414636,11.219512,-0.0506905
331,-0.8745117,0.4833984,-0.2734375,18.780489,-6.5853658,10.9756098,-0.0439765
332,-0.8818359,0.4907227,-0.2758789,18.780489,-7.0121951,10.7317076,-0.0433051
333,-0.8808594,0.4975586,-0.2817383,18.780489,-7.0121951,10.9756098,-0.0473335
334,-0.8808594,0.4975586,-0.2856445,17.8658543,-7.6829271,11.1585369,-0.0446479
335,-0.8818359,0.4907227,-0.293457,17.6829281,-8.1097565,11.5853662,-0.0419623
336,-0.8813477,0.484375,-0.2905273,17.6219521,-8.6585369,12.1951218,-0.0433051
337,-0.8720703,0.4746094,-0.2958984,17.9268303,-9.1463413,12.560976,-0.0426337
338,-0.8686523,0.4716797,-0.2963867,17.9878044,-8.9634151,12.4390249,-0.0352483
339,-0.8706055,0.4726562,-0.3037109,17.8658543,-8.9634151,11.7682934,-0.0382696
340,-0.8813477,0.4736328,-0.3056641,17.8658543,-9.2073174,11.4024391,-0.0386053
341,-0.8862305,0.4780273,-0.3037109,17.6829281,-9.5121956,11.280488,-0.0379339
342,-0.8891602,0.4780273,-0.296875,17.5,-9.8170738,11.341464,-0.0372625
343,-0.8935547,0.4794922,-0.2910156,17.1951218,-10.060976,10.7317076,-0.0406195
344,-0.890625,0.4785156,-0.2836914,16.9512196,-10.4268293,10.9756098,-0.0318914
345,-0.894043,0.4829102,-0.277832,16.6463413,-10.5487804,10.8536587,-0.0339055
346,-0.8935547,0.4833984,-0.2783203,15.9146347,-11.0365858,10.4268293,-0.0359197
347,-0.890625,0.4863281,-0.2773438,15.6707325,-10.9756098,10.3658543,-0.0342412
348,-0.8920898,0.4819336,-0.2768555,15.1829271,-11.341464,10.1219511,-0.0372625
349,-0.8950195,0.4858398,-0.2783203,14.9390249,-11.7073174,9.9390249,-0.0446479
350,-0.8935547,0.4882812,-0.2832031,14.1463413,-11.5243902,9.6341467,-0.0453193
351,-0.8891602,0.4931641,-0.2939453,13.780488,-11.8292685,9.4512196,-0.0392767
352,-0.8857422,0.4868164,-0.2954102,13.2926836,-11.6463413,8.780488,-0.0386053
353,-0.8833008,0.4794922,-0.2988281,12.9878054,-12.0731707,8.5975609,-0.0359197
354,-0.8793945,0.4765625,-0.3007812,11.7682934,-12.1951218,8.5975609,-0.0365911
355,-0.8632812,0.4746094,-0.3037109,11.1585369,-12.1951218,8.4756098,-0.0399481
356,-0.862793,0.4672852,-0.3046875,10.2439022,-11.7073174,7.9878049,-0.0369268
357,-0.8652344,0.4726562,-0.3085938,9.5731707,-11.280488,7.4390244,-0.0369268
358,-0.8637695,0.4736328,-0.309082,9.3902445,-10.8536587,7.0731707,-0.0406195
359,-0.8686523,0.487793,-0.3105469,8.2317076,-10.7926836,6.2195125,-0.0433051
360,-0.8666992,0.4960938,-0.3056641,7.3780489,-10.6707315,5.8536587,-0.0392767
361,-0.8588867,0.5078125,-0.293457,6.0975609,-11.0975609,4.9390244,-0.0399481
362,-0.859375,0.5087891,-0.2871094,5.3658538,-10.7926836,4.5731707,-0.0359197
363,-0.8647461,0.5083008,-0.2802734,3.4146342,-10.060976,4.1463413,-0.0379339
364,-0.8608398,0.5068359,-0.2783203,2.804878,-10.1219511,4.390244,-0.0345769
365,-0.8588867,0.5043945,-0.2744141,1.0365853,-9.6951218,5.3048782,-0.0419623
366,-0.855957,0.4897461,-0.2641602,0.4878049,-9.6951218,5.2439027,-0.0436408
367,-0.859375,0.4833984,-0.2631836,-0.5487805,-9.2682924,5.3048782,-0.0433051
368,-0.8666992,0.4672852,-0.2612305,-1.4634147,-8.6585369,5.4268293,-0.0433051
369,-0.8657227,0.4589844,-0.2631836,-1.402439,-8.4756098,5.670732,-0.042298
370,-0.8774414,0.4516602,-0.2587891,-1.1585366,-8.5975609,5.609756,-0.0386053
371,-0.8779297,0.4448242,-0.2573242,-0.7926829,-8.719512,5.9146342,-0.0399481
372,-0.8779297,0.4433594,-0.2646484,-0.0609756,-9.3292685,5.8536587,-0.0466621
373,-0.8813477,0.4448242,-0.2695312,0.2439024,-9.2682924,5.7926831,-0.0419623
374,-0.8808594,0.449707,-0.2749023,0.5487805,-9.6341467,6.1585369,-0.0412909
375,-0.8818359,0.440918,-0.2817383,0.5487805,-9.8780489,6.0975609,-0.0419623
376,-0.8808594,0.4404297,-0.2827148,0.7926829,-10,6.7073174,-0.0433051
377,-0.8754883,0.4399414,-0.2880859,1.0365853,-10.2439022,7.0731707,-0.0486763
378,-0.8793945,0.4394531,-0.2919922,0.6097561,-9.6341467,7.6219516,-0.0513619
379,-0.8793945,0.4350586,-0.284668,0.1219512,-9.6951218,7.8658538,-0.0493477
380,-0.8798828,0.434082,-0.2768555,0.1829268,-9.8170738,8.2317076,-0.0406195
381,-0.875,0.4257812,-0.2617188,0.2439024,-9.6951218,8.4146347,-0.0406195
382,-0.8798828,0.4257812,-0.2558594,0.3658537,-9.3292685,8.6585369,-0.0406195
383,-0.8793945,0.4301758,-0.2446289,0.8536586,-9.5121956,8.719512,-0.0433051
384,-0.890625,0.4365234,-0.2353516,1.2804878,-9.3292685,8.5975609,-0.0409552
385,-0.8916016,0.4462891,-0.2353516,2.5609756,-9.5121956,9.2682924,-0.0439765
386,-0.8920898,0.4648438,-0.234375,3.0487804,-9.6951218,9.4512196,-0.0419623
387,-0.8891602,0.4716797,-0.2363281,3.6585367,-10.060976,9.5121956,-0.0419623
388,-0.8828125,0.4736328,-0.2412109,3.3536587,-10.1829271,9.7560978,-0.0486763
389,-0.8813477,0.4750977,-0.2416992,2.8658538,-10.3658543,9.9390249,-0.0436408
390,-0.8759766,0.4770508,-0.2514648,2.9268293,-9.9390249,10.1219511,-0.0433051
391,-0.8764648,0.4794922,-0.2583008,2.6829269,-9.9390249,10.4878054,-0.0446479
392,-0.8823242,0.4765625,-0.2666016,2.2560976,-9.9390249,11.0975609,-0.0439765
393,-0.8808594,0.4760742,-0.2705078,2.1341465,-9.6951218,11.1585369,-0.0446479
394,-0.8842773,0.4785156,-0.2788086,2.0121951,-10,11.341464,-0.0493477
395,-0.8833008,0.4770508,-0.2700195,1.7073171,-10.060976,11.4634151,-0.0493477
396,-0.8823242,0.4770508,-0.262207,1.7073171,-10.1829271,11.5243902,-0.0466621
397,-0.8857422,0.4799805,-0.2578125,2.0121951,-10.3048782,11.4634151,-0.0446479
398,-0.8847656,0.4746094,-0.2607422,2.195122,-10.7317076,11.5853662,-0.0382696
399,-0.8901367,0.4770508,-0.2617188,2.4390244,-10.5487804,11.8902445,-0.0352483
400,-0.8950195,0.480957,-0.2651367,2.9268293,-10.8536587,12.0731707,-0.0406195
401,-0.890625,0.4838867,-0.262207,2.6829269,-11.1585369,12.0731707,-0.0486763
402,-0.8881836,0.4863281,-0.2636719,2.804878,-11.7073174,11.9512196,-0.0382696
403,-0.8876953,0.4921875,-0.2631836,2.804878,-12.1341467,11.9512196,-0.0352483
404,-0.8842773,0.4921875,-0.262207,2.6219513,-12.1951218,12.0121956,-0.0339055
405,-0.8789062,0.4912109,-0.2626953,2.9878049,-12.4390249,11.9512196,-0.0359197
406,-0.8828125,0.4970703,-0.2641602,2.804878,-12.5,12.3170738,-0.0369268
407,-0.8833008,0.5,-0.2617188,2.2560976,-12.4390249,12.8658543,-0.0433051
408,-0.8803711,0.4970703,-0.2573242,2.1341465,-12.4390249,13.2317076,-0.0473335
409,-0.8764648,0.4970703,-0.2578125,1.7073171,-12.2560978,13.4146347,-0.0406195
410,-0.8852539,0.487793,-0.2548828,1.5853659,-12.1341467,13.5365858,-0.0392767
411,-0.890625,0.4897461,-0.2514648,1.8902439,-12.1951218,13.6585369,-0.0365911
412,-0.8925781,0.4960938,-0.2509766,2.0121951,-12.7439032,13.9634151,-0.0392767
413,-0.8945312,0.4970703,-0.2563477,2.3780489,-12.9878054,13.9024391,-0.0379339
414,-0.8955078,0.4960938,-0.2573242,2.6829269,-13.1707315,14.2682934,-0.0379339
415,-0.8935547,0.4980469,-0.2617188,2.3170731,-13.2926836,14.5731707,-0.0392767
416,-0.8881836,0.4970703,-0.2617188,2.9878049,-13.841464,14.2682934,-0.0412909
417,-0.8793945,0.4995117,-0.2680664,3.0487804,-14.0853662,14.2073174,-0.0540475
418,-0.8779297,0.4995117,-0.2646484,3.4146342,-14.3902445,14.3902445,-0.0449836
419,-0.8710938,0.5014648,-0.2661133,3.9634147,-14.5121956,14.4512196,-0.0419623
420,-0.8720703,0.5053711,-0.2661133,4.390244,-14.5731707,14.5121956,-0.0433051
421,-0.8706055,0.5073242,-0.2661133,4.390244,-14.6951227,15,-0.0473335
422,-0.8686523,0.5087891,-0.2670898,4.0853658,-14.6951227,15.3048782,-0.0466621
423,-0.8676758,0.496582,-0.2612305,2.9268293,-14.3902445,15.9756098,-0.0527047
424,-0.8623047,0.487793,-0.2592773,2.804878,-14.4512196,16.4024391,-0.056733
425,-0.855957,0.4741211,-0.2436523,2.6219513,-14.2073174,16.8902435,-0.0533761
426,-0.859375,0.4711914,-0.2421875,3.0487804,-14.1463413,17.0731716,-0.0540475
427,-0.8666992,0.4697266,-0.2387695,3.9634147,-13.6585369,16.9512196,-0.0493477
428,-0.871582,0.4755859,-0.230957,4.5731707,-13.5975609,16.8902435,-0.049012
429,-0.8740234,0.4819336,-0.2319336,5.1219511,-13.780488,16.8292694,-0.0540475
430,-0.8779297,0.4936523,-0.2246094,5.7317076,-13.9634151,16.4024391,-0.0607614
431,-0.878418,0.4970703,-0.2250977,6.3414636,-14.7560978,16.2195129,-0.0513619
432,-0.8789062,0.5083008,-0.2265625,6.0975609,-14.8170738,16.4024391,-0.0466621
433,-0.8789062,0.5141602,-0.2290039,5.9756098,-15.3048782,16.8292694,-0.0500191
434,-0.8725586,0.5200195,-0.2397461,6.5243902,-15.3658543,16.8292694,-0.0500191
435,-0.8701172,0.5234375,-0.2475586,6.5853658,-15.6707325,16.9512196,-0.0459907
436,-0.8618164,0.5317383,-0.2612305,6.7073174,-15.9146347,17.0731716,-0.0513619
437,-0.8603516,0.5327148,-0.269043,6.5243902,-16.2195129,17.1951218,-0.0527047
438,-0.8569336,0.5473633,-0.2749023,6.3414636,-15.9756098,17.0731716,-0.0493477
439,-0.8574219,0.5473633,-0.2734375,6.280488,-16.1585369,17.0731716,-0.0473335
440,-0.8564453,0.5493164,-0.2763672,5.0609756,-16.1585369,16.9512196,-0.0439765
441,-0.855957,0.5532227,-0.269043,4.5731707,-16.280489,17.0731716,-0.0473335
442,-0.8574219,0.5541992,-0.2626953,3.2926829,-16.280489,17.5,-0.0446479
443,-0.8598633,0.5551758,-0.2563477,2.804878,-16.4024391,17.5,-0.0446479
444,-0.8618164,0.5551758,-0.2504883,1.5853659,-15.9146347,17.8048782,-0.0493477
445,-0.8657227,0.5512695,-0.2426758,0.7926829,-15.8536587,17.9268303,-0.056733
446,-0.8691406,0.546875,-0.2387695,0.5487805,-15.9756098,18.3536587,-0.063447
447,-0.8833008,0.5429688,-0.2358398,-0.0609756,-16.6463413,18.6585369,-0.0486763
448,-0.8818359,0.5395508,-0.2373047,-0.1829268,-16.8902435,18.5975609,-0.0466621
449,-0.8818359,0.5341797,-0.2368164,0,-17.3780499,18.9634151,-0.0503548
450,-0.8803711,0.5249023,-0.2348633,-0.1219512,-17.9878044,18.9024391,-0.0493477
451,-0.878418,0.5244141,-0.2304688,0,-17.9878044,19.2682934,-0.0486763
452,-0.8808594,0.5166016,-0.2275391,-0.2439024,-17.9268303,19.4512196,-0.0540475
453,-0.8847656,0.5151367,-0.2280273,0.6097561,-17.8048782,20.1219521,-0.0547189
454,-0.8916016,0.5112305,-0.2280273,0.9146342,-17.8658543,20.1829281,-0.0473335
455,-0.8959961,0.5126953,-0.2265625,1.7682927,-17.7439022,20.6707325,-0.0486763
456,-0.9033203,0.5224609,-0.2294922,2.5,-17.7439022,21.4024391,-0.0480049
457,-0.9082031,0.5219727,-0.2285156,2.7439024,-17.8048782,21.8292694,-0.0486763
458,-0.9135742,0.527832,-0.2270508,3.1707318,-18.2317085,22.439024,-0.0459907
459,-0.9125977,0.5214844,-0.2260742,3.4756098,-18.2926826,22.6219521,-0.0560616
460,-0.9111328,0.5195312,-0.2133789,4.0243902,-19.3292694,22.9878063,-0.0513619
461,-0.909668,0.5185547,-0.2094727,4.0853658,-19.3902435,23.3536587,-0.0459907
462,-0.9082031,0.5151367,-0.2026367,3.7195122,-19.3292694,24.2073174,-0.0446479
463,-0.90625,0.5024414,-0.199707,3.1097562,-19.3292694,24.4512196,-0.0466621
464,-0.9047852,0.4946289,-0.1982422,2.1341465,-19.2682934,25.3048782,-0.0466621
465,-0.9067383,0.4804688,-0.1992188,1.6463414,-19.2073174,25.7926826,-0.0473335
466,-0.9072266,0.4677734,-0.2045898,1.097561,-19.0853672,27.0121956,-0.0466621
467,-0.9155273,0.456543,-0.206543,1.2804878,-18.6585369,27.560976,-0.0473335
468,-0.9179688,0.453125,-0.2124023,1.6463414,-18.780489,27.9878063,-0.0493477
469,-0.9228516,0.4550781,-0.2236328,3.4756098,-19.2073174,27.7439022,-0.0506905
470,-0.9306641,0.4614258,-0.2319336,4.3292685,-19.5731716,27.8658543,-0.0493477
471,-0.9301758,0.4785156,-0.2490234,5.3048782,-20.4878044,27.9878063,-0.0500191
472,-0.9238281,0.4882812,-0.2626953,5.4268293,-21.1585369,28.1097565,-0.0486763
473,-0.9150391,0.4936523,-0.2626953,5.4268293,-22.1341476,28.1707325,-0.0446479
474,-0.902832,0.4975586,-0.269043,5.4268293,-22.439024,28.2317085,-0.0473335
475,-0.8979492,0.4951172,-0.2744141,5.1219511,-22.9268303,27.9878063,-0.0520333
476,-0.8725586,0.5043945,-0.2773438,4.6341462,-23.1097565,28.1097565,-0.0433051
477,-0.8671875,0.5097656,-0.2768555,3.9024391,-22.9268303,28.2317085,-0.0439765
478,-0.8608398,0.5146484,-0.2749023,2.804878,-22.6219521,28.5365868,-0.0453193
479,-0.8530273,0.5175781,-0.2758789,2.0121951,-22.6829281,28.4756107,-0.0459907
480,-0.8569336,0.515625,-0.2695312,0.6707317,-22.439024,28.780489,-0.0486763
481,-0.8608398,0.5112305,-0.2685547,0,-22.439024,29.0853672,-0.0540475
482,-0.8652344,0.5078125,-0.2675781,-1.2195122,-22.439024,29.9390259,-0.0493477
483,-0.8710938,0.4960938,-0.2617188,-1.6463414,-22.2560978,30.2439022,-0.0433051
484,-0.8725586,0.4931641,-0.2607422,-1.5243902,-22.1341476,30.9756107,-0.0433051
485,-0.8828125,0.4897461,-0.2597656,-1.3414634,-22.560976,30.9146347,-0.0446479
486,-0.8867188,0.4931641,-0.2631836,-1.097561,-22.8658543,30.5487804,-0.0426337
487,-0.8945312,0.4936523,-0.2553711,-0.9146342,-23.1707325,30.2439022,-0.0459907
488,-0.8979492,0.4975586,-0.2602539,-0.5487805,-23.9024391,29.4512196,-0.0580758
489,-0.9042969,0.5029297,-0.2666016,-0.6097561,-24.8780499,28.9024391,-0.0506905
490,-0.9038086,0.5,-0.269043,-0.4878049,-25.2439022,28.6585369,-0.0466621
491,-0.8935547,0.4980469,-0.2792969,-0.3048781,-26.280489,28.4146347,-0.0446479
492,-0.8891602,0.4897461,-0.2802734,-0.3658537,-26.7682934,28.3536587,-0.0433051
493,-0.8823242,0.4833984,-0.2910156,-0.1219512,-26.5243912,28.4756107,-0.0480049
494,-0.8769531,0.4824219,-0.2915039,0.1219512,-26.8292694,28.780489,-0.0533761
495,-0.8759766,0.4780273,-0.2900391,0.4878049,-26.280489,28.6585369,-0.0500191
496,-0.8798828,0.4785156,-0.2817383,1.2195122,-26.0975609,28.5975609,-0.0493477
497,-0.887207,0.4770508,-0.2827148,1.7073171,-26.0975609,28.4146347,-0.0500191
498,-0.8945312,0.4902344,-0.2783203,1.7682927,-25.9146347,28.1097565,-0.0543832
499,-0.8959961,0.4916992,-0.277832,1.7073171,-26.0975609,27.8048782,-0.0540475
500,-0.9086914,0.4970703,-0.2749023,1.3414634,-26.5243912,28.0487804,-0.0533761
501,-0.9150391,0.4980469,-0.277832,1.2195122,-26.5243912,28.0487804,-0.0520333
502,-0.9208984,0.4970703,-0.2851562,1.6463414,-27.3780499,28.2926826,-0.0513619
503,-0.9204102,0.4921875,-0.2866211,2.0731707,-27.6829281,28.4756107,-0.0513619
504,-0.9189453,0.4882812,-0.2929688,3.1707318,-28.6585369,29.0243912,-0.0574044
505,-0.90625,0.4741211,-0.2915039,3.9634147,-28.9634151,29.2682934,-0.0513619
506,-0.8994141,0.4648438,-0.2910156,4.9390244,-29.6951218,29.3292694,-0.0513619
507,-0.8916016,0.4536133,-0.2792969,5.4878049,-29.6951218,29.3292694,-0.0439765
508,-0.8833008,0.4448242,-0.2734375,7.0731707,-29.8170738,29.3292694,-0.0446479
509,-0.8764648,0.434082,-0.2670898,7.6219516,-29.5121956,29.7560978,-0.0439765
510,-0.8745117,0.4375,-0.2705078,8.9634151,-28.9024391,30.6707325,-0.0500191
511,-0.8725586,0.4355469,-0.2592773,10.1829271,-28.4756107,31.280489,-0.0473335
512,-0.8730469,0.4345703,-0.2597656,10.7317076,-28.7195129,31.4024391,-0.0446479
513,-0.8725586,0.4306641,-0.2514648,11.9512196,-29.4512196,31.6463413,-0.0473335
514,-0.8759766,0.434082,-0.2539062,12.0731707,-29.3902454,31.7073174,-0.0433051
515,-0.8706055,0.4326172,-0.2548828,12.9268293,-28.1097565,31.7682934,-0.0446479
516,-0.8754883,0.4350586,-0.2509766,12.9268293,-27.560976,31.8292694,-0.0486763
517,-0.875,0.4404297,-0.2485352,13.7195129,-26.7682934,31.5243912,-0.0520333
518,-0.8730469,0.4433594,-0.2451172,14.1463413,-27.0731716,31.8292694,-0.0419623
519,-0.8764648,0.453125,-0.2402344,14.5121956,-26.9512196,32.1951218,-0.0392767
520,-0.8681641,0.4492188,-0.2397461,14.2073174,-27.0121956,32.1341476,-0.0406195
521,-0.8666992,0.4492188,-0.2304688,13.7195129,-26.6463413,31.8902454,-0.0379339
522,-0.859375,0.449707,-0.2143555,13.9024391,-26.0975609,31.6463413,-0.0433051
523,-0.8525391,0.4482422,-0.2094727,14.2682934,-26.280489,31.341465,-0.0493477
524,-0.855957,0.4487305,-0.2084961,15.2439032,-25.8536587,31.280489,-0.0459907
525,-0.8544922,0.4570312,-0.2089844,16.0365849,-25.7926826,31.280489,-0.0433051
526,-0.8540039,0.4633789,-0.2104492,16.6463413,-25.7926826,31.280489,-0.0466621
527,-0.8544922,0.4716797,-0.2158203,16.9512196,-26.280489,30.8536587,-0.0436408
528,-0.8515625,0.4794922,-0.2211914,16.7682934,-25.8536587,30.6097565,-0.0473335
529,-0.8515625,0.4829102,-0.2397461,16.3414631,-25.7926826,30.3048782,-0.0459907
530,-0.8535156,0.4892578,-0.246582,15.4878054,-25.5487804,30.1219521,-0.0453193
531,-0.8476562,0.4980469,-0.262207,14.3292685,-25.4878063,29.5731716,-0.0439765
532,-0.8496094,0.5014648,-0.2617188,14.2073174,-25.3048782,29.0243912,-0.0459907
533,-0.8530273,0.5083008,-0.2592773,13.3536587,-25.3658543,27.9268303,-0.0553902
534,-0.8510742,0.5161133,-0.2558594,12.9878054,-25.6707325,27.0731716,-0.0480049
535,-0.8598633,0.5307617,-0.2509766,12.2560978,-25.7317085,25.7317085,-0.0443122
536,-0.8632812,0.5380859,-0.2504883,11.8902445,-25.7317085,25.1219521,-0.0453193
537,-0.8666992,0.5458984,-0.2480469,10.5487804,-25.7926826,24.3902435,-0.0486763
538,-0.8701172,0.5473633,-0.2397461,9.7560978,-26.2195129,24.2682934,-0.0459907
539,-0.8735352,0.5522461,-0.2348633,9.0853662,-27.1951218,23.9024391,-0.0463264
540,-0.8676758,0.5551758,-0.2338867,8.780488,-27.560976,23.6585369,-0.0446479
541,-0.8647461,0.5605469,-0.2338867,8.5365858,-27.9268303,23.1097565,-0.0406195
542,-0.8588867,0.5654297,-0.2373047,7.8658538,-27.9268303,22.3170738,-0.0406195
543,-0.8505859,0.5673828,-0.2387695,7.5,-28.4146347,22.0121956,-0.0419623
544,-0.8510742,0.5688477,-0.2402344,7.0731707,-29.1463413,21.3414631,-0.0419623
545,-0.847168,0.5693359,-0.2416992,6.890244,-29.2682934,20.9146347,-0.0419623
546,-0.8486328,0.5732422,-0.2524414,6.1585369,-29.5121956,20.9146347,-0.0493477
547,-0.8432617,0.574707,-0.2583008,5.8536587,-29.3902454,20.9756107,-0.0399481
548,-0.8408203,0.5737305,-0.2617188,5.0609756,-29.6341476,20.9756107,-0.0392767
549,-0.8291016,0.5727539,-0.265625,5.0609756,-29.6341476,21.0975609,-0.0386053
550,-0.8305664,0.5737305,-0.2626953,4.0243902,-30.060976,20.7317085,-0.0419623
551,-0.8208008,0.5634766,-0.2553711,3.2317073,-29.7560978,20.7317085,-0.0392767
552,-0.8129883,0.5615234,-0.2539062,1.5853659,-30,20.8536587,-0.0412909
553,-0.8066406,0.5498047,-0.2338867,0.0609756,-29.9390259,21.0365868,-0.042298
554,-0.8012695,0.5449219,-0.2275391,-0.3048781,-30,20.7926826,-0.0342412
555,-0.7954102,0.5390625,-0.2148438,-1.0365853,-29.8780499,20.7926826,-0.0352483
556,-0.7919922,0.5400391,-0.2094727,-1.2195122,-29.6341476,20.6707325,-0.0332341
557,-0.7851562,0.5356445,-0.1958008,-1.5853659,-29.0853672,20.3658543,-0.0406195
558,-0.7851562,0.5415039,-0.1821289,-1.5243902,-29.0853672,20.2439022,-0.0352483
559,-0.7822266,0.5439453,-0.1748047,-1.8902439,-28.6585369,20.1829281,-0.024506
560,-0.7880859,0.5454102,-0.1513672,-1.9512196,-28.1707325,19.939024,-0.0198062
561,-0.7890625,0.5527344,-0.1513672,-1.0365853,-28.2926826,20.060976,-0.0164492
562,-0.7885742,0.5605469,-0.1508789,-0.7317073,-28.1097565,20.060976,-0.017792
563,-0.7910156,0.5649414,-0.1572266,0.0609756,-28.4146347,20,-0.0016785
564,-0.7832031,0.5737305,-0.1547852,0.7317073,-28.3536587,20.3048782,0.0070497
565,-0.7827148,0.5771484,-0.1484375,1.097561,-28.4756107,20.4268303,0.0063783
566,-0.7680664,0.5805664,-0.140625,1.7073171,-28.5975609,20.1219521,0.010071
567,-0.7646484,0.5810547,-0.1401367,1.8902439,-28.5365868,19.939024,0.0124208
568,-0.7480469,0.581543,-0.1484375,1.7073171,-28.5975609,19.6951218,0.0063783
569,-0.730957,0.5888672,-0.1518555,1.8902439,-28.4146347,19.5121956,0.0117494
570,-0.7314453,0.5888672,-0.1542969,1.3414634,-27.6829281,19.0243912,0.0171206
571,-0.7158203,0.6000977,-0.1357422,1.402439,-27.5,18.9024391,0.0157778
572,-0.7109375,0.6079102,-0.1362305,1.5243902,-27.0121956,17.9268303,0.0151064
573,-0.7094727,0.6152344,-0.1518555,1.7073171,-26.7073174,17.439024,0.0167849
574,-0.706543,0.6166992,-0.1655273,0.4878049,-26.1585369,16.8292694,0.0130922
575,-0.7084961,0.6245117,-0.1728516,-0.9146342,-24.4512196,16.7073174,0.0117494
576,-0.7109375,0.6254883,-0.1713867,-1.9512196,-24.2073174,16.5243912,0.0194705
577,-0.7124023,0.6269531,-0.1625977,-3.3536587,-24.0853672,16.4634151,0.0231632
578,-0.715332,0.625,-0.1621094,-4.3292685,-24.0853672,16.280489,0.0218204
579,-0.7211914,0.6098633,-0.168457,-5.670732,-23.9024391,16.3414631,0.021149
580,-0.7226562,0.5966797,-0.1787109,-6.4634147,-23.780489,16.280489,0.0208133
581,-0.7216797,0.5883789,-0.1801758,-6.5853658,-22.9878063,15.9146347,0.0097353
582,-0.7250977,0.5805664,-0.1723633,-6.6463418,-23.1097565,15.3048782,0.011078
583,-0.7250977,0.5805664,-0.1704102,-5.2439027,-23.9634151,13.9634151,0.0171206
584,-0.7275391,0.578125,-0.1801758,-4.5731707,-24.0853672,13.0487804,0.0114137
585,-0.7275391,0.5800781,-0.1933594,-3.8414636,-25.3658543,11.0365858,0.0104067
586,-0.7314453,0.5878906,-0.1835938,-4.8170733,-27.1341476,8.719512,0.011078
587,-0.7299805,0.5913086,-0.1494141,-4.8780489,-27.9268303,7.4390244,0.0104067
588,-0.7358398,0.5791016,-0.1088867,-1.8292683,-29.0243912,5.9146342,0.0104067
589,-0.7392578,0.5727539,-0.1323242,0.7926829,-28.7195129,5.670732,0.0090639
590,-0.7290039,0.5834961,-0.2041016,3.7195122,-28.1097565,6.4634147,0.0043641
591,-0.7138672,0.6088867,-0.2324219,3.9634147,-28.4146347,7.0731707,-0.0036927
592,-0.7080078,0.6206055,-0.234375,4.8780489,-28.841465,7.5,0.0003357
593,-0.6943359,0.6411133,-0.2504883,4.6951222,-28.9634151,7.1951222,-0.0010071
594,-0.6958008,0.6455078,-0.2626953,2.9878049,-28.6585369,5.7317076,-0.0006714
595,-0.6982422,0.6494141,-0.2675781,1.4634147,-28.3536587,5.0609756,-0.0030213
596,-0.699707,0.6494141,-0.2592773,-1.8902439,-28.0487804,3.6585367,-0.0073854
597,-0.7182617,0.644043,-0.2260742,-4.2682929,-27.9268303,2.9268293,-0.0137636
598,-0.7260742,0.6381836,-0.2167969,-4.8170733,-28.0487804,3.2926829,-0.0164492
599,-0.7412109,0.6206055,-0.1962891,-5.5487804,-28.2317085,4.0853658,-0.0151064
600,-0.7436523,0.6098633,-0.1826172,-5.8536587,-28.5365868,4.3292685,-0.0137636
601,-0.7421875,0.59375,-0.1630859,-5.9146342,-29.2073174,4.5121951,-0.021149
602,-0.7509766,0.5883789,-0.1542969,-5.609756,-29.6341476,4.390244,-0.0218204
603,-0.7524414,0.5810547,-0.1533203,-4.9390244,-29.6951218,3.2317073,-0.024506
604,-0.7602539,0.5800781,-0.1523438,-5.0609756,-29.8170738,2.7439024,-0.0352483
605,-0.7602539,0.5761719,-0.1489258,-5,-30.4878063,1.5853659,-0.0298772
606,-0.7661133,0.5703125,-0.1401367,-4.6341462,-31.0975609,1.2195122,-0.0275273
607,-0.7695312,0.5722656,-0.1333008,-4.0243902,-32.0121956,0.4878049,-0.0265202
608,-0.769043,0.5771484,-0.1289062,-2.8658538,-32.9878044,-0.3658537,-0.0288701
609,-0.7705078,0.5766602,-0.1333008,-2.3170731,-32.8658562,-0.3658537,-0.0359197
610,-0.7631836,0.5854492,-0.1318359,-1.7073171,-33.2317085,-1.1585366,-0.0406195
611,-0.7636719,0.590332,-0.1357422,-1.7073171,-33.5975609,-1.5243902,-0.0433051
612,-0.7568359,0.5922852,-0.1318359,-1.9512196,-33.841465,-2.2560976,-0.0345769
613,-0.75,0.5991211,-0.1274414,-2.3170731,-34.2073174,-2.4390244,-0.0406195
614,-0.7558594,0.5966797,-0.1206055,-3.2926829,-33.9024391,-2.5,-0.0419623
615,-0.7539062,0.5932617,-0.1176758,-3.9024391,-33.4756088,-2.5,-0.0406195
616,-0.7553711,0.590332,-0.1157227,-4.4512196,-33.4146347,-2.3170731,-0.0412909
617,-0.7597656,0.5898438,-0.1147461,-4.6951222,-32.9268303,-2.2560976,-0.0386053
618,-0.7602539,0.5908203,-0.1186523,-4.5121951,-32.6219521,-1.8292683,-0.0473335
619,-0.7783203,0.6010742,-0.1201172,-4.0243902,-32.0121956,-1.8292683,-0.0493477
620,-0.7807617,0.6025391,-0.1279297,-4.2682929,-31.9512196,-2.0731707,-0.0587472
621,-0.7895508,0.5947266,-0.1425781,-4.6341462,-32.1951218,-2.3170731,-0.0516976
622,-0.7929688,0.59375,-0.1430664,-5.3658538,-32.5609779,-2.3170731,-0.0530404
623,-0.8012695,0.5786133,-0.1362305,-5.9756098,-32.8048782,-1.9512196,-0.056733
624,-0.7988281,0.5585938,-0.1279297,-6.2195125,-32.9878044,-1.8292683,-0.0496834
625,-0.7954102,0.550293,-0.1196289,-6.5243902,-32.6219521,-1.7073171,-0.049012
626,-0.7900391,0.5341797,-0.1083984,-6.5853658,-32.5,-1.7073171,-0.0580758
627,-0.7866211,0.53125,-0.109375,-5.5487804,-32.1341476,-2.3170731,-0.06009
628,-0.7836914,0.5341797,-0.109375,-5.2439027,-32.0121956,-2.6829269,-0.0594186
629,-0.7822266,0.5351562,-0.1098633,-4.390244,-31.6463413,-4.0243902,-0.0621042
630,-0.7890625,0.546875,-0.1069336,-4.7560978,-30.7926846,-4.7560978,-0.06009
631,-0.7895508,0.5546875,-0.1083984,-4.8170733,-30.8536587,-5.2439027,-0.0621042
632,-0.7885742,0.5703125,-0.1040039,-5.7317076,-30.060976,-5.3048782,-0.063447
633,-0.7915039,0.5756836,-0.1049805,-6.4024391,-29.6341476,-5.3048782,-0.0741894
634,-0.7958984,0.5800781,-0.1108398,-7.5609756,-28.841465,-5.1219511,-0.0708324
635,-0.796875,0.5859375,-0.1220703,-8.1097565,-28.3536587,-5.1219511,-0.0728466
636,-0.8032227,0.5830078,-0.125,-9.2073174,-27.3780499,-4.6341462,-0.0728466
637,-0.809082,0.5805664,-0.1313477,-9.4512196,-26.7073174,-4.1463413,-0.070161
638,-0.8105469,0.5805664,-0.1303711,-10.4268293,-26.5243912,-3.5975611,-0.073518
639,-0.8144531,0.5717773,-0.128418,-10.4268293,-26.1585369,-3.4756098,-0.0829175
640,-0.8149414,0.5649414,-0.1274414,-11.280488,-25.060976,-3.0487804,-0.076875
641,-0.8168945,0.5498047,-0.1210938,-11.9512196,-24.0243912,-2.6219513,-0.0688182
642,-0.8203125,0.5449219,-0.1162109,-12.0121956,-24.0243912,-2.6219513,-0.0718395
643,-0.8242188,0.5322266,-0.1162109,-11.7073174,-23.2926826,-2.9878049,-0.0681468
644,-0.8232422,0.5288086,-0.1152344,-11.0975609,-22.8658543,-3.0487804,-0.070161
645,-0.8227539,0.5268555,-0.1196289,-9.5121956,-22.1341476,-3.9024391,-0.076875
646,-0.8305664,0.5366211,-0.1342773,-8.841464,-22.1341476,-3.9634147,-0.076875
647,-0.8330078,0.5454102,-0.1420898,-7.6829271,-21.7682934,-4.5121951,-0.0775463
648,-0.8388672,0.559082,-0.1586914,-6.890244,-21.5243912,-4.8780489,-0.0829175
649,-0.840332,0.5673828,-0.1674805,-5.9756098,-21.3414631,-5.3048782,-0.0892958
650,-0.8349609,0.5844727,-0.1738281,-5.5487804,-21.4024391,-5.3048782,-0.0825818
651,-0.8320312,0.5883789,-0.1796875,-5.1829271,-21.4024391,-5.4268293,-0.0835889
652,-0.8178711,0.5991211,-0.1850586,-5.5487804,-21.4024391,-5.9756098,-0.0792248
653,-0.8115234,0.59375,-0.190918,-5.7317076,-21.1585369,-6.2195125,-0.0809033
654,-0.793457,0.5961914,-0.1977539,-7.8048782,-20.9146347,-6.0365853,-0.0849317
655,-0.7871094,0.5922852,-0.2021484,-8.4756098,-20.7317085,-5.9756098,-0.0953384
656,-0.7773438,0.5791016,-0.2026367,-10.4878054,-19.8780499,-5.670732,-0.0997024
657,-0.7685547,0.5576172,-0.2006836,-10.7317076,-19.4512196,-5.4268293,-0.0856031
658,-0.7641602,0.5537109,-0.1953125,-11.5243902,-18.5975609,-5.3658538,-0.0866102
659,-0.765625,0.5424805,-0.1953125,-11.6463413,-18.0487804,-5.1219511,-0.0929885
660,-0.7666016,0.5356445,-0.1933594,-10.4878054,-17.0121956,-5.2439027,-0.0943313
661,-0.769043,0.5400391,-0.1948242,-9.7560978,-16.5243912,-5.4268293,-0.0916457
662,-0.7734375,0.5454102,-0.1982422,-8.5365858,-15.7926836,-6.7073174,-0.102388
663,-0.7822266,0.5551758,-0.199707,-7.2560978,-15.6707325,-7.7439027,-0.0943313
664,-0.784668,0.5668945,-0.2016602,-6.7682929,-16.0365849,-8.2926826,-0.0956741
665,-0.7875977,0.5834961,-0.2011719,-6.7682929,-16.280489,-9.0853662,-0.0892958
666,-0.7875977,0.590332,-0.199707,-6.6463418,-16.8292694,-9.8170738,-0.0862745
667,-0.7797852,0.6030273,-0.1962891,-6.7682929,-17.0121956,-10.9146347,-0.0842603
668,-0.7705078,0.6103516,-0.1918945,-6.9512196,-17.2560978,-10.9756098,-0.0916457
669,-0.7670898,0.6142578,-0.1933594,-7.2560978,-17.2560978,-11.219512,-0.0909743
670,-0.7583008,0.6152344,-0.1982422,-7.3170733,-17.1341476,-11.1585369,-0.0809033
671,-0.7519531,0.612793,-0.199707,-8.5365858,-16.9512196,-10.7926836,-0.0849317
672,-0.7509766,0.6083984,-0.2104492,-9.3292685,-16.5853653,-10.3658543,-0.0876173
673,-0.7490234,0.6000977,-0.2099609,-10.4878054,-16.0365849,-9.8170738,-0.0842603
674,-0.7451172,0.5888672,-0.2099609,-11.8292685,-15.7926836,-9.3292685,-0.0842603
675,-0.7475586,0.5795898,-0.203125,-11.7682934,-15.4268293,-9.4512196,-0.0825818
676,-0.7485352,0.5644531,-0.1904297,-11.341464,-15.1219511,-9.5731707,-0.0822461
677,-0.7475586,0.5551758,-0.1855469,-10.6097565,-15.060976,-9.9390249,-0.0842603
678,-0.746582,0.5561523,-0.1821289,-9.0853662,-14.6951227,-10.9756098,-0.0869459
679,-0.762207,0.5605469,-0.1777344,-8.5365858,-14.8780489,-11.280488,-0.076875
680,-0.765625,0.5639648,-0.1704102,-7.1341467,-14.4512196,-12.0731707,-0.0745251
681,-0.7807617,0.5786133,-0.1743164,-6.280488,-14.6341467,-12.3170738,-0.0782177
682,-0.7802734,0.5849609,-0.1704102,-5.7317076,-15.2439032,-12.7439032,-0.0721752
683,-0.7763672,0.5913086,-0.168457,-5.7317076,-15.6707325,-13.1097565,-0.0688182
684,-0.7729492,0.59375,-0.1699219,-6.280488,-16.5243912,-13.5975609,-0.0728466
685,-0.7709961,0.5961914,-0.175293,-6.8292685,-16.5243912,-13.4756098,-0.070161
686,-0.769043,0.5927734,-0.1723633,-7.6219516,-15.8536587,-13.4756098,-0.06009
687,-0.7558594,0.5917969,-0.1630859,-8.4146347,-15.7926836,-13.3536587,-0.0607614
688,-0.7524414,0.590332,-0.1567383,-8.4146347,-15.8536587,-13.2317076,-0.0647898
689,-0.7460938,0.5791016,-0.1591797,-9.0243902,-15.2439032,-13.0487804,-0.0627756
690,-0.7480469,0.574707,-0.1577148,-9.4512196,-15.1829271,-12.9878054,-0.063447
691,-0.746582,0.5703125,-0.1586914,-10.1829271,-14.1463413,-12.3780489,-0.0741894
692,-0.746582,0.5654297,-0.1445312,-10.1219511,-13.9024391,-12.4390249,-0.0728466
693,-0.75,0.5644531,-0.144043,-9.3902445,-13.780488,-12.1341467,-0.0728466
694,-0.7602539,0.5629883,-0.1508789,-8.841464,-13.780488,-12.5,-0.0798962
695,-0.7646484,0.5649414,-0.1601562,-8.2317076,-13.5975609,-12.7439032,-0.0889601
696,-0.7719727,0.5688477,-0.1655273,-7.9268293,-13.6585369,-12.5,-0.0936599
697,-0.7744141,0.5717773,-0.1630859,-7.6829271,-13.841464,-12.6829271,-0.1010452
698,-0.7749023,0.574707,-0.1567383,-7.7439027,-13.9024391,-12.7439032,-0.1030594
699,-0.769043,0.5722656,-0.1494141,-7.8048782,-14.0243902,-12.9268293,-0.0983597
700,-0.7646484,0.5712891,-0.144043,-7.6829271,-13.9024391,-12.9268293,-0.0997024
701,-0.7592773,0.5683594,-0.140625,-8.1707315,-13.9024391,-13.2317076,-0.0976883
702,-0.7612305,0.5668945,-0.1391602,-8.3536587,-13.841464,-13.0487804,-0.0916457
703,-0.762207,0.565918,-0.1430664,-8.1097565,-13.9634151,-13.1707315,-0.0835889
704,-0.7626953,0.5678711,-0.1450195,-7.3780489,-13.5975609,-12.9268293,-0.0708324
705,-0.7583008,0.5732422,-0.1582031,-7.0731707,-13.6585369,-12.8658543,-0.0594186
706,-0.7617188,0.578125,-0.1616211,-7.3170733,-13.4756098,-12.8658543,-0.0550546
707,-0.7617188,0.5751953,-0.168457,-8.1097565,-13.3536587,-12.7439032,-0.0621042
708,-0.7641602,0.5756836,-0.1699219,-8.5975609,-13.3536587,-12.7439032,-0.0513619
709,-0.7719727,0.5722656,-0.171875,-9.2073174,-12.9268293,-12.3170738,-0.0446479
710,-0.7758789,0.5698242,-0.1723633,-9.2073174,-12.5,-12.2560978,-0.0473335
711,-0.7822266,0.5703125,-0.1713867,-8.841464,-12.6219511,-12.1341467,-0.0443122
712,-0.7822266,0.5737305,-0.1660156,-8.6585369,-12.7439032,-11.8292685,-0.0453193
713,-0.7851562,0.5756836,-0.1606445,-8.719512,-13.1707315,-12.3170738,-0.0459907
714,-0.7895508,0.5703125,-0.1542969,-8.841464,-13.1707315,-12.5,-0.0433051
715,-0.7954102,0.5703125,-0.1523438,-9.3902445,-12.9878054,-12.5,-0.0392767
716,-0.7929688,0.5654297,-0.1513672,-9.6951218,-13.1707315,-11.9512196,-0.0392767
717,-0.7910156,0.5605469,-0.1494141,-10.060976,-13.0487804,-11.7682934,-0.0372625
718,-0.7875977,0.5571289,-0.140625,-10.1219511,-13.0487804,-11.5243902,-0.0352483
719,-0.7905273,0.5561523,-0.1357422,-10.2439022,-13.2926836,-11.5243902,-0.0342412
720,-0.7851562,0.5546875,-0.1264648,-10.4878054,-13.1097565,-11.7073174,-0.0392767
721,-0.7915039,0.5566406,-0.121582,-10.8536587,-12.8658543,-11.7073174,-0.0302129
722,-0.7949219,0.5517578,-0.1254883,-11.7682934,-12.3170738,-11.6463413,-0.0285344
723,-0.7958984,0.5361328,-0.1210938,-12.0121956,-12.0121956,-11.280488,-0.0318914
724,-0.8012695,0.5361328,-0.1176758,-11.8902445,-11.341464,-10.8536587,-0.0446479
725,-0.8022461,0.5292969,-0.1088867,-11.7073174,-11.280488,-10.3658543,-0.1084306
726,-0.8051758,0.5273438,-0.105957,-10.9756098,-11.0975609,-10.1219511,-0.1604639
727,-0.8134766,0.5283203,-0.1079102,-10.9146347,-11.0975609,-10.1829271,-0.1634852
728,-0.8125,0.5273438,-0.1142578,-10.7317076,-10.9756098,-9.9390249,-0.1265583
729,-0.8164062,0.5234375,-0.1123047,-10.7926836,-11.0365858,-9.6951218,-0.0809033
730,-0.8129883,0.5175781,-0.1166992,-10.4878054,-10.9756098,-9.6951218,-0.0365911
731,-0.8081055,0.5136719,-0.1196289,-10.1829271,-10.9146347,-9.5731707,0.0050355
732,-0.8105469,0.5107422,-0.1318359,-9.9390249,-10.6707315,-9.3292685,0.0265202
733,-0.8061523,0.5126953,-0.137207,-9.4512196,-10.3048782,-9.1463413,0.027863
734,-0.8051758,0.5126953,-0.137207,-9.6341467,-10.1219511,-9.1463413,0.017792
735,-0.8066406,0.5166016,-0.1416016,-9.2073174,-9.7560978,-8.9024391,0.0077211
736,-0.8081055,0.5200195,-0.144043,-8.9634151,-9.3292685,-9.0243902,-0.0057069
737,-0.8056641,0.5258789,-0.1494141,-8.780488,-8.841464,-9.4512196,-0.0063783
738,-0.809082,0.5375977,-0.1582031,-8.2926826,-8.719512,-9.5121956,-0.0097353
739,-0.8173828,0.5439453,-0.1635742,-8.719512,-8.4756098,-9.5731707,-0.0140993
740,-0.8173828,0.550293,-0.1689453,-9.0853662,-8.4756098,-9.3292685,-0.0248417
741,-0.8183594,0.5566406,-0.1728516,-9.6341467,-8.3536587,-9.1463413,-0.024506
742,-0.8154297,0.5541992,-0.1762695,-11.0975609,-7.8658538,-8.5365858,-0.0298772
743,-0.8134766,0.550293,-0.1757812,-11.8902445,-7.5609756,-8.3536587,-0.0352483
744,-0.8129883,0.5458984,-0.1733398,-13.4146347,-6.8292685,-7.6829271,-0.0359197
745,-0.8188477,0.5332031,-0.1650391,-14.2073174,-6.5853658,-7.4390244,-0.0345769
746,-0.8193359,0.5249023,-0.1572266,-14.8780489,-5.9756098,-6.9512196,-0.0339055
747,-0.828125,0.5180664,-0.1503906,-14.9390249,-5.9146342,-7.0121951,-0.0345769
748,-0.8339844,0.5219727,-0.1445312,-14.9390249,-5.3658538,-7.0731707,-0.0345769
749,-0.8481445,0.519043,-0.1494141,-13.9024391,-4.8780489,-7.2560978,-0.0379339
750,-0.8549805,0.5224609,-0.1464844,-13.5975609,-4.5121951,-7.1341467,-0.0365911
751,-0.8696289,0.5292969,-0.1479492,-12.9268293,-4.390244,-6.5853658,-0.03122
752,-0.8813477,0.5297852,-0.1508789,-12.5,-4.8170733,-6.4024391,-0.0328985
753,-0.8916016,0.5258789,-0.1606445,-12.2560978,-5.1829271,-5.4268293,-0.0352483
754,-0.894043,0.5224609,-0.171875,-12.2560978,-5.1829271,-5.0609756,-0.0386053
755,-0.8925781,0.515625,-0.1738281,-11.6463413,-5.670732,-4.2073174,-0.0459907
756,-0.8847656,0.5073242,-0.1796875,-11.5853662,-5.9756098,-3.7195122,-0.0493477
757,-0.8808594,0.5048828,-0.1899414,-10.7926836,-6.4024391,-3.8414636,-0.0500191
758,-0.8676758,0.496582,-0.1972656,-9.8170738,-6.5853658,-3.8414636,-0.0506905
759,-0.862793,0.4970703,-0.1977539,-9.3292685,-6.4634147,-3.6585367,-0.0513619
760,-0.8579102,0.487793,-0.1987305,-8.5975609,-6.4634147,-3.1097562,-0.0533761
761,-0.8525391,0.4858398,-0.1948242,-8.2926826,-6.5243902,-3.0487804,-0.0520333
762,-0.8378906,0.4824219,-0.1860352,-7.0121951,-6.8292685,-2.2560976,-0.0540475
763,-0.8408203,0.4804688,-0.1894531,-6.3414636,-6.4024391,-2.195122,-0.0513619
764,-0.8295898,0.4853516,-0.1831055,-5.0609756,-5.7926831,-1.4634147,-0.0574044
765,-0.8276367,0.4916992,-0.1791992,-4.5121951,-5.7926831,-1.402439,-0.0594186
766,-0.8251953,0.4951172,-0.1738281,-3.4146342,-5.609756,-0.5487805,-0.0513619
767,-0.8217773,0.5014648,-0.1699219,-3.2317073,-5.2439027,-0.6097561,-0.0446479
768,-0.8193359,0.5078125,-0.1669922,-2.9268293,-4.8170733,-0.6707317,-0.0459907
769,-0.8173828,0.5166016,-0.1708984,-2.804878,-4.6341462,-0.4268293,-0.0476692
770,-0.8251953,0.5200195,-0.1733398,-3.3536587,-3.6585367,-0.3048781,-0.0459907
771,-0.8291016,0.527832,-0.1796875,-3.8414636,-3.1707318,0,-0.0553902
772,-0.8291016,0.5288086,-0.1796875,-4.0853658,-2.9268293,0.6707317,-0.0574044
773,-0.8408203,0.5283203,-0.1835938,-4.5121951,-2.1341465,1.402439,-0.056733
774,-0.8481445,0.5283203,-0.1826172,-4.8780489,-1.5853659,2.2560976,-0.0607614
775,-0.8598633,0.5195312,-0.1879883,-4.8780489,-1.1585366,2.6829269,-0.0691539
776,-0.8618164,0.5131836,-0.1914062,-4.8170733,-0.9146342,3.0487804,-0.0694896
777,-0.8696289,0.5102539,-0.1875,-4.2682929,-0.5487805,3.3536587,-0.0741894
778,-0.8852539,0.5053711,-0.1860352,-3.7804878,-0.3048781,3.0487804,-0.0835889
779,-0.8891602,0.5092773,-0.1855469,-2.804878,-0.2439024,3.1097562,-0.0835889
780,-0.8999023,0.5078125,-0.184082,-2.195122,-0.3048781,2.6829269,-0.0809033
781,-0.9033203,0.5078125,-0.190918,-1.5853659,-0.3048781,2.4390244,-0.0815747
782,-0.9052734,0.5029297,-0.1899414,-1.4634147,-0.8536586,2.3170731,-0.076875
783,-0.90625,0.503418,-0.1904297,-1.097561,-1.1585366,2.195122,-0.0688182
784,-0.8974609,0.5014648,-0.1875,-0.0609756,-1.402439,2.1341465,-0.0715038
785,-0.8945312,0.5039062,-0.1860352,0.2439024,-1.6463414,1.7073171,-0.0674754
786,-0.887207,0.5083008,-0.184082,1.097561,-1.4634147,1.3414634,-0.0674754
787,-0.8876953,0.5136719,-0.1782227,1.402439,-1.4634147,1.2195122,-0.0715038
788,-0.8886719,0.5180664,-0.1811523,1.5853659,-1.2195122,0.7926829,-0.0741894
789,-0.8842773,0.5200195,-0.1831055,1.097561,-1.2195122,0.6707317,-0.0741894
790,-0.8837891,0.5180664,-0.1855469,0.9146342,-0.8536586,0.8536586,-0.070161
791,-0.887207,0.5273438,-0.1831055,1.3414634,-0.9756098,0.9756098,-0.063447
792,-0.8828125,0.5317383,-0.1845703,1.2195122,-0.8536586,0.6707317,-0.0574044
793,-0.8793945,0.5375977,-0.1787109,1.0365853,-0.9146342,0.1829268,-0.0553902
794,-0.8789062,0.5390625,-0.184082,0.9146342,-0.7926829,-0.1219512,-0.0580758
795,-0.8769531,0.5478516,-0.184082,0.0609756,-1.097561,-0.6707317,-0.0476692
796,-0.8740234,0.5478516,-0.1923828,-0.0609756,-1.402439,-0.9756098,-0.0392767
797,-0.8691406,0.5444336,-0.1962891,-0.4268293,-1.3414634,-1.0365853,-0.0386053
798,-0.8618164,0.5371094,-0.2006836,-0.8536586,-1.2804878,-1.097561,-0.0359197
799,-0.8613281,0.5283203,-0.2045898,-1.402439,-1.1585366,-0.2439024,-0.0302129
800,-0.8598633,0.5107422,-0.2070312,-2.0121951,-1.0365853,0.3658537,-0.0298772
801,-0.8564453,0.5048828,-0.2060547,-2.7439024,-0.5487805,0.4878049,-0.0298772
802,-0.8535156,0.4931641,-0.2036133,-2.6219513,-0.4268293,0.6707317,-0.0285344
803,-0.8540039,0.4887695,-0.1987305,-1.7073171,0,0.3048781,-0.0285344
804,-0.8588867,0.480957,-0.1894531,-0.4878049,-0.1829268,-0.3048781,-0.027863
805,-0.8574219,0.4824219,-0.1826172,-0.2439024,-0.1829268,-0.6097561,-0.0782177
806,-0.8686523,0.4863281,-0.1767578,0.0609756,0,-1.2195122,-0.1332723
807,-0.8764648,0.4897461,-0.1762695,0.1829268,-0.3048781,-1.4634147,-0.1399863
808,-0.8852539,0.4916992,-0.1674805,-0.4878049,-0.1219512,-1.402439,-0.1111162
809,-0.8828125,0.4946289,-0.1655273,-0.6097561,-0.1829268,-1.9512196,-0.06009
810,-0.8847656,0.4946289,-0.1699219,-1.0365853,-0.4268293,-2.195122,-0.0164492
811,-0.8789062,0.4936523,-0.1679688,-1.402439,-0.3048781,-2.195122,0.0204776
812,-0.8735352,0.4882812,-0.1679688,-1.5243902,-0.2439024,-2.5609756,0.0453193
813,-0.8740234,0.4848633,-0.1674805,-1.8292683,-0.2439024,-2.4390244,0.0439765
814,-0.8691406,0.4873047,-0.1591797,-2.5609756,-0.0609756,-2.3170731,0.0305486
815,-0.8696289,0.4863281,-0.1435547,-2.7439024,0.2439024,-3.1097562,0.0248417
816,-0.8662109,0.4863281,-0.1430664,-3.2317073,0.0609756,-3.5365853,0.0171206
817,-0.8652344,0.4731445,-0.1459961,-4.6951222,0.3658537,-3.7804878,0.0077211
818,-0.8647461,0.4667969,-0.1425781,-5.4268293,1.0365853,-3.8414636,-0.0016785
819,-0.855957,0.453125,-0.1333008,-5.670732,1.2195122,-3.7804878,-0.0077211
820,-0.8525391,0.4467773,-0.1308594,-5.1219511,1.097561,-4.1463413,-0.011078
821,-0.8496094,0.449707,-0.1333008,-3.9024391,1.5853659,-4.390244,-0.0154421
822,-0.8442383,0.4638672,-0.1411133,-3.4146342,1.5853659,-4.8170733,-0.024506
823,-0.8452148,0.4736328,-0.1386719,-2.5,2.3170731,-5.8536587,-0.0359197
824,-0.8457031,0.503418,-0.1352539,-2.6829269,2.4390244,-6.7073174,-0.03122
825,-0.8481445,0.5170898,-0.1362305,-3.7195122,2.6829269,-7.9878049,-0.0345769
826,-0.8457031,0.5332031,-0.144043,-5.1829271,2.9268293,-8.9024391,-0.0392767
827,-0.8476562,0.5385742,-0.1523438,-5.9756098,3.2926829,-9.1463413,-0.0379339
828,-0.8481445,0.5405273,-0.1582031,-8.1097565,3.7195122,-8.5365858,-0.0419623
829,-0.847168,0.5385742,-0.1616211,-9.0243902,3.8414636,-8.3536587,-0.0513619
830,-0.8422852,0.5366211,-0.1542969,-10.4878054,4.0243902,-7.6219516,-0.0580758
831,-0.8427734,0.5283203,-0.1489258,-11.8292685,4.0853658,-7.4390244,-0.115816
832,-0.84375,0.5244141,-0.1503906,-13.4146347,4.1463413,-7.6829271,-0.2104829
833,-0.8515625,0.5170898,-0.1621094,-14.1463413,4.4512196,-7.9878049,-0.2279393
834,-0.8505859,0.5117188,-0.168457,-14.7560978,4.6951222,-8.5975609,-0.1977264
835,-0.8696289,0.5014648,-0.1777344,-14.6951227,4.6341462,-8.9634151,-0.1540856
836,-0.8725586,0.4995117,-0.1845703,-14.8780489,3.7804878,-9.5121956,-0.1077592
837,-0.8789062,0.4912109,-0.1923828,-15.060976,3.6585367,-9.5731707,-0.0540475
838,-0.8808594,0.4873047,-0.1928711,-15.3658543,3.1707318,-9.5731707,-0.0097353
839,-0.8808594,0.4873047,-0.1889648,-15,2.5609756,-10.5487804,-0.0003357
840,-0.8789062,0.484375,-0.1875,-14.3292685,2.195122,-11.0365858,-0.0030213
841,-0.8828125,0.4956055,-0.1992188,-13.5365858,1.7073171,-12.1341467,-0.0036927
842,-0.8881836,0.5029297,-0.2021484,-12.7439032,1.5853659,-12.5,-0.0070497
843,-0.8896484,0.5112305,-0.2089844,-11.8902445,1.1585366,-12.7439032,-0.0030213
844,-0.9008789,0.534668,-0.2138672,-11.341464,0.8536586,-12.9878054,0.0050355
845,-0.9023438,0.5405273,-0.2148438,-11.219512,0,-13.3536587,0.0016785
846,-0.9008789,0.5551758,-0.2158203,-11.1585369,-0.1219512,-13.3536587,0.0013428
847,-0.9038086,0.5625,-0.2226562,-11.4024391,-1.3414634,-13.7195129,-0.0043641
848,-0.9013672,0.5668945,-0.2299805,-12.0121956,-2.6219513,-14.1463413,-0.0030213
849,-0.8969727,0.5654297,-0.2329102,-12.3170738,-3.1097562,-14.5731707,-0.0043641
850,-0.8930664,0.5600586,-0.234375,-12.6219511,-3.9024391,-14.5731707,-0.0083925
851,-0.8881836,0.5595703,-0.237793,-12.9268293,-4.390244,-14.3902445,-0.0077211
852,-0.8798828,0.5498047,-0.2412109,-12.9878054,-5.0609756,-13.9024391,-0.0151064
853,-0.8720703,0.5454102,-0.2460938,-12.8658543,-5,-13.9634151,-0.0124208
854,-0.8701172,0.5439453,-0.2460938,-12.7439032,-5.3658538,-14.0243902,-0.0164492
855,-0.8701172,0.5458984,-0.2490234,-12.7439032,-5.4268293,-14.0853662,-0.0198062
856,-0.8725586,0.5454102,-0.2460938,-12.4390249,-5.670732,-14.7560978,-0.0271916
857,-0.8793945,0.5458984,-0.2407227,-12.3780489,-5.9756098,-14.9390249,-0.0271916
858,-0.8823242,0.5449219,-0.2436523,-12.9268293,-6.6463418,-15.6097565,-0.0285344
859,-0.8979492,0.5463867,-0.2524414,-13.0487804,-6.890244,-15.4268293,-0.0285344
860,-0.9008789,0.5449219,-0.253418,-13.4146347,-6.890244,-14.7560978,-0.0248417
861,-0.9116211,0.5322266,-0.2543945,-14.4512196,-7.6219516,-14.2682934,-0.03122
862,-0.9145508,0.5239258,-0.253418,-14.5121956,-8.0487804,-13.841464,-0.0345769
863,-0.9042969,0.5063477,-0.2519531,-14.3902445,-8.780488,-13.5365858,-0.0433051
864,-0.9057617,0.4892578,-0.246582,-14.0853662,-8.9634151,-13.5975609,-0.0480049
865,-0.909668,0.4833984,-0.246582,-13.0487804,-9.5121956,-13.9024391,-0.056733
866,-0.9091797,0.4765625,-0.2314453,-12.3780489,-9.8780489,-14.0243902,-0.0500191
867,-0.909668,0.4750977,-0.2246094,-10.7317076,-9.6951218,-13.841464,-0.0453193
868,-0.9208984,0.46875,-0.2114258,-9.6341467,-9.5121956,-13.841464,-0.0433051
869,-0.9228516,0.4716797,-0.2060547,-7.9268293,-9.5731707,-13.1097565,-0.0426337
870,-0.9291992,0.4692383,-0.1928711,-5.8536587,-9.9390249,-12.3780489,-0.0446479
871,-0.9287109,0.4750977,-0.1918945,-5.3048782,-10.1219511,-11.9512196,-0.0459907
872,-0.9306641,0.480957,-0.1875,-4.1463413,-9.7560978,-10.8536587,-0.0446479
873,-0.9306641,0.4765625,-0.1826172,-4.0853658,-9.7560978,-10.5487804,-0.0365911
874,-0.9321289,0.4633789,-0.1762695,-3.8414636,-10.3048782,-9.3902445,-0.03122
875,-0.9199219,0.4443359,-0.1616211,-3.5975611,-10.3048782,-9.0243902,-0.027863
876,-0.9116211,0.4399414,-0.1547852,-3.3536587,-10.3658543,-7.9268293,-0.0285344
877,-0.8974609,0.4306641,-0.152832,-2.5609756,-10.5487804,-7.8658538,-0.0271916
878,-0.8979492,0.4267578,-0.1513672,-1.3414634,-9.8780489,-7.6829271,-0.024506
879,-0.8916016,0.4345703,-0.1572266,-1.2195122,-9.5731707,-7.6829271,-0.0234989
880,-0.8891602,0.4438477,-0.1567383,-0.7926829,-8.719512,-7.6219516,-0.0641184
881,-0.8974609,0.4550781,-0.1650391,0,-7.6829271,-7.3780489,-0.2141756
882,-0.9008789,0.4594727,-0.1689453,-0.0609756,-7.3170733,-7.1341467,-0.2897078
883,-0.9111328,0.4633789,-0.175293,0.3658537,-6.3414636,-5.670732,-0.2688945
884,-0.9130859,0.4677734,-0.1801758,0.7317073,-6.2195125,-5.3048782,-0.1990692
885,-0.9169922,0.4711914,-0.1782227,1.9512196,-5.8536587,-4.2682929,-0.115816
886,-0.9189453,0.4780273,-0.1811523,2.3170731,-5.609756,-3.7804878,-0.0520333
887,-0.9179688,0.4819336,-0.1821289,3.1097562,-4.8780489,-3.1097562,0.0023499
888,-0.9208984,0.4902344,-0.1787109,3.6585367,-4.7560978,-2.9268293,0.021149
889,-0.9199219,0.4936523,-0.1787109,4.4512196,-5,-2.5609756,0.014435
890,-0.921875,0.5029297,-0.1835938,4.8780489,-5.1219511,-2.2560976,0.0063783
891,-0.9199219,0.5107422,-0.1884766,6.4634147,-5,-1.9512196,0.0070497
892,-0.9228516,0.5239258,-0.1972656,7.0731707,-4.6341462,-1.2195122,0.014435
893,-0.9262695,0.5297852,-0.2041016,7.1951222,-4.390244,-0.9146342,0.0258488
894,-0.9360352,0.534668,-0.2197266,8.0487804,-4.5121951,0.6097561,0.0298772
895,-0.9365234,0.5424805,-0.230957,8.1097565,-4.6341462,1.5243902,0.0399481
896,-0.9394531,0.5498047,-0.2495117,9.5731707,-4.7560978,2.9878049,0.0453193
897,-0.9418945,0.5527344,-0.2578125,10.060976,-4.5121951,3.5975611,0.0476692
898,-0.9404297,0.550293,-0.2587891,11.0365858,-3.8414636,4.8170733,0.0520333
899,-0.9384766,0.5405273,-0.2495117,11.341464,-3.6585367,5.1219511,0.0476692
900,-0.9404297,0.5361328,-0.2431641,12.1341467,-3.7804878,6.5243902,0.0372625
901,-0.9355469,0.5283203,-0.2392578,13.2317076,-4.0853658,7.4390244,0.0339055
902,-0.9345703,0.5307617,-0.2319336,14.3292685,-3.8414636,7.9268293,0.0372625
903,-0.934082,0.5366211,-0.2368164,16.1585369,-3.9634147,9.4512196,0.0359197
904,-0.9311523,0.5424805,-0.2314453,17.560976,-4.0853658,9.9390249,0.0281987
905,-0.9375,0.546875,-0.2348633,19.2682934,-3.8414636,10.9756098,-0.0171206
906,-0.9384766,0.5566406,-0.2329102,19.939024,-3.9024391,11.4634151,-0.235996
907,-0.9477539,0.5551758,-0.2314453,20.9756107,-3.7195122,13.4756098,-0.3534905
908,-0.9536133,0.5410156,-0.2250977,21.2195129,-3.5365853,14.7560978,-0.3024643
909,-0.9545898,0.5258789,-0.2084961,22.2560978,-3.1707318,18.0487804,-0.1832914
910,-0.956543,0.4951172,-0.1777344,23.2317085,-2.9268293,19.5731716,-0.0533761
911,-0.9487305,0.4794922,-0.1645508,25.7317085,-3.2317073,22.8048782,0.0788891
912,-0.9458008,0.4511719,-0.1538086,28.6585369,-2.9878049,25.1219521,0.1715419
913,-0.9428711,0.4423828,-0.1552734,30.060976,-3.2317073,25.7926826,0.190341
914,-0.9443359,0.4418945,-0.1757812,33.4146347,-2.5,27.3780499,0.165835
915,-0.9462891,0.4472656,-0.1821289,35.0609779,-2.3170731,27.8048782,0.1406577
916,-0.9599609,0.4667969,-0.1821289,39.3902435,-2.3780489,28.2317085,0.1077592
917,-0.9697266,0.4790039,-0.1767578,41.7073174,-2.5609756,28.5365868,0.0842603
918,-0.9819336,0.4853516,-0.1787109,45.1219521,-2.9878049,29.6951218,0.0715038
919,-0.9946289,0.4936523,-0.1831055,46.4634171,-3.2317073,30.9756107,0.0493477
920,-0.9980469,0.4931641,-0.1816406,48.3536606,-3.9634147,33.9634171,0.0315557
921,-0.9916992,0.4951172,-0.1821289,50,-4.5731707,35.4268303,0.021149
922,-0.9882812,0.4980469,-0.1860352,54.7560997,-5.7926831,37.4390259,0.0130922
923,-0.9785156,0.5097656,-0.199707,60.8536606,-6.7073174,38.9634171,-0.0043641
924,-0.9819336,0.5200195,-0.2070312,63.9634171,-7.3780489,39.3902435,-0.0016785
925,-0.9672852,0.5498047,-0.2319336,70.7317123,-9.5121956,40.3048782,-0.0030213
926,-0.9609375,0.5742188,-0.2539062,73.7804871,-10.1829271,40.7317085,-0.0117494
927,-0.9453125,0.6293945,-0.3027344,78.4146347,-10.4268293,40.9146347,-0.011078
928,-0.9331055,0.6831055,-0.3608398,79.5731735,-10.5487804,40.9146347,-0.0167849
929,-0.9306641,0.7055664,-0.3828125,79.2073212,-11.341464,42.0731735,-0.0302129
930,-0.9125977,0.7392578,-0.3984375,77.6219559,-11.4634151,42.7439041,-0.0392767
931,-0.90625,0.746582,-0.3911133,73.9634171,-10.7926836,45.3048782,-0.0446479
932,-0.8999023,0.7456055,-0.3852539,71.8902435,-10.8536587,46.9512215,-0.0557259
933,-0.8945312,0.7407227,-0.3901367,67.9268341,-10.1829271,50.5487823,-0.0721752
934,-0.8798828,0.7314453,-0.3735352,64.2073212,-9.5731707,53.841465,-0.0876173
935,-0.8701172,0.7226562,-0.3608398,63.5365868,-8.9634151,54.8170738,-0.1040665
936,-0.8481445,0.7143555,-0.3408203,63.5975609,-8.6585369,56.5853653,-0.1138018
937,-0.8413086,0.7182617,-0.3388672,63.7195129,-8.2317076,56.8292694,-0.1077592
938,-0.8232422,0.7397461,-0.3271484,63.4146347,-7.3780489,56.7073174,-0.0929885
939,-0.8222656,0.7695312,-0.3125,62.68293,-6.890244,56.5243912,-0.0809033
940,-0.8227539,0.7783203,-0.3129883,60.7926826,-5.4878049,56.9512215,-0.0473335
941,-0.8378906,0.7939453,-0.3105469,59.5731735,-4.6341462,57.8658562,-0.0298772
942,-0.8408203,0.7915039,-0.3037109,55.8536606,-2.5609756,61.2804909,-0.0248417
943,-0.8496094,0.7734375,-0.2866211,53.1707344,-1.402439,63.7195129,-0.0218204
944,-0.8515625,0.7602539,-0.2792969,48.841465,0.8536586,69.4512177,-0.0248417
945,-0.8476562,0.7363281,-0.2666016,44.2682953,3.7195122,73.9634171,-0.0292058
946,-0.8461914,0.7270508,-0.262207,42.6219521,4.8780489,75.6707306,-0.0365911
947,-0.8535156,0.7133789,-0.2460938,38.5365868,7.1341467,77.3780518,-0.0382696
948,-0.8579102,0.7109375,-0.2421875,36.4634171,8.2317076,77.7439041,-0.0426337
949,-0.8823242,0.703125,-0.2314453,33.3536606,10.3048782,78.2926865,-0.0553902
950,-0.9008789,0.7124023,-0.2387695,32.3780479,11.4634151,78.7804871,-0.0758679
951,-0.9106445,0.7290039,-0.2578125,32.2560997,13.4146347,79.4512177,-0.2554665
952,-0.9277344,0.7768555,-0.2973633,33.2317085,13.780488,79.8780518,-0.4038453
953,-0.9384766,0.7998047,-0.3095703,35.4878044,14.3292685,80.6097565,-0.3645686
954,-0.9448242,0.8383789,-0.324707,36.0975609,14.8170738,81.3414688,-0.2447242
955,-0.9438477,0.8476562,-0.3276367,35.6097565,15.7926836,84.0243912,-0.1077592
956,-0.9267578,0.8588867,-0.3461914,32.8048782,16.7073174,87.6219559,0.0184634
957,-0.9145508,0.8613281,-0.3647461,31.0365868,17.2560978,89.6341476,0.1044022
958,-0.8808594,0.8583984,-0.3950195,26.1585369,17.9878044,94.146347,0.1117876
959,-0.8583984,0.8457031,-0.3979492,24.2682934,18.5975609,95.9756088,0.0815747
960,-0.8168945,0.8369141,-0.375,22.560976,20.1829281,98.8414688,0.0587472
961,-0.7919922,0.840332,-0.4462891,22.7439022,20.5487804,99.9390259,0.0426337
962,-0.7802734,0.8461914,-0.4750977,20.6097565,22.0121956,101.5853653,0.0292058
963,-0.769043,0.8613281,-0.5048828,19.1463413,23.1097565,102.3780518,0.0151064
964,-0.7773438,0.8637695,-0.5073242,16.8292694,25,103.9024429,0.0063783
965,-0.7929688,0.859375,-0.5288086,15.5487804,25.9146347,105.3048782,0.0063783
966,-0.8017578,0.8515625,-0.5458984,12.1951218,26.7073174,109.2682953,0.0023499
967,-0.8110352,0.8388672,-0.5541992,7.6829271,27.6829281,113.9634171,-0.0030213
968,-0.8017578,0.8393555,-0.5488281,6.5243902,28.3536587,115.9146347,-0.0063783
969,-0.7983398,0.8564453,-0.5356445,5.1219511,29.8780499,118.4756088,-0.0016785
970,-0.7978516,0.871582,-0.5380859,4.390244,30.5487804,119.146347,-0.0083925
971,-0.8046875,0.9111328,-0.5097656,2.6829269,31.4634151,119.0853653,-0.011078
972,-0.8222656,0.9404297,-0.4887695,2.9268293,31.4024391,119.3902435,-0.0137636
973,-0.8364258,0.9506836,-0.4995117,1.7073171,32.3170738,120.1219559,-0.0124208
974,-0.847168,0.9536133,-0.5371094,-0.0609756,32.2560997,121.7682953,-0.0191348
975,-0.8505859,0.9458008,-0.5478516,-5.1219511,33.0487823,126.2804871,-0.0204776
976,-0.8432617,0.921875,-0.5610352,-7.5609756,33.6585388,128.8414612,-0.0181277
977,-0.8320312,0.9111328,-0.5634766,-11.4634151,34.5731697,134.2682953,-0.0218204
978,-0.8017578,0.8969727,-0.5595703,-13.4146347,35.6707344,138.3536682,-0.0265202
979,-0.7905273,0.8969727,-0.5483398,-13.6585369,37.2560997,139.2682953,-0.027863
980,-0.7719727,0.902832,-0.5268555,-14.2682934,39.6951218,139.146347,-0.0288701
981,-0.7749023,0.909668,-0.5083008,-14.3902445,40.7926826,138.6585388,-0.0399481
982,-0.7807617,0.9331055,-0.4814453,-14.3292685,41.2804871,137.4390259,-0.0325628
983,-0.7851562,0.9677734,-0.46875,-14.2073174,41.7073174,137.5,-0.0339055
984,-0.7866211,0.984375,-0.4614258,-13.9634151,42.6219521,138.1097565,-0.0386053
985,-0.7822266,1.0205078,-0.4584961,-13.5365858,43.2926826,138.9634247,-0.0433051
986,-0.7744141,1.0327148,-0.4477539,-13.7195129,43.841465,141.7073212,-0.0446479
987,-0.7456055,1.0556641,-0.4394531,-13.9634151,44.3292694,143.4756165,-0.0547189
988,-0.7285156,1.0566406,-0.4487305,-15.8536587,44.8170738,147.5,-0.0570687
989,-0.6850586,1.0722656,-0.4584961,-19.0243912,46.8902435,149.9390259,-0.0513619
990,-0.6679688,1.0810547,-0.4609375,-20.5487804,48.9634171,150.4878082,-0.0540475
991,-0.6357422,1.0893555,-0.4672852,-23.7195129,52.0731735,150.8536682,-0.056733
992,-0.6303711,1.0908203,-0.4746094,-26.2195129,53.3536606,150.8536682,-0.0597543
993,-0.6425781,1.081543,-0.4882812,-31.0365868,55.9146347,152.1341553,-0.0580758
994,-0.6630859,1.059082,-0.5219727,-33.1707306,57.5,153.5975647,-0.0621042
995,-0.6796875,1.050293,-0.5400391,-36.6463432,60.5487823,157.7439117,-0.0661326
996,-0.7021484,1.0375977,-0.5566406,-37.3780479,62.1341476,159.5731812,-0.0647898
997,-0.7075195,1.0405273,-0.5473633,-36.7073174,64.4512177,162.3780518,-0.070161
998,-0.7260742,1.0356445,-0.5244141,-36.1585388,65.2439041,162.9878082,-0.0641184
999,-0.7324219,1.0419922,-0.5195312,-33.9634171,65.3048782,162.9268341,-0.0607614
1000,-0.7407227,1.0532227,-0.5341797,-33.3536606,64.9390259,161.8902435,-0.0597543
1001,-0.7431641,1.0566406,-0.5458984,-33.6585388,64.9390259,161.7073212,-0.0674754
1002,-0.7421875,1.0673828,-0.5639648,-34.8170738,65.3658524,161.5243988,-0.0674754
1003,-0.7373047,1.0737305,-0.5561523,-35.1829262,65.6097565,161.8902435,-0.073518
1004,-0.7128906,1.0751953,-0.5336914,-35.8536606,65.6707306,162.9268341,-0.0829175
1005,-0.6860352,1.0654297,-0.5512695,-36.0975609,65.4878082,163.7804871,-0.084596
1006,-0.6782227,1.0585938,-0.5664062,-37.1951218,66.7073212,165.7926941,-0.0862745
1007,-0.6665039,1.0380859,-0.5922852,-37.6219521,67.3780518,167.2561035,-0.0866102
1008,-0.6513672,1.0249023,-0.5917969,-37.7439041,69.2682953,170.1219482,-0.0876173
1009,-0.6430664,1.0063477,-0.6074219,-37.2560997,70.1219559,171.4024506,-0.0882887
1010,-0.6391602,1.0029297,-0.6362305,-36.0975609,70.4878082,173.3536682,-0.094667
1011,-0.6308594,1.0039062,-0.6733398,-35.4878044,71.7682953,174.6341553,-0.0835889
1012,-0.6254883,1.015625,-0.6694336,-35,72.3170776,174.5121918,-0.0775463
1013,-0.6176758,1.0439453,-0.6376953,-33.9634171,72.8048782,174.2073212,-0.0741894
1014,-0.6191406,1.0488281,-0.6289062,-33.7195129,73.0487823,173.9024506,-0.0741894
1015,-0.6293945,1.0571289,-0.6069336,-34.7560997,73.9634171,174.5121918,-0.0718395
1016,-0.6347656,1.0478516,-0.5766602,-34.9390259,74.6341476,175.1829376,-0.0741894
1017,-0.6386719,1.0380859,-0.5703125,-35.2439041,75.4268341,178.3536682,-0.0728466
1018,-0.6357422,1.0146484,-0.6079102,-35.3658562,75.18293,180.2439117,-0.0681468
1019,-0.6274414,1.0043945,-0.6333008,-34.5121956,75.3048782,184.6341553,-0.0694896
1020,-0.5952148,1.0102539,-0.640625,-34.0853653,75.4878082,186.5243988,-0.063447
1021,-0.5844727,1.0166016,-0.6313477,-32.3170738,75.6097565,187.7439117,-0.0678111
1022,-0.5693359,1.003418,-0.6005859,-32.0121956,75.7926865,187.6829376,-0.0681468
1023,-0.5654297,0.9824219,-0.5947266,-32.1951218,76.2804871,187.86586,-0.0963455
1024,-0.5639648,0.9438477,-0.6000977,-31.8292694,77.0731735,189.3292694,-0.158114
1025,-0.5605469,0.9272461,-0.6113281,-30.5487804,77.5,190.8536682,-0.21149
1026,-0.543457,0.9267578,-0.640625,-26.0975609,77.5,193.1707306,-0.239353
1027,-0.5200195,0.9584961,-0.6381836,-23.5365868,76.7682953,193.7195129,-0.1943694
1028,-0.5043945,0.9765625,-0.621582,-20.060976,76.4634171,193.2926941,-0.1386435
1029,-0.4833984,0.9970703,-0.5908203,-19.5121956,76.8292694,192.5,-0.0688182
1030,-0.4780273,1.0029297,-0.5771484,-19.0243912,78.4146347,191.0365906,-0.014435
1031,-0.4731445,1.0131836,-0.5449219,-18.780489,79.2682953,190.9756165,0.021149
1032,-0.4667969,1.0146484,-0.5424805,-17.439024,80.1219559,192.1341553,0.0412909
1033,-0.4536133,1.0317383,-0.574707,-16.1585369,80.0609741,194.146347,0.0439765
1034,-0.4404297,1.0356445,-0.6074219,-15.6097565,80.2439041,195.36586,0.0459907
1035,-0.4145508,1.0654297,-0.6699219,-15.3048782,81.2804871,196.646347,0.0412909
1036,-0.402832,1.0751953,-0.6665039,-15.6097565,82.2560959,196.5243988,0.0345769
1037,-0.3837891,1.0830078,-0.6328125,-17.5,83.7195129,196.3414612,0.0315557
1038,-0.3676758,1.0649414,-0.6098633,-19.0243912,84.3292694,195.7926941,0.0224918
1039,-0.3618164,1.0493164,-0.5947266,-21.7682934,86.5243912,196.0975647,0.0117494
1040,-0.3564453,1.0126953,-0.5537109,-22.8048782,87.7439041,196.5853729,0.0117494
1041,-0.3535156,0.9951172,-0.5454102,-22.7439022,89.6951218,197.5609741,0.0117494
1042,-0.3457031,0.9785156,-0.5712891,-21.7682934,90.1219559,197.9878082,0.0097353
1043,-0.3447266,0.9838867,-0.5952148,-19.3292694,91.2804871,197.86586,0.0057069
1044,-0.3393555,1.003418,-0.6191406,-16.2195129,92.0731735,196.7073212,-0.0010071
1045,-0.3359375,1.0224609,-0.6196289,-15.1219511,92.3780518,195.4878082,-0.011078
1046,-0.3276367,1.046875,-0.6137695,-14.0243902,92.3170776,192.9878082,-0.014435
1047,-0.3188477,1.0541992,-0.6123047,-14.3902445,92.6219559,192.0731812,-0.017792
1048,-0.309082,1.0698242,-0.597168,-14.2073174,93.9634171,190.9146423,-0.0124208
1049,-0.296875,1.0742188,-0.5961914,-13.9024391,95.1219559,190.9756165,-0.0130922
1050,-0.2895508,1.0732422,-0.5957031,-14.2682934,96.8292694,192.3780518,-0.0157778
1051,-0.2753906,1.0668945,-0.5859375,-15.2439032,97.7439041,193.2317047,-0.0191348
1052,-0.2695312,1.0561523,-0.5913086,-17.8048782,100.18293,194.4512177,-0.0184634
1053,-0.2612305,1.0395508,-0.6206055,-19.0853672,101.5853653,194.6341553,-0.0218204
1054,-0.2568359,1.0258789,-0.6337891,-20.5487804,103.2926865,194.5731812,-0.0271916
1055,-0.2558594,1.0058594,-0.6323242,-20.4878044,104.7561035,194.0853729,-0.0352483
1056,-0.2578125,0.9931641,-0.6259766,-20.3048782,105.2439041,193.4756165,-0.0298772
1057,-0.2587891,0.9833984,-0.6240234,-19.7560978,106.2195129,192.4390259,-0.0285344
1058,-0.2592773,0.9863281,-0.6259766,-19.8170738,106.5853653,191.5853729,-0.0318914
1059,-0.253418,0.9980469,-0.6152344,-19.8780499,106.2804871,190.2439117,-0.0305486
1060,-0.2416992,0.9975586,-0.5942383,-20.3048782,106.0365906,189.512207,-0.03122
1061,-0.2329102,0.9936523,-0.59375,-20,105.4878082,188.0487823,-0.0406195
1062,-0.2202148,0.9936523,-0.6206055,-18.9634151,105.4268341,187.5609741,-0.0466621
1063,-0.2089844,1,-0.6459961,-16.7682934,105.3658524,186.5243988,-0.0446479
1064,-0.1870117,1.034668,-0.6875,-15.4878054,105.5487823,185.9146423,-0.0500191
1065,-0.175293,1.0571289,-0.6977539,-14.6341467,105.2439041,184.2073212,-0.0513619
1066,-0.1625977,1.0932617,-0.6904297,-17.0731716,105.6707306,182.1951294,-0.0570687
1067,-0.159668,1.0932617,-0.6791992,-18.0487804,106.0975647,181.3414612,-0.0647898
1068,-0.168457,1.0878906,-0.6640625,-19.6951218,107.4390259,181.0365906,-0.0741894
1069,-0.1713867,1.0742188,-0.6557617,-20.7317085,108.1097565,181.9512177,-0.0728466
1070,-0.1743164,1.0473633,-0.6303711,-22.0121956,109.0243912,183.7804871,-0.0694896
1071,-0.1704102,1.0048828,-0.6035156,-22.439024,108.9634171,184.8780518,-0.0788891
1072,-0.1616211,0.9838867,-0.5869141,-23.7195129,108.6585388,185.4878082,-0.0852674
1073,-0.1445312,0.9248047,-0.5283203,-24.4512196,108.6585388,185.1829376,-0.0842603
1074,-0.1391602,0.8945312,-0.5092773,-24.0853672,107.5,184.3902435,-0.0862745
1075,-0.121582,0.8457031,-0.5083008,-22.2560978,107.0121994,183.9024506,-0.0849317
1076,-0.112793,0.8408203,-0.5283203,-16.6463413,106.1585388,183.6585388,-0.0728466
1077,-0.0839844,0.8759766,-0.5283203,-10,105.7317123,183.1097565,-0.0661326
1078,-0.0717773,0.9135742,-0.5200195,-7.3170733,104.8780518,181.9512177,-0.0553902
1079,-0.0595703,0.9814453,-0.5146484,-6.4634147,103.9024429,180.1219482,-0.0506905
1080,-0.0507812,1.003418,-0.5083008,-7.7439027,104.146347,179.5731812,-0.0513619
1081,-0.0405273,0.9970703,-0.4765625,-13.2926836,106.0365906,180.5487823,-0.0493477
1082,-0.0239258,0.9550781,-0.4868164,-15.7926836,107.1341476,182.3170776,-0.0540475
1083,-0.0175781,0.9296875,-0.5249023,-19.2073174,108.5365906,186.8292694,-0.0647898
1084,-0.003418,0.9287109,-0.5976562,-19.6341476,109.5731735,189.0853729,-0.0950027
1085,0.0048828,0.9414062,-0.6044922,-18.5365849,111.0975647,190.36586,-0.1171588
1086,0.0136719,0.9677734,-0.5722656,-17.6219521,111.7073212,189.8170776,-0.1131304
1087,0.0073242,0.9663086,-0.5566406,-19.3902435,111.2804871,187.3170776,-0.112459
1088,-0.012207,0.9199219,-0.5454102,-23.7195129,111.2804871,187.3170776,-0.0970169
1089,-0.012207,0.8857422,-0.5332031,-25,111.9512253,188.7804871,-0.0785534
1090,0,0.8100586,-0.4750977,-23.8414631,112.68293,193.4146423,-0.0621042
1091,0.0258789,0.7475586,-0.4545898,-21.5243912,112.5609818,195.0609741,-0.0406195
1092,0.0429688,0.7402344,-0.4838867,-14.6341467,110.8536606,196.0365906,-0.0191348
1093,0.0571289,0.7822266,-0.5541992,-10.7926836,110.36586,195.5487823,-0.0157778
1094,0.0639648,0.8183594,-0.5703125,-4.1463413,110.1219559,192.1951294,-0.1010452
1095,0.0571289,0.8935547,-0.5585938,-2.3170731,109.5731735,190.4268341,-0.193698
1096,0.0527344,0.9086914,-0.5498047,-2.8658538,107.4390259,188.1097565,-0.1849699
1097,0.0512695,0.8911133,-0.5751953,-6.280488,106.646347,190.4268341,-0.1346151
1098,0.0625,0.8666992,-0.6000977,-7.8048782,106.8902435,192.86586,-0.0473335
1099,0.1074219,0.8349609,-0.6083984,-8.3536587,108.5975647,197.012207,0.0292058
1100,0.1289062,0.8266602,-0.5888672,-7.9268293,108.7195129,197.3780518,0.0829175
1101,0.1572266,0.796875,-0.5415039,-7.8048782,108.5975647,195.7317047,0.1097734
1102,0.1552734,0.769043,-0.5336914,-7.8658538,108.7195129,194.3902435,0.1164874
1103,0.1469727,0.7661133,-0.5195312,-7.0121951,110.36586,192.3170776,0.1111162
1104,0.125,0.777832,-0.4594727,-5.1219511,110.7926865,191.8902435,0.0960098
1105,0.1152344,0.7871094,-0.4287109,-1.097561,110.1219559,190.9756165,0.0936599
1106,0.105957,0.784668,-0.4165039,0.2439024,108.9634171,190.6097565,0.0862745
1107,0.1118164,0.7832031,-0.4404297,0,107.68293,191.3414612,0.0835889
1108,0.1459961,0.7788086,-0.4594727,-0.7926829,107.9878082,192.8048859,0.076875
1109,0.1601562,0.7792969,-0.4521484,-1.3414634,107.9878082,193.1097565,0.0708324
1110,0.1938477,0.7797852,-0.449707,-1.097561,107.6219559,192.86586,0.0681468
1111,0.2138672,0.7773438,-0.4760742,-1.8292683,107.5,192.1341553,0.0594186
1112,0.2338867,0.7885742,-0.5498047,-3.2317073,108.5365906,190,0.0480049
1113,0.2460938,0.8227539,-0.5551758,-3.3536587,109.5731735,189.0853729,0.0315557
1114,0.2456055,0.8427734,-0.5322266,-2.3170731,111.2804871,187.6829376,0.0073854
1115,0.2397461,0.8505859,-0.4946289,-2.4390244,111.5853653,186.5853729,-0.0540475
1116,0.2373047,0.8330078,-0.4946289,-5.9146342,111.3414688,186.4634247,-0.0822461
1117,0.2485352,0.7792969,-0.4970703,-8.6585369,111.9512253,187.1341553,-0.0889601
1118,0.2539062,0.7597656,-0.4726562,-10.9756098,114.4512253,190,-0.0809033
1119,0.2685547,0.7324219,-0.4208984,-9.5121956,115.6097565,190.8536682,-0.0694896
1120,0.2675781,0.7202148,-0.4174805,-8.780488,115.2439041,189.9390259,-0.0513619
1121,0.265625,0.7041016,-0.5019531,-8.2317076,114.2682953,187.9268341,-0.0379339
1122,0.2626953,0.7182617,-0.5678711,-8.4146347,114.3902435,186.7073212,-0.0298772
1123,0.2548828,0.8017578,-0.6450195,-6.4634147,114.6951218,183.4756165,-0.0224918
1124,0.2485352,0.894043,-0.6762695,-5.3048782,113.6585388,181.4634247,-0.0151064
1125,0.2524414,0.9223633,-0.706543,-7.4390244,110.7317123,178.5365906,-0.0181277
1126,0.2607422,0.9272461,-0.7436523,-10.5487804,109.7561035,178.1707306,-0.0261845
1127,0.2724609,0.9091797,-0.7280273,-18.1097565,111.1585388,180,-0.0231632
1128,0.296875,0.8398438,-0.6660156,-21.0365868,112.6219559,181.4024506,-0.0258488
1129,0.2998047,0.8051758,-0.6450195,-23.1097565,114.9390259,183.1707306,-0.0325628
1130,0.2993164,0.7573242,-0.6005859,-23.3536587,116.7682953,182.5609741,-0.0379339
1131,0.2885742,0.7402344,-0.5566406,-23.2317085,117.4390259,181.3414612,-0.0433051
1132,0.2495117,0.7143555,-0.4428711,-23.2317085,117.5,178.6585388,-0.0506905
1133,0.2231445,0.7055664,-0.4072266,-23.7195129,117.3780518,177.5,-0.0557259
1134,0.1782227,0.6860352,-0.4291992,-25,115.3048782,177.0121918,-0.0503548
1135,0.1723633,0.6962891,-0.4663086,-25.3048782,114.0853653,177.5609741,-0.0500191
1136,0.1889648,0.703125,-0.4350586,-26.0975609,112.0731735,178.1707306,-0.0436408
1137,0.2197266,0.6860352,-0.3198242,-26.0365868,111.1585388,177.6219482,-0.0412909
1138,0.2382812,0.6494141,-0.2880859,-26.280489,109.2682953,176.2804871,-0.0365911
1139,0.2827148,0.5605469,-0.2915039,-26.8292694,108.9024429,176.5853729,-0.0352483
1140,0.3149414,0.5361328,-0.3022461,-25.1219521,109.0243912,179.5121918,-0.0416266
1141,0.3828125,0.5615234,-0.234375,-18.1097565,108.4756088,179.5121918,-0.0466621
1142,0.4179688,0.5742188,-0.2041016,-14.4512196,107.1951218,177.8048859,-0.0513619
1143,0.4462891,0.5874023,-0.3027344,-12.3780489,105.5487823,175.9756165,-0.0513619
1144,0.4487305,0.6123047,-0.3671875,-14.2073174,106.8292694,177.0121918,-0.0560616
1145,0.4477539,0.6894531,-0.3793945,-17.3170738,112.3780518,180.0609741,-0.0621042
1146,0.4248047,0.7363281,-0.3637695,-17.3170738,114.3902435,181.0975647,-0.0661326
1147,0.4179688,0.7294922,-0.3579102,-19.4512196,115.7317123,182.1951294,-0.0755322
1148,0.3920898,0.6616211,-0.3496094,-22.3170738,116.3414688,183.2317047,-0.0923171
1149,0.375,0.6162109,-0.3608398,-27.0121956,118.4756088,184.6951294,-0.1003738
1150,0.3535156,0.5522461,-0.4013672,-27.2560978,118.7195129,186.0365906,-0.1037308
1151,0.3520508,0.5405273,-0.3964844,-23.3536587,117.3780518,187.9878082,-0.1037308
1152,0.3681641,0.5449219,-0.3442383,-16.8902435,112.9268341,185.1219482,-0.1050736
1153,0.3657227,0.5507812,-0.3413086,-14.2073174,110.7317123,183.0487823,-0.1077592
1154,0.3745117,0.5673828,-0.3867188,-11.280488,107.0731735,180.6097565,-0.1050736
1155,0.3837891,0.5805664,-0.3876953,-10.1219511,106.7073212,180.36586,-0.1104448
1156,0.418457,0.5917969,-0.3320312,-8.2926826,106.5243912,181.2195129,-0.1037308
1157,0.4584961,0.5742188,-0.2392578,-8.1097565,106.5853653,181.2804871,-0.1017166
1158,0.4741211,0.5541992,-0.2026367,-10.7317076,107.9878082,181.646347,-0.0990311
1159,0.4912109,0.4960938,-0.1518555,-11.8292685,109.4512253,181.9512177,-0.0896315
1160,0.4902344,0.4750977,-0.15625,-11.8902445,111.7073212,182.2561035,-0.0815747
1161,0.4887695,0.4560547,-0.2041016,-10.6097565,112.1951218,182.8048859,-0.0741894
1162,0.4892578,0.456543,-0.2163086,-7.3780489,111.7073212,182.6829376,-0.0637827
1163,0.4882812,0.472168,-0.2084961,-4.5121951,110.5487823,182.0731812,-0.0553902
1164,0.4941406,0.4716797,-0.1816406,-3.2926829,109.8780518,180.7926941,-0.0557259
1165,0.5048828,0.434082,-0.1733398,0.2439024,107.9878082,178.9024506,-0.0466621
1166,0.5146484,0.4130859,-0.1889648,2.0121951,107.5,178.6585388,-0.0446479
1167,0.5424805,0.3930664,-0.1450195,5.3658538,108.3536606,178.5975647,-0.0641184
1168,0.5678711,0.3798828,-0.0732422,7.1951222,108.5365906,177.86586,-0.0929885
1169,0.5683594,0.3803711,-0.0571289,8.5975609,108.2317123,175.6707306,-0.1037308
1170,0.5698242,0.3686523,-0.0444336,8.4756098,108.4756088,174.5121918,-0.144686
1171,0.5649414,0.3730469,-0.046875,9.8170738,109.5121994,173.4756165,-0.2366674
1172,0.5537109,0.3935547,-0.0722656,11.5243902,109.6951218,172.86586,-0.2363317
1173,0.5488281,0.4130859,-0.0859375,14.9390249,108.6585388,172.0121918,-0.1910124
1174,0.5605469,0.4526367,-0.0869141,17.6829281,106.5243912,169.5731812,-0.1252155
1175,0.5629883,0.472168,-0.0908203,17.8048782,105.7926865,167.9878082,-0.0540475
1176,0.5751953,0.4794922,-0.0917969,16.5243912,105.0609818,165.6097565,0.0010071
1177,0.5800781,0.46875,-0.1040039,15.4878054,105.4268341,164.3292694,0.0238346
1178,0.574707,0.4394531,-0.1821289,13.2317076,106.7073212,163.7195129,0.03122
1179,0.5629883,0.4384766,-0.2421875,11.8292685,107.5,163.9634247,0.0359197
1180,0.5625,0.4458008,-0.2216797,9.2682924,107.5609818,162.3170776,0.0224918
1181,0.5561523,0.4482422,-0.1826172,8.2317076,106.8902435,160.5487823,0.0130922
1182,0.5541992,0.4331055,-0.1679688,6.1585369,104.3902435,156.0365906,0.0077211
1183,0.5561523,0.3808594,-0.1279297,5.1829271,103.5975647,154.146347,-0.0057069
1184,0.5615234,0.355957,-0.1152344,4.5731707,102.6219559,151.8902435,-0.0157778
1185,0.5698242,0.3291016,-0.1035156,5.9146342,102.2561035,150,-0.0154421
1186,0.5698242,0.3330078,-0.0981445,6.4024391,101.7682953,149.2073212,-0.0218204
1187,0.5625,0.3525391,-0.0952148,5.1829271,100.18293,145.9756165,-0.027863
1188,0.5620117,0.3525391,-0.0751953,3.1707318,99.146347,144.5121918,-0.03122
1189,0.5581055,0.3310547,-0.0214844,0.2439024,97.9268341,142.1341553,-0.0305486
1190,0.5620117,0.2729492,0.0317383,-0.5487805,97.6219559,141.2195129,-0.0305486
1191,0.5712891,0.2416992,0.0566406,-0.4268293,96.2804871,140.5487823,-0.0352483
1192,0.5913086,0.1884766,0.1162109,-0.1829268,96.0365906,139.8780518,-0.0580758
1193,0.597168,0.1630859,0.1538086,0.6707317,96.5853653,137.9878082,-0.0607614
1194,0.5922852,0.1323242,0.2080078,1.4634147,96.8292694,136.7073212,-0.0500191
1195,0.5917969,0.1240234,0.2197266,4.1463413,96.4024429,134.5121918,-0.0359197
1196,0.5922852,0.1206055,0.2041016,6.6463418,94.0853653,132.2561035,-0.017792
1197,0.5996094,0.1274414,0.1938477,7.9878049,92.5609741,131.2195129,0.0023499
1198,0.6137695,0.1611328,0.1181641,10.9146347,88.2926865,129.6951294,0.0124208
1199,0.6333008,0.1855469,0.0610352,11.7073174,86.0975647,129.2682953,0.0157778
1200,0.6816406,0.2387695,-0.0092773,10.7317076,83.3536606,128.1097565,0.0090639
1201,0.7324219,0.2573242,0.012207,8.6585369,82.9268341,127.0121994,0.0090639
1202,0.7456055,0.2407227,0.027832,3.0487804,82.9878082,124.8780518,0.0050355
1203,0.7612305,0.1665039,0.050293,0.7317073,82.68293,124.3902435,-0.0030213
1204,0.7646484,0.1166992,0.0581055,-2.1341465,84.146347,124.9390259,-0.0305486
1205,0.7358398,0.0307617,0.0170898,-1.8902439,85.1219559,125.3048782,-0.0587472
1206,0.7133789,0.0151367,-0.03125,-0.3048781,86.0365906,126.5243912,-0.0929885
1207,0.6787109,0.0561523,-0.081543,0.3658537,84.8170776,124.6951218,-0.1037308
1208,0.6538086,0.1020508,-0.0693359,0.9756098,83.5365906,121.4024429,-0.0919814
1209,0.6079102,0.1933594,-0.0419922,1.8292683,78.4146347,113.6585388,-0.0835889
1210,0.6015625,0.222168,-0.0385742,1.4634147,75,110.6097565,-0.0822461
1211,0.6069336,0.237793,-0.0483398,-0.7926829,69.7560959,107.0731735,-0.0795605
1212,0.6552734,0.203125,-0.0605469,-2.1341465,68.0487823,106.7073212,-0.0674754
1213,0.6894531,0.1850586,-0.0600586,-4.8780489,66.5243912,107.8048782,-0.0486763
1214,0.7446289,0.1635742,-0.0610352,-5.9146342,66.6463394,108.1707306,-0.0218204
1215,0.7680664,0.1557617,-0.0532227,-8.9024391,66.8292694,106.9512253,-0.0083925
1216,0.7768555,0.1459961,-0.0375977,-10.3048782,67.2560959,105.1219559,-0.0003357
1217,0.7670898,0.1386719,-0.0273438,-12.6829271,67.7439041,102.1951218,0.0010071
1218,0.7382812,0.1323242,0.0068359,-14.8780489,67.0121994,98.9634171,0.0020142
1219,0.7211914,0.1337891,0.0332031,-15.1219511,66.4024429,97.7439041,-0.011078
1220,0.6943359,0.140625,0.0664062,-15,63.2317085,95.4878082,-0.0231632
1221,0.6811523,0.1342773,0.0722656,-14.7560978,61.6463432,94.7561035,-0.0218204
1222,0.6899414,0.0913086,0.097168,-13.7195129,57.1341476,93.1707306,-0.0275273
1223,0.7163086,0.0336914,0.1269531,-12.8658543,54.8170738,92.1951218,-0.0325628
1224,0.7353516,0.0078125,0.1376953,-10.8536587,51.7682953,90.0609741,-0.0446479
1225,0.7617188,-0.0219727,0.1396484,-8.841464,50,88.9634171,-0.0493477
1226,0.7744141,-0.0229492,0.140625,-5.5487804,47.5609779,86.4634171,-0.0493477
1227,0.7871094,-0.0141602,0.1743164,-4.1463413,46.2195129,85,-0.0587472
1228,0.7983398,-0.0029297,0.1948242,-1.1585366,43.6585388,82.0121994,-0.0607614
1229,0.8032227,0.0131836,0.2080078,2.195122,41.2195129,79.0243912,-0.0621042
1230,0.8027344,0.0205078,0.2055664,3.5975611,40.6707344,77.68293,-0.0654612
1231,0.7944336,0.0473633,0.1982422,6.1585369,39.6951218,75.6097565,-0.0829175
1232,0.7905273,0.0610352,0.1958008,6.7073174,38.9024391,74.3902435,-0.0916457
1233,0.7856445,0.0878906,0.1855469,5.3048782,37.3170738,71.7682953,-0.0970169
1234,0.7949219,0.097168,0.1674805,4.3292685,36.2804871,70.0609741,-0.1044022
1235,0.7963867,0.0966797,0.15625,2.3780489,34.5731697,67.5609741,-0.1064164
1236,0.8139648,0.0859375,0.1640625,1.097561,33.7804871,66.5243912,-0.1064164
1237,0.8300781,0.0786133,0.1821289,-1.0365853,32.1341476,64.5731735,-0.1037308
1238,0.8691406,0.0532227,0.2270508,-1.8902439,31.5243912,63.5975609,-0.1104448
1239,0.8876953,0.0332031,0.2373047,-3.5975611,31.280489,60.9756126,-0.115816
1240,0.9047852,0.0205078,0.2319336,-4.5121951,32.1951218,58.1707344,-0.1144732
1241,0.9077148,0.0234375,0.2285156,-4.9390244,32.5609779,56.7682953,-0.1104448
1242,0.8950195,0.0390625,0.2280273,-6.7073174,33.2926826,54.0853653,-0.1138018
1243,0.8862305,0.0463867,0.230957,-7.6829271,33.2926826,52.5,-0.1104448
1244,0.8833008,0.0512695,0.2333984,-9.6951218,32.4390259,49.6341476,-0.1104448
1245,0.8803711,0.0566406,0.2290039,-10.7317076,32.1341476,48.841465,-0.1104448
1246,0.8823242,0.0600586,0.2407227,-13.0487804,31.6463413,47.5,-0.105745
1247,0.8959961,0.0537109,0.2729492,-14.3902445,31.2195129,46.4024391,-0.1097734
1248,0.9008789,0.043457,0.2792969,-16.7682934,31.1585369,44.3902435,-0.1440146
1249,0.9086914,0.015625,0.2636719,-17.1951218,30.6097565,43.2317085,-0.28567940000000003
1250,0.9169922,0.0102539,0.2475586,-18.0487804,30.6707325,41.7682953,-0.4233158
1251,0.918457,0.0117188,0.2319336,-18.9634151,30.3048782,40.1829262,-0.3991455
1252,0.918457,0.0117188,0.2290039,-19.5731716,29.5731716,39.0243912,-0.3098497
1253,0.9223633,0.0063477,0.2324219,-21.7073174,27.5,37.0731697,-0.1997406
1254,0.9287109,-0.0004883,0.234375,-22.5,27.0121956,35.7317085,-0.0943313
1255,0.9404297,-0.0302734,0.2460938,-23.8414631,26.0975609,34.0853653,-0.0090639
1256,0.9438477,-0.0527344,0.222168,-23.4756107,25.9756107,33.2317085,0.0533761
1257,0.9438477,-0.0566406,0.2128906,-23.2317085,25.2439022,32.4390259,0.0822461
1258,0.9467773,-0.0585938,0.2275391,-23.1707325,24.7560978,31.9512196,0.0748608
1259,0.9433594,-0.0537109,0.2348633,-22.439024,23.7195129,29.7560978,0.0755322
1260,0.9287109,-0.0410156,0.2421875,-21.8902435,22.8048782,28.3536587,0.073518
1261,0.9199219,-0.0322266,0.2416992,-20.1829281,20.6097565,25.6097565,0.0594186
1262,0.9052734,-0.0097656,0.2426758,-19.0243912,18.7195129,23.4146347,-0.014435
1263,0.9003906,0.0024414,0.2382812,-18.2317085,17.9268303,22.7439022,-0.0688182
1264,0.8911133,0.0229492,0.2250977,-18.0487804,16.3414631,21.5853672,-0.0574044
1265,0.8969727,0.0366211,0.2202148,-18.4146347,15.4878054,21.0975609,-0.0151064
1266,0.9018555,0.0458984,0.2275391,-20.8536587,14.3292685,20.1219521,0.0345769
1267,0.9160156,0.046875,0.2421875,-22.0121956,13.6585369,19.4512196,0.0704967
1268,0.9204102,0.0410156,0.2431641,-23.1097565,12.7439032,17.1951218,0.0983597
1269,0.9321289,0.0307617,0.2265625,-23.1707325,12.3170738,16.2195129,0.1151446
1270,0.9335938,0.0234375,0.2114258,-23.4756107,11.280488,15.1219511,0.119173
1271,0.9477539,0.0258789,0.1879883,-23.9634151,11.219512,14.9390249,0.1084306
1272,0.9462891,0.0244141,0.1933594,-25.5487804,11.7073174,14.1463413,0.1003738
1273,0.9448242,0.0185547,0.2119141,-27.4390259,11.4634151,13.0487804,0.0654612
1274,0.9443359,0.015625,0.21875,-27.560976,11.280488,12.560976,0.0318914
1275,0.9418945,-0.0004883,0.2216797,-27.6219521,10.3658543,11.1585369,0.0124208
1276,0.9350586,-0.0200195,0.2114258,-26.5243912,10.4268293,11.4024391,-0.0030213
1277,0.9291992,-0.0185547,0.2041016,-25.3658543,10.1219511,10.7317076,-0.0104067
1278,0.9174805,0.0014648,0.1875,-23.9024391,10.060976,10.4268293,-0.0057069
1279,0.9150391,0.0126953,0.1826172,-23.5365868,8.9634151,9.5121956,0.0060426
1280,0.9140625,0.0258789,0.1791992,-23.8414631,8.1097565,9.0243902,0.0097353
1281,0.9091797,0.0292969,0.171875,-24.7560978,6.6463418,7.8048782,0.0077211
1282,0.9145508,0.0332031,0.1513672,-24.9390259,5.4878049,7.6829271,0.0010071
1283,0.9145508,0.0356445,0.1469727,-24.5121956,4.6951222,7.3780489,-0.0097353
1284,0.9204102,0.0488281,0.1572266,-24.5121956,3.2926829,7.3780489,-0.0218204
1285,0.9272461,0.0473633,0.1640625,-24.6341476,2.3780489,6.9512196,-0.0339055
1286,0.9404297,0.0371094,0.1796875,-24.8780499,1.6463414,6.5243902,-0.0466621
1287,0.9355469,0.0327148,0.1875,-24.7560978,1.3414634,5.9146342,-0.0557259
1288,0.9301758,0.0327148,0.1826172,-23.2926826,0.9756098,5.3048782,-0.0446479
1289,0.9116211,0.0493164,0.1508789,-22.6829281,0.7926829,5.4878049,-0.0339055
1290,0.9008789,0.0644531,0.1401367,-21.7682934,-0.2439024,5.9146342,-0.0164492
1291,0.8886719,0.074707,0.1396484,-21.6463413,-0.9146342,5.7926831,0.0077211
1292,0.890625,0.0820312,0.1523438,-21.9512196,-2.7439024,5.7317076,0.017792
1293,0.8950195,0.0834961,0.1757812,-22.3780499,-4.390244,5.1829271,0.0157778
1294,0.8999023,0.0854492,0.1831055,-22.8048782,-5.2439027,4.7560978,0.017792
1295,0.9091797,0.0883789,0.2006836,-23.4756107,-6.0365853,4.5121951,0.0194705
1296,0.9174805,0.0878906,0.2124023,-23.2926826,-6.2195125,4.390244,0.0070497
1297,0.9257812,0.0825195,0.2138672,-23.4146347,-6.0975609,4.5731707,0.0006714
1298,0.934082,0.0805664,0.1850586,-23.6585369,-6.0365853,4.8780489,-0.003357
1299,0.9296875,0.0791016,0.171875,-23.4146347,-5.3048782,6.4024391,-0.0030213
1300,0.9331055,0.0947266,0.1464844,-23.5365868,-5.4268293,6.7682929,-0.0191348
1301,0.9345703,0.0991211,0.1430664,-24.0853672,-5.4268293,6.7073174,-0.0218204
1302,0.9277344,0.0952148,0.1533203,-25.1829281,-5.7317076,6.5853658,-0.0292058
1303,0.9277344,0.0859375,0.168457,-27.5,-5.9146342,6.4634147,-0.0305486
1304,0.9267578,0.0566406,0.1826172,-27.7439022,-6.0365853,6.7682929,-0.0372625
1305,0.9291992,0.050293,0.1831055,-27.1341476,-5.9756098,7.3780489,-0.0459907
1306,0.925293,0.0488281,0.1689453,-24.8170738,-6.7073174,8.1707315,-0.0540475
1307,0.9282227,0.0473633,0.1547852,-23.5365868,-7.1951222,8.4756098,-0.0533761
1308,0.9282227,0.0634766,0.1313477,-22.3780499,-8.5365858,8.4756098,-0.0533761
1309,0.9296875,0.0766602,0.1210938,-22.7439022,-8.841464,8.2926826,-0.063447
1310,0.9282227,0.0820312,0.1240234,-23.5975609,-9.7560978,8.1097565,-0.0607614
1311,0.9316406,0.0761719,0.128418,-23.8414631,-9.8780489,8.3536587,-0.063447
1312,0.9384766,0.074707,0.1328125,-24.5731716,-10.6097565,9.2682924,-0.0681468
1313,0.9506836,0.0693359,0.1484375,-24.5121956,-10.6097565,9.9390249,-0.0674754
1314,0.9545898,0.0620117,0.1523438,-24.0243912,-10.6097565,10.7926836,-0.0704967
1315,0.9584961,0.0703125,0.1533203,-22.8048782,-10.9146347,10.2439022,-0.0755322
1316,0.9526367,0.0795898,0.1401367,-22.0731716,-11.219512,10.3658543,-0.076875
1317,0.9443359,0.1025391,0.1030273,-21.1585369,-11.8292685,10.060976,-0.0674754
1318,0.9414062,0.1142578,0.0976562,-21.280489,-12.0121956,10.3048782,-0.0621042
1319,0.9433594,0.1181641,0.1171875,-22.9878063,-12.6829271,10.4268293,-0.070161
1320,0.9482422,0.097168,0.1474609,-24.1463413,-12.6829271,10.7926836,-0.0869459
1321,0.9511719,0.0825195,0.15625,-24.8780499,-12.8658543,11.7682934,-0.1117876
1322,0.9575195,0.0703125,0.1665039,-24.7560978,-12.560976,12.2560978,-0.1362936
1323,0.965332,0.074707,0.1669922,-23.8414631,-12.1951218,13.2317076,-0.148043
1324,0.9614258,0.0839844,0.1630859,-23.3536587,-12.1341467,13.1707315,-0.1467002
1325,0.9541016,0.0908203,0.1611328,-22.6219521,-12.0731707,12.560976,-0.1399863
1326,0.9521484,0.0917969,0.1586914,-22.6829281,-11.7682934,12.0121956,-0.1292439
1327,0.9477539,0.0874023,0.1611328,-22.8658543,-11.7073174,12.2560978,-0.1198444
1328,0.9414062,0.0869141,0.1674805,-22.3170738,-11.8292685,12.8048782,-0.109102
1329,0.9458008,0.0820312,0.1645508,-22.0121956,-11.8902445,12.9268293,-0.0849317
1330,0.9516602,0.0800781,0.1591797,-21.280489,-11.9512196,13.841464,-0.056733
1331,0.9624023,0.0678711,0.1669922,-20.9756107,-11.8902445,14.0853662,-0.035584
1332,0.965332,0.0649414,0.1728516,-20.6707325,-11.1585369,14.6341467,-0.0204776
1333,0.9648438,0.0537109,0.1811523,-20,-11.0365858,14.6951227,-0.0164492
1334,0.9609375,0.0483398,0.1708984,-18.4756107,-10.5487804,14.5731707,-0.0181277
1335,0.9545898,0.0654297,0.140625,-17.5,-10.2439022,14.8170738,-0.0231632
1336,0.949707,0.0771484,0.1308594,-16.0365849,-10.060976,15.060976,-0.0318914
1337,0.9453125,0.0917969,0.1152344,-15.7317076,-10.1829271,14.2682934,-0.0359197
1338,0.9389648,0.1000977,0.112793,-15.9756098,-10.3048782,13.7195129,-0.0446479
1339,0.9399414,0.0952148,0.1166992,-16.8902435,-10.7926836,13.5975609,-0.0896315
1340,0.9423828,0.0917969,0.1254883,-16.8902435,-10.6097565,13.5365858,-0.2876936
1341,0.9458008,0.0786133,0.1396484,-17.0731716,-10.6097565,13.841464,-0.4602426
1342,0.956543,0.0742188,0.1176758,-16.4634151,-10.3658543,14.0243902,-0.4810559
1343,0.9584961,0.0742188,0.097168,-16.4024391,-10.1829271,14.6951227,-0.4139162
1344,0.9575195,0.0766602,0.0693359,-16.4024391,-9.6341467,14.8170738,-0.2910506
1345,0.9604492,0.0825195,0.0649414,-17.0121956,-9.0853662,14.7560978,-0.1675135
1346,0.9589844,0.0883789,0.0742188,-17.3780499,-8.6585369,14.8780489,-0.0453193
1347,0.953125,0.090332,0.0825195,-18.3536587,-8.3536587,13.780488,0.0500191
1348,0.9506836,0.0859375,0.1035156,-19.1463413,-8.1097565,12.6219511,0.1037308
1349,0.9462891,0.0859375,0.1152344,-19.0243912,-8.0487804,12.3780489,0.1232013
1350,0.940918,0.0849609,0.1352539,-19.5121956,-8.2317076,12.1341467,0.1312581
1351,0.9389648,0.0795898,0.1347656,-19.5731716,-8.4756098,12.4390249,0.1305867
1352,0.9438477,0.0673828,0.1391602,-19.6341476,-8.2926826,12.9268293,0.1305867
1353,0.9477539,0.0556641,0.1259766,-19.3902435,-7.8658538,13.1097565,0.1312581
1354,0.9521484,0.0541992,0.1157227,-18.5975609,-7.6219516,13.841464,0.1054093
1355,0.9443359,0.0551758,0.1186523,-17.9878044,-7.3170733,13.841464,0.073518
1356,0.9433594,0.0571289,0.1201172,-16.9512196,-7.1341467,13.3536587,0.035584
1357,0.9335938,0.0708008,0.1166992,-16.5243912,-7.3170733,12.6829271,-0.0043641
1358,0.9257812,0.0786133,0.112793,-15.1829271,-8.1707315,11.0975609,-0.0594186
1359,0.9199219,0.0883789,0.1132812,-15.6097565,-9.3292685,10.9146347,-0.0822461
1360,0.9199219,0.0898438,0.1132812,-15.7926836,-9.3902445,10.9146347,-0.0936599
1361,0.9208984,0.0751953,0.1293945,-16.8902435,-9.5121956,11.341464,-0.0997024
1362,0.9228516,0.0644531,0.1337891,-16.8902435,-9.6341467,11.9512196,-0.0849317
1363,0.9428711,0.0458984,0.1362305,-16.5243912,-10.1219511,13.1707315,-0.0533761
1364,0.9560547,0.034668,0.1323242,-15.5487804,-10,13.2926836,-0.0137636
1365,0.9584961,0.0268555,0.1323242,-14.7560978,-10.060976,13.0487804,0.0305486
1366,0.9609375,0.0185547,0.1347656,-14.4512196,-10.3048782,12.5,0.063447
1367,0.9619141,0.019043,0.1391602,-14.4512196,-10.1219511,11.7682934,0.0869459
1368,0.9589844,0.0161133,0.1435547,-14.3902445,-10.2439022,11.5853662,0.1151446
1369,0.9570312,0.0161133,0.1469727,-13.9634151,-10.5487804,11.7073174,0.1178302
1370,0.9604492,0.0200195,0.1435547,-13.0487804,-10.6707315,11.6463413,0.1003738
1371,0.9560547,0.0200195,0.1411133,-12.560976,-10.9146347,12.0121956,0.0829175
1372,0.9604492,0.0185547,0.1376953,-12.6829271,-10.7317076,11.5853662,0.0708324
1373,0.9633789,0.0209961,0.1381836,-12.2560978,-11.0365858,11.5243902,0.0553902
1374,0.9658203,0.0151367,0.1420898,-12.1341467,-11.4634151,11.8292685,0.0399481
1375,0.9697266,0.0117188,0.1484375,-11.9512196,-11.7073174,11.7682934,0.0386053
1376,0.9677734,0.0170898,0.1425781,-11.0365858,-12.1951218,11.8902445,0.0332341
1377,0.965332,0.0239258,0.1289062,-10.8536587,-12.560976,11.6463413,0.024506
1378,0.9638672,0.0288086,0.1289062,-11.5853662,-12.9878054,10.9146347,0.0171206
1379,0.96875,0.0283203,0.128418,-12.0121956,-13.1707315,10.9146347,0.0157778
1380,0.9707031,0.0244141,0.1347656,-13.2317076,-13.7195129,10.6097565,0.0077211
1381,0.9726562,0.0200195,0.1420898,-13.3536587,-14.1463413,10.7926836,0.0073854
1382,0.9785156,0.0146484,0.1416016,-12.8048782,-14.2073174,10.6707315,0.0130922
1383,0.9819336,0.0151367,0.1420898,-12.4390249,-14.5121956,10.4268293,0.0050355
1384,0.980957,0.015625,0.1430664,-12.8658543,-14.8780489,10.1829271,-0.0097353
1385,0.9907227,0.0073242,0.1552734,-13.9024391,-14.9390249,9.6951218,-0.0198062
1386,0.9941406,-0.0009766,0.1538086,-14.0243902,-14.7560978,9.3902445,-0.0231632
1387,0.9897461,-0.003418,0.1513672,-13.9634151,-14.5121956,9.0853662,-0.0392767
1388,0.9926758,0.0043945,0.1435547,-13.9634151,-14.2682934,9.3292685,-0.0419623
1389,0.9912109,0.0126953,0.1450195,-13.7195129,-13.6585369,9.0853662,-0.0530404
1390,0.9912109,0.0253906,0.1499023,-14.2073174,-13.841464,8.6585369,-0.0547189
1391,0.9916992,0.0273438,0.1577148,-14.8780489,-13.4146347,7.6219516,-0.0580758
1392,0.980957,0.0302734,0.1591797,-16.2195129,-13.2926836,6.6463418,-0.0627756
1393,0.9770508,0.0297852,0.15625,-16.5853653,-13.1707315,6.890244,-0.0681468
1394,0.9765625,0.0209961,0.1484375,-17.1951218,-12.4390249,7.0121951,-0.0728466
1395,0.9750977,0.0219727,0.1494141,-17.560976,-12.3170738,7.1951222,-0.073518
1396,0.9775391,0.0146484,0.1582031,-18.1097565,-11.7682934,7.3170733,-0.0741894
1397,0.9819336,-0.0048828,0.1572266,-17.9878044,-11.4024391,7.1951222,-0.0762036
1398,0.9799805,-0.0078125,0.1479492,-18.0487804,-10.9756098,6.8292685,-0.0849317
1399,0.9799805,-0.0078125,0.1274414,-18.0487804,-11.1585369,6.6463418,-0.0869459
1400,0.9780273,-0.0053711,0.1240234,-17.439024,-11.1585369,6.6463418,-0.084596
1401,0.9819336,-0.0009766,0.1303711,-17.5,-10.9146347,6.280488,-0.0923171
1402,0.9853516,0.0048828,0.140625,-18.6585369,-10.6707315,5.2439027,-0.1164874
1403,0.9829102,-0.0029297,0.1518555,-19.3292694,-10.3658543,4.1463413,-0.1534142
1404,0.9794922,-0.0063477,0.1577148,-19.3292694,-10.1219511,4.0243902,-0.1634852
1405,0.9697266,-0.0102539,0.1572266,-18.8414631,-10,4.3292685,-0.1668421
1406,0.9667969,-0.0117188,0.1538086,-18.3536587,-10.1219511,4.4512196,-0.1641566
1407,0.9677734,-0.0024414,0.1367188,-17.9268303,-10.2439022,4.6341462,-0.1601282
1408,0.9702148,0.0048828,0.1323242,-18.0487804,-10.2439022,4.5731707,-0.1493858
1409,0.9716797,0.0048828,0.1303711,-18.4146347,-10.4268293,3.5975611,-0.1433433
1410,0.9765625,0.0014648,0.1352539,-18.6585369,-10.4878054,3.1707318,-0.1359579
1411,0.9799805,0,0.1411133,-19.0853672,-10.4878054,2.6219513,-0.1238727
1412,0.9833984,0,0.1513672,-18.8414631,-10.3658543,2.6219513,-0.1211872
1413,0.980957,0,0.15625,-19.0243912,-9.8170738,2.804878,-0.1171588
1414,0.9736328,0.0083008,0.1557617,-18.3536587,-9.8780489,2.3170731,-0.1077592
1415,0.9702148,0.0126953,0.1499023,-18.2926826,-10,2.2560976,-0.0973526
1416,0.9760742,0.0170898,0.1362305,-18.2926826,-10.4268293,2.1341465,-0.0943313
1417,0.9750977,0.0209961,0.1308594,-18.8414631,-10.7317076,2.1341465,-0.0835889
1418,0.9799805,0.0200195,0.128418,-20.3048782,-10.4878054,1.8292683,-0.0681468
1419,0.9780273,0.015625,0.1328125,-20.7926826,-10.3658543,1.7073171,-0.056733
1420,0.9824219,0.0126953,0.1318359,-21.7073174,-10.3048782,1.6463414,-0.0520333
1421,0.9785156,0.0107422,0.1289062,-21.5853672,-9.9390249,1.3414634,-0.0506905
1422,0.9819336,0.0073242,0.1303711,-21.6463413,-10.5487804,1.402439,-0.056733
1423,0.9804688,-0.0009766,0.1323242,-21.6463413,-10.8536587,1.7682927,-0.0473335
1424,0.9750977,-0.0053711,0.1342773,-21.7073174,-10.6097565,1.5853659,-0.0359197
1425,0.9780273,-0.0180664,0.1455078,-21.4024391,-10.2439022,2.1341465,-0.0359197
1426,0.980957,-0.0141602,0.1391602,-21.1585369,-10.060976,2.0731707,-0.03122
1427,0.96875,-0.0048828,0.1308594,-19.8780499,-9.9390249,1.4634147,-0.0292058
1428,0.9702148,0.0092773,0.1264648,-19.4512196,-10.4878054,1.1585366,-0.0251774
1429,0.9663086,0.0253906,0.1176758,-20.060976,-10.7317076,0.4268293,-0.0238346
1430,0.9667969,0.0273438,0.1303711,-20.4878044,-10.9146347,0.1219512,-0.0298772
1431,0.9682617,0.0258789,0.1362305,-22.0731716,-11.1585369,0.1219512,-0.042298
1432,0.9804688,0.0092773,0.1469727,-22.8048782,-10.6707315,0.6097561,-0.0580758
1433,0.9833984,0.003418,0.1464844,-23.3536587,-10.3048782,1.7073171,-0.0607614
1434,0.9926758,-0.015625,0.1435547,-22.9878063,-10,2.2560976,-0.0755322
1435,0.9951172,-0.0258789,0.140625,-22.3170738,-9.2682924,2.9268293,-0.1346151
1436,0.9980469,-0.027832,0.1450195,-22.0731716,-8.4756098,2.8658538,-0.2406958
1437,0.9882812,-0.0263672,0.1489258,-21.8902435,-8.4756098,2.2560976,-0.3125353
1438,0.9741211,-0.0175781,0.1552734,-20.7317085,-8.2926826,1.6463414,-0.3414054
1439,0.9663086,-0.0151367,0.1538086,-20.3658543,-8.4756098,1.1585366,-0.3226062
1440,0.9555664,-0.0029297,0.1494141,-19.4512196,-9.0853662,1.1585366,-0.285008
1441,0.9541016,0,0.1450195,-19.0853672,-9.6341467,1.2804878,-0.2366674
1442,0.9575195,0.0058594,0.1450195,-19.2073174,-9.8170738,1.8902439,-0.185977
1443,0.9677734,0.0019531,0.1484375,-19.3292694,-10.060976,2.2560976,-0.1279011
1444,0.9750977,0.0068359,0.1455078,-19.6951218,-10,2.5,-0.070161
1445,0.9897461,0.0048828,0.1391602,-19.5121956,-10.060976,2.7439024,-0.0265202
1446,0.9912109,0.0087891,0.1425781,-19.3902435,-10.060976,2.7439024,0.0198062
1447,0.996582,0.0068359,0.140625,-20.060976,-9.3292685,2.6829269,0.0446479
1448,0.9980469,0.0092773,0.1367188,-20.6097565,-8.9024391,2.6219513,0.0560616
1449,0.9921875,0.0078125,0.1313477,-20.5487804,-8.3536587,2.804878,0.0661326
1450,0.9887695,0.012207,0.1289062,-20.4268303,-8.1097565,2.5609756,0.063447
1451,0.9707031,0.0175781,0.1191406,-20.7317085,-7.5,2.6219513,0.0533761
1452,0.9672852,0.0180664,0.1289062,-20.9756107,-7.5,2.6829269,0.0473335
1453,0.9638672,0.0195312,0.1313477,-20.7317085,-7.7439027,2.3170731,0.0466621
1454,0.9619141,0.0136719,0.1318359,-21.0975609,-7.9878049,2.5609756,0.0372625
1455,0.9584961,0.0151367,0.1298828,-20.8536587,-8.2926826,2.2560976,0.0292058
1456,0.953125,0.0209961,0.1323242,-20.6097565,-8.1097565,2.3780489,0.0157778
1457,0.9580078,0.0258789,0.1323242,-20.3658543,-8.2317076,2.1341465,0.0050355
1458,0.9599609,0.019043,0.1323242,-20.6707325,-8.4756098,2.3170731,0.0023499
1459,0.9638672,0.019043,0.1293945,-20.7926826,-8.3536587,2.0121951,0.0023499
1460,0.9672852,0.0146484,0.1279297,-20.7926826,-7.8048782,2.5,-0.0063783
1461,0.9702148,0.0107422,0.1171875,-20.3658543,-7.8048782,2.5,-0.0238346
1462,0.9746094,0.0146484,0.1147461,-19.7560978,-7.3780489,2.0121951,-0.0231632
1463,0.9716797,0.0126953,0.1162109,-19.6951218,-7.3780489,2.1341465,-0.0298772
1464,0.9741211,0.0092773,0.1171875,-20.1219521,-7.3780489,1.5853659,-0.0292058
1465,0.9677734,0.0019531,0.1118164,-20.2439022,-7.0731707,1.402439,-0.0271916
1466,0.9672852,0.0014648,0.1054688,-19.5121956,-7.0121951,1.7682927,-0.0298772
1467,0.9614258,0.0112305,0.0908203,-18.9024391,-7.2560978,2.3170731,-0.0325628
1468,0.9609375,0.0151367,0.0883789,-18.780489,-7.4390244,2.804878,-0.0251774
1469,0.9570312,0.0161133,0.0957031,-20.1219521,-7.8048782,3.0487804,-0.0151064
1470,0.9594727,0.0097656,0.0991211,-20.3658543,-8.2926826,2.804878,-0.017792
1471,0.9643555,0.0004883,0.1113281,-21.0365868,-8.4146347,3.2317073,-0.0191348
1472,0.9697266,-0.0009766,0.1152344,-20.4268303,-8.3536587,3.0487804,-0.0204776
1473,0.9707031,0.003418,0.1176758,-18.9024391,-8.719512,3.0487804,-0.0234989
1474,0.9697266,0.0263672,0.1181641,-18.5975609,-8.9634151,2.4390244,-0.0238346
1475,0.96875,0.0288086,0.1210938,-18.8414631,-9.1463413,2.0121951,-0.0184634
1476,0.9624023,0.043457,0.1245117,-19.7560978,-9.2073174,1.7073171,-0.0137636
1477,0.9638672,0.0410156,0.1259766,-21.0365868,-9.1463413,1.9512196,-0.011078
1478,0.9677734,0.0351562,0.1279297,-21.4024391,-9.0243902,3.1707318,-0.0224918
1479,0.9692383,0.0332031,0.1245117,-21.5853672,-8.780488,3.6585367,-0.0318914
1480,0.9746094,0.0327148,0.1235352,-21.7682934,-8.3536587,4.6341462,-0.0406195
1481,0.9746094,0.0356445,0.1225586,-22.1341476,-7.9268293,4.8170733,-0.0594186
1482,0.9804688,0.0336914,0.121582,-22.6829281,-7.9268293,4.4512196,-0.0785534
1483,0.9804688,0.0263672,0.125,-22.560976,-7.8048782,4.3292685,-0.0929885
1484,0.980957,0.0244141,0.1254883,-22.9878063,-7.8048782,3.4756098,-0.0809033
1485,0.9746094,0.0219727,0.1240234,-22.6829281,-7.2560978,3.4756098,-0.070161
1486,0.9716797,0.0214844,0.1308594,-22.9878063,-6.6463418,3.4756098,-0.063447
1487,0.9741211,0.0126953,0.1494141,-23.1707325,-6.4024391,3.8414636,-0.056733
1488,0.9726562,0.0078125,0.1547852,-22.560976,-6.4634147,4.2073174,-0.0486763
1489,0.9702148,0.0024414,0.1606445,-21.6463413,-5.9756098,4.6951222,-0.0547189
1490,0.9711914,0.0048828,0.1552734,-20.8536587,-5.4878049,4.5731707,-0.0610971
1491,0.9663086,0.0131836,0.140625,-19.1463413,-5.3048782,4.7560978,-0.056733
1492,0.9624023,0.0205078,0.137207,-19.0243912,-5.1829271,4.6951222,-0.0473335
1493,0.9702148,0.0268555,0.1376953,-19.2682934,-5.3048782,4.8780489,-0.0339055
1494,0.9716797,0.0244141,0.1367188,-19.5731716,-5.4878049,5.1219511,-0.0248417
1495,0.9746094,0.0229492,0.1303711,-19.8170738,-5.4878049,5.1829271,-0.0120851
1496,0.9790039,0.0224609,0.1230469,-20.1219521,-5.5487804,5.4268293,-0.0036927
1497,0.980957,0.0214844,0.1220703,-20.4878044,-5.3048782,5.8536587,0.0043641
1498,0.9853516,0.0180664,0.1274414,-20.8536587,-5.4268293,6.1585369,0.0151064
1499,0.9887695,0.0126953,0.1337891,-21.3414631,-5.4268293,6.5243902,0.0157778
1500,0.9853516,0.0053711,0.1401367,-20.9756107,-5.2439027,6.3414636,0.0127565
1501,0.9858398,0.0039062,0.1396484,-20.1219521,-5.3048782,6.0975609,0.0050355
1502,0.9794922,0.0048828,0.1333008,-19.1463413,-5.3658538,6.4634147,-0.0030213
1503,0.972168,0.0083008,0.1303711,-18.780489,-5.9146342,6.3414636,-0.0151064
1504,0.9638672,0.0219727,0.1225586,-18.780489,-6.5853658,5.9756098,-0.0171206
1505,0.9594727,0.0244141,0.1098633,-18.4756107,-7.0121951,5.9756098,-0.0436408
1506,0.956543,0.0322266,0.1064453,-18.4756107,-7.8048782,6.4024391,-0.0758679
1507,0.9619141,0.0361328,0.1044922,-18.9024391,-8.1707315,6.4634147,-0.1030594
1508,0.9614258,0.0400391,0.1137695,-19.3292694,-8.6585369,6.7073174,-0.1346151
1509,0.9682617,0.0375977,0.1269531,-19.6951218,-8.841464,7.1341467,-0.1426719
1510,0.96875,0.0332031,0.1357422,-20.6707325,-9.3902445,7.0731707,-0.1218585
1511,0.9702148,0.0234375,0.1469727,-21.1585369,-9.2682924,7.4390244,-0.0728466
1512,0.9736328,0.0175781,0.1474609,-20.9756107,-9.3902445,7.6829271,-0.0151064
1513,0.9750977,0.0024414,0.1342773,-20,-8.9024391,8.4756098,0.0426337
1514,0.9785156,0.0009766,0.128418,-19.5121956,-8.6585369,8.3536587,0.0923171
1515,0.9760742,0.003418,0.1357422,-19.3292694,-8.9634151,8.1097565,0.1238727
1516,0.9707031,0.0053711,0.1494141,-19.3292694,-9.4512196,8.1097565,0.1346151
1517,0.9658203,0.0063477,0.1513672,-19.0243912,-9.8780489,7.5609756,0.1225299
1518,0.9584961,0.0058594,0.1494141,-18.780489,-10.1829271,7.6829271,0.1017166
