,Application:, Trigno Discover (1.6.5),Unnamed: 2,Unnamed: 3,Unnamed: 4,Unnamed: 5,Unnamed: 6
0,Date/Time:, 28/01/2025 14:37:21,,,,,
1,Collection Length (seconds):,44.4555,,,,,
2,wrist (81457), , , , , , bicep (81139)
3,sensor mode: 609, , , , , , sensor mode: 40
4,ACC X (G), ACC Y (G), ACC Z (G), GYRO X (deg/s), GYRO Y (deg/s), GYRO Z (deg/s), EMG 1 (mV)
5,370.3704 Hz, 370.3704 Hz, 370.3704 Hz, 370.3704 Hz, 370.3704 Hz, 370.3704 Hz, 2148.1481 Hz
6,-0.9960938,0.2182617,0.0825195,-17.560976,-3.4146342,3.3536587,-0.0446479
7,-0.9975586,0.2202148,0.0771484,-16.9512196,-3.1097562,3.3536587,-0.0459907
8,-1.0029297,0.2211914,0.0834961,-15.9146347,-3.4146342,3.4756098,-0.0433051
9,-1.0058594,0.2236328,0.0874023,-15.4878054,-3.3536587,3.1097562,-0.0449836
10,-1.0068359,0.2246094,0.0908203,-14.1463413,-3.7195122,3.2317073,-0.0459907
11,-1.0083008,0.2260742,0.0878906,-13.9634151,-4.0243902,3.2317073,-0.0419623
12,-0.9990234,0.2236328,0.078125,-12.9268293,-4.390244,3.2317073,-0.0406195
13,-0.9951172,0.2231445,0.0771484,-13.1097565,-4.6341462,3.3536587,-0.0419623
14,-0.9731445,0.2080078,0.0800781,-12.8048782,-4.8780489,3.3536587,-0.0386053
15,-0.9672852,0.2021484,0.0825195,-12.9878054,-4.9390244,3.4756098,-0.0372625
16,-0.9541016,0.1928711,0.0883789,-11.5853662,-4.390244,2.9878049,-0.0396124
17,-0.9526367,0.1899414,0.0854492,-10.4268293,-4.0853658,3.1707318,-0.0399481
18,-0.949707,0.190918,0.0737305,-9.3902445,-3.7804878,3.1707318,-0.0433051
19,-0.9492188,0.1894531,0.0644531,-7.8658538,-3.5365853,3.3536587,-0.0436408
20,-0.9482422,0.1884766,0.0639648,-7.5,-3.2926829,3.2317073,-0.0412909
21,-0.9526367,0.1962891,0.0566406,-5.9756098,-3.1707318,3.1707318,-0.0436408
22,-0.956543,0.2041016,0.0556641,-5.670732,-3.0487804,3.2317073,-0.0480049
23,-0.9624023,0.2231445,0.0415039,-4.3292685,-2.8658538,3.1097562,-0.0473335
24,-0.9663086,0.2314453,0.0410156,-4.0853658,-3.2317073,2.7439024,-0.0473335
25,-0.9682617,0.2524414,0.0297852,-4.0853658,-4.2073174,2.4390244,-0.0446479
26,-0.9711914,0.2661133,0.0180664,-4.2682929,-4.7560978,2.5609756,-0.0453193
27,-0.9667969,0.2822266,0.0048828,-6.6463418,-5.1219511,2.5609756,-0.0513619
28,-0.9560547,0.2978516,0.0141602,-9.6951218,-5.0609756,2.6829269,-0.0543832
29,-0.9545898,0.300293,0.0185547,-11.341464,-5,2.6829269,-0.0540475
30,-0.9536133,0.2993164,0.0258789,-14.8780489,-4.6951222,2.7439024,-0.0486763
31,-0.9516602,0.2900391,0.03125,-16.4634151,-4.3292685,2.6219513,-0.0493477
32,-0.9594727,0.2734375,0.0419922,-19.3902435,-3.5975611,2.8658538,-0.0513619
33,-0.9599609,0.2607422,0.0527344,-20.3048782,-3.5365853,3.1097562,-0.0500191
34,-0.9707031,0.2426758,0.065918,-21.8902435,-2.9878049,3.2317073,-0.0513619
35,-0.9765625,0.2363281,0.0751953,-22.0731716,-2.9878049,3.1707318,-0.0580758
36,-0.9926758,0.2197266,0.0810547,-21.0365868,-2.9878049,3.3536587,-0.0594186
37,-0.9990234,0.2177734,0.0791016,-20.3658543,-3.2317073,3.5365853,-0.0580758
38,-0.9936523,0.2158203,0.0810547,-18.6585369,-3.7804878,3.7804878,-0.0621042
39,-0.9912109,0.2128906,0.0878906,-17.8048782,-4.4512196,3.7804878,-0.0624399
40,-0.9863281,0.2138672,0.097168,-17.3780499,-4.6341462,3.5365853,-0.0607614
41,-0.9790039,0.2182617,0.0976562,-16.280489,-5.1829271,2.8658538,-0.0580758
42,-0.9819336,0.2216797,0.0957031,-15.6097565,-5.2439027,2.804878,-0.0574044
43,-0.9736328,0.234375,0.0825195,-14.6951227,-5,2.9268293,-0.0594186
44,-0.9726562,0.2363281,0.0776367,-14.6341467,-4.9390244,2.9268293,-0.0621042
45,-0.9760742,0.253418,0.0703125,-14.8780489,-4.5121951,3.1097562,-0.0661326
46,-0.9790039,0.2612305,0.0703125,-15.3658543,-4.390244,3.2926829,-0.063447
47,-0.9912109,0.2675781,0.0664062,-16.0975609,-4.0853658,3.9024391,-0.0621042
48,-1.0009766,0.2675781,0.0585938,-16.5243912,-3.7195122,4.1463413,-0.063447
49,-1.0166016,0.2729492,0.0429688,-17.9878044,-3.5975611,4.2682929,-0.0607614
50,-1.0317383,0.2651367,0.0327148,-20,-3.6585367,4.6951222,-0.0607614
51,-1.0415039,0.2607422,0.0366211,-20.4268303,-3.7195122,4.3292685,-0.0607614
52,-1.0512695,0.2441406,0.0380859,-20.9146347,-4.6951222,3.9634147,-0.06009
53,-1.0498047,0.2353516,0.0424805,-20.7926826,-5.5487804,3.8414636,-0.0597543
54,-1.0488281,0.2182617,0.046875,-19.4512196,-6.8292685,3.4756098,-0.0610971
55,-1.0429688,0.2124023,0.0493164,-18.4756107,-7.6219516,3.1707318,-0.0594186
56,-1.0229492,0.206543,0.0639648,-16.2195129,-9.0243902,2.8658538,-0.0584115
57,-1.0136719,0.2084961,0.0654297,-14.8780489,-9.3292685,2.7439024,-0.0580758
58,-1,0.2182617,0.0654297,-12.8658543,-10.3048782,2.7439024,-0.0574044
59,-0.9858398,0.2197266,0.0625,-12.3780489,-10.3658543,2.7439024,-0.0580758
60,-0.9633789,0.2353516,0.0532227,-12.3170738,-10.6097565,3.3536587,-0.0553902
61,-0.9521484,0.246582,0.0541992,-13.1097565,-9.8780489,3.4146342,-0.0540475
62,-0.9453125,0.2485352,0.0556641,-13.780488,-9.6951218,3.3536587,-0.0527047
63,-0.9428711,0.2456055,0.0541992,-15.2439032,-8.5365858,3.0487804,-0.0557259
64,-0.9492188,0.2504883,0.0517578,-15.9756098,-8.4146347,3.3536587,-0.056733
65,-0.9589844,0.2514648,0.050293,-16.7682934,-7.5,3.7804878,-0.06009
66,-0.9658203,0.2509766,0.0478516,-16.8902435,-7.3780489,3.9024391,-0.0607614
67,-0.9731445,0.2485352,0.0488281,-17.5,-7.4390244,4.2073174,-0.0553902
68,-0.9765625,0.2504883,0.0493164,-17.8048782,-7.3780489,4.4512196,-0.0543832
69,-0.9824219,0.2514648,0.0585938,-18.2317085,-7.5609756,4.0853658,-0.0580758
70,-0.9824219,0.2490234,0.0620117,-18.3536587,-7.9878049,3.9634147,-0.0547189
71,-0.9824219,0.2563477,0.0644531,-18.9024391,-7.6829271,3.1707318,-0.056733
72,-0.9829102,0.2568359,0.0634766,-19.0243912,-7.9268293,2.4390244,-0.0621042
73,-0.9848633,0.2495117,0.0639648,-19.3902435,-8.1097565,2.3170731,-0.0661326
74,-0.9833984,0.246582,0.0703125,-19.3902435,-8.5365858,2.0731707,-0.0691539
75,-0.9755859,0.2387695,0.0717773,-19.8170738,-8.9024391,2.2560976,-0.0728466
76,-0.9702148,0.2333984,0.0776367,-19.8780499,-8.5975609,2.5609756,-0.0731823
77,-0.9648438,0.2275391,0.0756836,-19.4512196,-8.719512,2.5609756,-0.0755322
78,-0.9555664,0.2290039,0.0722656,-18.780489,-8.4146347,2.9878049,-0.0970169
79,-0.949707,0.2324219,0.0708008,-18.780489,-8.2317076,3.0487804,-0.1138018
80,-0.9501953,0.237793,0.0673828,-18.780489,-8.1707315,3.2317073,-0.1084306
81,-0.9521484,0.2412109,0.0668945,-19.0853672,-7.6829271,3.2317073,-0.0929885
82,-0.9575195,0.2485352,0.0541992,-19.6341476,-7.4390244,3.6585367,-0.0721752
83,-0.9677734,0.2597656,0.0507812,-20.8536587,-7.1341467,3.6585367,-0.0543832
84,-0.9707031,0.2587891,0.050293,-21.6463413,-6.7682929,3.5975611,-0.0419623
85,-0.9829102,0.2529297,0.0439453,-23.0487804,-6.5853658,4.1463413,-0.0325628
86,-0.987793,0.2451172,0.0473633,-23.7195129,-6.7073174,4.0243902,-0.0298772
87,-0.9882812,0.2412109,0.0507812,-23.780489,-7.1951222,4.1463413,-0.0292058
88,-0.9892578,0.2348633,0.0532227,-23.4146347,-7.1951222,4.1463413,-0.0285344
89,-1.0019531,0.2324219,0.0541992,-22.6829281,-7.8658538,4.2682929,-0.0258488
90,-1,0.2353516,0.0541992,-22.3170738,-7.8658538,3.9634147,-0.0234989
91,-0.9980469,0.2353516,0.0527344,-22.0121956,-8.1097565,3.8414636,-0.024506
92,-0.9941406,0.2387695,0.0576172,-21.4024391,-8.4756098,3.5975611,-0.0231632
93,-0.9985352,0.2382812,0.0556641,-21.3414631,-8.719512,3.1707318,-0.0231632
94,-1.0004883,0.2446289,0.0551758,-21.5853672,-8.841464,3.1097562,-0.0258488
95,-0.9980469,0.2451172,0.0556641,-21.2195129,-8.780488,3.1707318,-0.024506
96,-0.9970703,0.2485352,0.0571289,-21.0975609,-9.0853662,2.8658538,-0.0248417
97,-0.9960938,0.2490234,0.0585938,-20.9756107,-9.5731707,2.9268293,-0.0251774
98,-0.9853516,0.25,0.0498047,-21.4024391,-9.5121956,3.4146342,-0.0275273
99,-0.9804688,0.2475586,0.0537109,-21.2195129,-9.6951218,3.3536587,-0.0255131
100,-0.96875,0.2451172,0.0668945,-21.4634151,-9.9390249,3.1097562,-0.0258488
101,-0.9624023,0.2446289,0.0742188,-21.5243912,-9.8170738,2.804878,-0.0251774
102,-0.9589844,0.2480469,0.0830078,-21.4634151,-9.7560978,2.6219513,-0.0271916
103,-0.9560547,0.2490234,0.0800781,-21.4024391,-9.3902445,2.5,-0.0238346
104,-0.953125,0.2451172,0.0810547,-21.5243912,-9.1463413,2.5609756,-0.0218204
105,-0.9526367,0.2436523,0.0668945,-22.1951218,-8.780488,3.0487804,-0.0231632
106,-0.9609375,0.2416992,0.0561523,-22.0121956,-8.5365858,3.2317073,-0.021149
107,-0.9711914,0.2421875,0.0341797,-22.560976,-7.8048782,3.9024391,-0.0218204
108,-0.9775391,0.2416992,0.0302734,-22.9878063,-7.6829271,4.2682929,-0.0271916
109,-0.9819336,0.2416992,0.0341797,-22.439024,-7.9268293,4.7560978,-0.0325628
110,-0.9794922,0.2416992,0.0361328,-22.7439022,-7.9878049,4.5121951,-0.0305486
111,-0.9824219,0.2402344,0.0366211,-22.9268303,-8.3536587,4.0853658,-0.0292058
112,-0.9833984,0.2338867,0.0390625,-22.8658543,-8.6585369,3.7804878,-0.0318914
113,-0.9887695,0.2285156,0.0532227,-23.1707325,-8.6585369,3.2317073,-0.0308843
114,-0.9892578,0.2231445,0.0673828,-22.8658543,-9.0243902,3.1097562,-0.0298772
115,-0.9863281,0.2138672,0.0654297,-22.3170738,-9.4512196,3.5365853,-0.0285344
116,-0.9785156,0.2070312,0.0610352,-20.5487804,-10.2439022,3.6585367,-0.0258488
117,-0.972168,0.2084961,0.0649414,-19.8170738,-10.3658543,3.9634147,-0.0298772
118,-0.9663086,0.2080078,0.0620117,-18.4756107,-10.7317076,4.0853658,-0.0285344
119,-0.9594727,0.2104492,0.0581055,-18.1097565,-10.7317076,4.390244,-0.0298772
120,-0.949707,0.2211914,0.0620117,-16.7682934,-10.6097565,4.390244,-0.0419623
121,-0.9516602,0.2280273,0.0678711,-16.5853653,-10.5487804,4.0853658,-0.0943313
122,-0.9580078,0.2412109,0.065918,-16.0365849,-10.1829271,3.8414636,-0.1896696
123,-0.9628906,0.2460938,0.0683594,-16.280489,-9.6951218,3.9024391,-0.2064546
124,-0.9599609,0.2485352,0.0556641,-17.3170738,-9.9390249,4.2073174,-0.1752346
125,-0.9648438,0.2446289,0.0556641,-18.1707325,-9.3292685,4.6341462,-0.1587854
126,-0.9750977,0.2456055,0.0527344,-18.5975609,-9.0853662,5.0609756,-0.1305867
127,-0.9755859,0.2392578,0.0546875,-19.2073174,-9.2682924,5.5487804,-0.0896315
128,-0.9829102,0.237793,0.0576172,-19.2073174,-9.1463413,5.9146342,-0.0459907
129,-0.9848633,0.2329102,0.0620117,-18.780489,-9.3292685,5.8536587,-0.0164492
130,-0.9882812,0.2294922,0.0615234,-18.7195129,-9.7560978,5.7317076,0
131,-0.9897461,0.2299805,0.0625,-17.6219521,-9.8780489,5,0.0157778
132,-0.9887695,0.2319336,0.0629883,-17.3780499,-10.1219511,4.7560978,0.0251774
133,-0.9882812,0.2421875,0.0561523,-16.9512196,-10.1829271,4.390244,0.0265202
134,-0.9907227,0.2421875,0.0541992,-16.7073174,-10.6097565,4.1463413,0.0251774
135,-0.9921875,0.25,0.0517578,-17.0731716,-10.6097565,4.390244,0.0265202
136,-0.9916992,0.2460938,0.0517578,-17.2560978,-10.7317076,4.4512196,0.0224918
137,-0.9848633,0.2402344,0.0527344,-17.1951218,-10.6707315,4.5731707,0.0198062
138,-0.9790039,0.237793,0.0566406,-17.5,-11.280488,4.9390244,0.0157778
139,-0.9765625,0.2373047,0.0576172,-17.5,-11.0975609,4.8170733,0.0104067
140,-0.9775391,0.2368164,0.0576172,-17.8658543,-10.7926836,4.9390244,0.0063783
141,-0.9731445,0.237793,0.0610352,-17.9268303,-10.7926836,4.7560978,0.0043641
142,-0.9746094,0.2426758,0.0664062,-17.7439022,-10.6097565,4.8780489,0.0016785
143,-0.9804688,0.2460938,0.0683594,-17.6219521,-10.5487804,4.6951222,-0.0030213
144,-0.9829102,0.2470703,0.0673828,-17.2560978,-10.4878054,4.7560978,-0.0087282
145,-0.9790039,0.2470703,0.0693359,-17.3170738,-10.6097565,4.5121951,-0.0124208
146,-0.9838867,0.2524414,0.0698242,-17.1341476,-10.6707315,4.4512196,-0.0157778
147,-0.9824219,0.2568359,0.0683594,-17.8658543,-10.6097565,4.7560978,-0.017792
148,-0.9736328,0.2626953,0.0722656,-18.2926826,-10.6097565,4.7560978,-0.024506
149,-0.9726562,0.2602539,0.0732422,-19.0243912,-10.4268293,4.6951222,-0.03122
150,-0.9663086,0.2587891,0.0771484,-19.2682934,-10.2439022,4.7560978,-0.0433051
151,-0.9628906,0.2509766,0.0869141,-19.3902435,-9.8170738,4.9390244,-0.0520333
152,-0.9599609,0.2480469,0.0913086,-19.2682934,-9.6951218,4.6951222,-0.056733
153,-0.9545898,0.2348633,0.0908203,-19.4512196,-9.5121956,5.0609756,-0.0607614
154,-0.9526367,0.2402344,0.0878906,-19.0243912,-9.5731707,5.3048782,-0.0553902
155,-0.9443359,0.2255859,0.0771484,-18.6585369,-9.5121956,5.1829271,-0.049012
156,-0.9394531,0.2231445,0.0751953,-18.4146347,-9.0853662,5.609756,-0.0486763
157,-0.9389648,0.2202148,0.0688477,-17.9268303,-8.5975609,5.609756,-0.0433051
158,-0.9414062,0.2236328,0.0664062,-17.5,-7.9878049,5.4268293,-0.0379339
159,-0.9462891,0.2324219,0.0585938,-17.6219521,-7.6219516,5.3658538,-0.0392767
160,-0.9633789,0.2412109,0.0571289,-17.3170738,-7.3170733,5.2439027,-0.0345769
161,-0.9628906,0.2514648,0.0600586,-17.5,-7.3780489,5.1829271,-0.0352483
162,-0.9682617,0.2583008,0.0576172,-17.9268303,-7.3170733,4.8780489,-0.0359197
163,-0.9770508,0.262207,0.0561523,-18.5365849,-7.2560978,4.6951222,-0.03122
164,-0.9804688,0.2670898,0.0566406,-19.0853672,-7.3170733,4.9390244,-0.0292058
165,-0.980957,0.2651367,0.0551758,-19.6951218,-7.1951222,4.6951222,-0.0419623
166,-0.9799805,0.2646484,0.0581055,-20.1829281,-7.6829271,4.2073174,-0.0688182
167,-0.9785156,0.2636719,0.0576172,-20.3048782,-7.5609756,4.1463413,-0.0802319
168,-0.9726562,0.2612305,0.0556641,-20.6707325,-7.5609756,4.1463413,-0.0782177
169,-0.9736328,0.2636719,0.0576172,-21.4024391,-7.5609756,4.0853658,-0.0664683
170,-0.9711914,0.2558594,0.0507812,-21.8902435,-7.9268293,4.1463413,-0.0463264
171,-0.9599609,0.2436523,0.0527344,-22.3780499,-7.6829271,4.7560978,-0.0298772
172,-0.9550781,0.2382812,0.0585938,-22.8048782,-7.3170733,4.7560978,-0.017792
173,-0.9545898,0.2353516,0.0634766,-22.8048782,-6.8292685,5.0609756,-0.011078
174,-0.9545898,0.234375,0.065918,-22.8658543,-6.8292685,4.8780489,-0.0117494
175,-0.9619141,0.2280273,0.065918,-22.560976,-5.9756098,4.7560978,-0.0154421
176,-0.9633789,0.2294922,0.065918,-22.7439022,-5.7926831,4.8170733,-0.017792
177,-0.972168,0.230957,0.0654297,-22.1341476,-5.8536587,4.5121951,-0.0117494
178,-0.9770508,0.2324219,0.0625,-21.7682934,-5.5487804,4.6341462,-0.0124208
179,-0.9799805,0.2324219,0.0546875,-20.8536587,-5.9146342,4.7560978,-0.0164492
180,-0.9819336,0.2368164,0.059082,-20.9146347,-5.7926831,4.6951222,-0.0204776
181,-0.9804688,0.2348633,0.0625,-20.9756107,-6.2195125,4.6951222,-0.0251774
182,-0.9736328,0.2392578,0.0698242,-20.3048782,-6.3414636,4.2682929,-0.0305486
183,-0.9707031,0.2426758,0.0688477,-20,-6.5243902,4.0243902,-0.0305486
184,-0.9765625,0.2373047,0.0722656,-19.5731716,-6.280488,3.7195122,-0.035584
185,-0.9755859,0.2387695,0.0717773,-19.6341476,-6.1585369,3.7804878,-0.0406195
186,-0.984375,0.2441406,0.0737305,-19.2073174,-6.1585369,3.8414636,-0.0412909
187,-0.9858398,0.2470703,0.0742188,-18.8414631,-6.0975609,4.0853658,-0.0386053
188,-0.984375,0.2426758,0.0717773,-18.5975609,-6.5243902,3.9634147,-0.0406195
189,-0.9858398,0.2402344,0.0615234,-18.2317085,-6.5243902,4.2073174,-0.0406195
190,-0.9907227,0.2431641,0.0532227,-18.4756107,-6.4634147,4.5121951,-0.0379339
191,-0.9897461,0.2426758,0.0532227,-18.9024391,-6.3414636,4.6341462,-0.0379339
192,-0.984375,0.2368164,0.0576172,-18.9024391,-6.6463418,4.6341462,-0.0406195
193,-0.9853516,0.2241211,0.0654297,-18.5365849,-6.6463418,4.2682929,-0.0419623
194,-0.9799805,0.2211914,0.065918,-18.1707325,-6.890244,4.2073174,-0.0446479
195,-0.9770508,0.2172852,0.0615234,-17.0121956,-7.1951222,4.2682929,-0.0486763
196,-0.9755859,0.2211914,0.0620117,-16.3414631,-7.0121951,3.9634147,-0.0520333
197,-0.9726562,0.2275391,0.050293,-15.4878054,-7.1951222,4.3292685,-0.0530404
198,-0.9716797,0.2270508,0.0478516,-15.060976,-7.0731707,4.5121951,-0.0520333
199,-0.9707031,0.2294922,0.0458984,-14.5731707,-7.0121951,4.8170733,-0.056733
200,-0.9658203,0.2338867,0.0527344,-14.5731707,-7.0121951,4.8170733,-0.056733
201,-0.9624023,0.2333984,0.0610352,-14.7560978,-7.1341467,4.7560978,-0.0621042
202,-0.9560547,0.2338867,0.0668945,-15,-7.0731707,4.5731707,-0.0621042
203,-0.9570312,0.2304688,0.0693359,-15.1829271,-7.2560978,4.5121951,-0.0641184
204,-0.9555664,0.2299805,0.074707,-15,-6.8292685,4.4512196,-0.0627756
205,-0.9541016,0.234375,0.0805664,-14.6341467,-6.2195125,4.6341462,-0.0627756
206,-0.9570312,0.237793,0.0839844,-14.2073174,-5.7317076,4.6341462,-0.0580758
207,-0.9599609,0.2412109,0.0849609,-13.9634151,-5.609756,4.8780489,-0.0594186
208,-0.9633789,0.2480469,0.0825195,-13.5975609,-5.670732,5.1219511,-0.0621042
209,-0.9624023,0.25,0.0786133,-13.7195129,-5.5487804,5.1829271,-0.063447
210,-0.9648438,0.2553711,0.0766602,-14.2682934,-5.0609756,5.3658538,-0.0647898
211,-0.9643555,0.2553711,0.0688477,-14.3902445,-5.2439027,4.9390244,-0.0621042
212,-0.9580078,0.2524414,0.0625,-15.1219511,-5.0609756,4.8780489,-0.0624399
213,-0.9570312,0.2558594,0.0625,-15.3658543,-5.1219511,4.4512196,-0.0621042
214,-0.9604492,0.2539062,0.0576172,-15.7926836,-4.7560978,4.2682929,-0.063447
215,-0.9599609,0.25,0.0493164,-16.1585369,-4.6341462,3.4756098,-0.0715038
216,-0.9604492,0.2495117,0.0473633,-16.5243912,-4.6951222,3.4756098,-0.0741894
217,-0.9575195,0.253418,0.0449219,-17.0121956,-4.5121951,3.5975611,-0.0782177
218,-0.9609375,0.2558594,0.0454102,-17.1341476,-4.6341462,3.4146342,-0.0909743
219,-0.9614258,0.2543945,0.0424805,-17.1951218,-4.4512196,3.3536587,-0.0970169
220,-0.9624023,0.2578125,0.0400391,-17.6219521,-4.2073174,3.2317073,-0.1017166
221,-0.9643555,0.2597656,0.0410156,-18.4756107,-4.1463413,3.2926829,-0.102388
222,-0.9692383,0.2573242,0.0410156,-19.0853672,-3.9024391,3.2926829,-0.1010452
223,-0.9785156,0.2524414,0.0444336,-19.4512196,-3.7195122,2.9878049,-0.0960098
224,-0.9907227,0.2412109,0.0541992,-19.7560978,-3.9634147,3.0487804,-0.0869459
225,-0.987793,0.2392578,0.0546875,-19.6951218,-4.2682929,3.2926829,-0.0772107
226,-0.9887695,0.2285156,0.0634766,-19.3902435,-4.6951222,3.3536587,-0.0715038
227,-0.9902344,0.2304688,0.0629883,-19.4512196,-5,3.2926829,-0.0621042
228,-0.9897461,0.2231445,0.0664062,-18.5975609,-5.3048782,3.2317073,-0.0540475
229,-0.9882812,0.2202148,0.065918,-18.4146347,-5.8536587,3.4146342,-0.0500191
230,-0.9848633,0.2163086,0.0737305,-17.439024,-5.670732,3.4146342,-0.0419623
231,-0.9814453,0.2158203,0.0751953,-17.1341476,-5.7926831,3.1097562,-0.0392767
232,-0.9760742,0.2236328,0.0820312,-16.0365849,-5.7317076,3.2317073,-0.0359197
233,-0.9716797,0.2246094,0.0834961,-15.7317076,-5.7317076,3.3536587,-0.0369268
234,-0.9682617,0.2202148,0.0869141,-15.3048782,-6.0365853,3.4146342,-0.0352483
235,-0.972168,0.2241211,0.0859375,-14.9390249,-5.7317076,3.4146342,-0.0369268
236,-0.9702148,0.2182617,0.0869141,-14.6951227,-5.8536587,3.7195122,-0.0359197
237,-0.9614258,0.2167969,0.0849609,-13.9634151,-5.9146342,3.9024391,-0.0379339
238,-0.9580078,0.2167969,0.0800781,-13.5365858,-6.0975609,4.0853658,-0.0339055
239,-0.949707,0.2192383,0.0800781,-12.6829271,-5.9146342,4.1463413,-0.0298772
240,-0.9443359,0.2250977,0.081543,-12.1341467,-5.9146342,3.9634147,-0.0288701
241,-0.9428711,0.237793,0.074707,-11.1585369,-5.4268293,3.7804878,-0.0325628
242,-0.9443359,0.2460938,0.0678711,-11.219512,-5.609756,3.5975611,-0.0315557
243,-0.9467773,0.2626953,0.0615234,-11.7682934,-5,3.3536587,-0.0298772
244,-0.9472656,0.2680664,0.0629883,-12.3170738,-4.8170733,3.2317073,-0.0271916
245,-0.9628906,0.2651367,0.0644531,-13.6585369,-4.3292685,3.4756098,-0.0285344
246,-0.9599609,0.2617188,0.0571289,-15.060976,-4.5121951,3.4146342,-0.0325628
247,-0.9575195,0.2617188,0.0532227,-15.5487804,-4.5121951,3.5975611,-0.0308843
248,-0.9624023,0.2504883,0.0507812,-16.5243912,-4.1463413,3.6585367,-0.0332341
249,-0.9609375,0.2456055,0.0507812,-16.7682934,-4.2682929,3.7804878,-0.0325628
250,-0.9550781,0.2382812,0.0488281,-17.0731716,-4.2682929,3.4756098,-0.0352483
251,-0.9555664,0.2353516,0.0517578,-16.8902435,-4.1463413,3.2317073,-0.0365911
252,-0.9511719,0.2294922,0.0625,-16.3414631,-4.7560978,2.804878,-0.0399481
253,-0.9458008,0.2255859,0.0639648,-16.0975609,-4.8170733,2.6219513,-0.0412909
254,-0.9477539,0.21875,0.0605469,-15.9756098,-4.9390244,2.0731707,-0.0392767
255,-0.9492188,0.215332,0.0605469,-15.1219511,-4.7560978,2.195122,-0.0365911
256,-0.9506836,0.2138672,0.0649414,-14.6951227,-4.6341462,2.2560976,-0.0365911
257,-0.9511719,0.2167969,0.0629883,-14.1463413,-4.9390244,2.6829269,-0.0372625
258,-0.9555664,0.2192383,0.0610352,-13.4146347,-4.8780489,2.9268293,-0.0392767
259,-0.9575195,0.2319336,0.0566406,-12.9268293,-4.7560978,3.0487804,-0.0419623
260,-0.9638672,0.2363281,0.0556641,-12.7439032,-4.7560978,2.9268293,-0.0419623
261,-0.9726562,0.2451172,0.0532227,-12.8658543,-4.5731707,2.7439024,-0.0426337
262,-0.9770508,0.2504883,0.0546875,-13.1097565,-4.5731707,2.8658538,-0.0459907
263,-0.9770508,0.2568359,0.0541992,-13.5975609,-4.7560978,2.4390244,-0.0433051
264,-0.9814453,0.2563477,0.0551758,-13.841464,-4.8780489,2.4390244,-0.0466621
265,-0.9941406,0.2587891,0.0649414,-14.3902445,-5.2439027,2.5,-0.0513619
266,-0.996582,0.2553711,0.0712891,-14.6341467,-5.4268293,2.3170731,-0.0473335
267,-0.9985352,0.2485352,0.0654297,-14.4512196,-5.7317076,2.6219513,-0.0480049
268,-0.9916992,0.2416992,0.0634766,-14.5121956,-5.670732,2.6829269,-0.0503548
269,-0.9936523,0.2363281,0.0673828,-14.6951227,-5.7926831,2.804878,-0.0594186
270,-0.9907227,0.2260742,0.0664062,-14.2073174,-5.9146342,3.1097562,-0.0651255
271,-0.9873047,0.2226562,0.059082,-13.5365858,-5.8536587,3.2926829,-0.0681468
272,-0.9838867,0.2211914,0.0625,-12.2560978,-6.5243902,3.2926829,-0.0815747
273,-0.9814453,0.2211914,0.0683594,-11.4024391,-6.890244,2.7439024,-0.0802319
274,-0.980957,0.2255859,0.0688477,-10.4268293,-6.8292685,3.0487804,-0.0755322
275,-0.9814453,0.230957,0.0683594,-9.8780489,-6.9512196,2.6829269,-0.0782177
276,-0.9824219,0.2373047,0.0698242,-9.5731707,-6.7682929,2.5,-0.0741894
277,-0.9790039,0.2416992,0.0698242,-9.0243902,-6.7073174,2.3170731,-0.0681468
278,-0.9838867,0.2514648,0.0654297,-9.0853662,-6.8292685,2.3170731,-0.0580758
279,-0.9912109,0.262207,0.0625,-9.2073174,-7.0121951,2.5,-0.0486763
280,-0.9926758,0.2612305,0.0600586,-9.5121956,-7.1341467,2.5,-0.0459907
281,-1,0.2705078,0.0566406,-10.2439022,-6.890244,2.5609756,-0.0459907
282,-1.0039062,0.265625,0.0561523,-10.6707315,-6.890244,2.6829269,-0.0446479
283,-0.9985352,0.2685547,0.0566406,-11.7682934,-6.8292685,2.9268293,-0.0433051
284,-1.0014648,0.2631836,0.0615234,-12.3780489,-6.9512196,2.6829269,-0.0392767
285,-1.0019531,0.2524414,0.0712891,-12.9268293,-7.1341467,2.195122,-0.0339055
286,-1.0004883,0.2441406,0.074707,-13.5365858,-7.1951222,2.1341465,-0.0352483
287,-0.9951172,0.230957,0.0766602,-13.2926836,-7.7439027,2.2560976,-0.0365911
288,-0.9926758,0.2255859,0.0717773,-11.8902445,-7.9878049,2.3170731,-0.0325628
289,-0.9804688,0.2226562,0.0717773,-11.341464,-7.9878049,2.195122,-0.0352483
290,-0.9760742,0.222168,0.0688477,-10.5487804,-8.1097565,2.3170731,-0.0339055
291,-0.9750977,0.2236328,0.0673828,-10,-7.8658538,2.2560976,-0.0553902
292,-0.9692383,0.2363281,0.0668945,-9.0243902,-7.8658538,2.1341465,-0.1406577
293,-0.9741211,0.2373047,0.0717773,-8.6585369,-7.7439027,2.0731707,-0.1735561
294,-0.9731445,0.2524414,0.0698242,-8.0487804,-7.3780489,1.7073171,-0.1500572
295,-0.9750977,0.2573242,0.0654297,-8.1707315,-7.5609756,1.8292683,-0.105745
296,-0.9838867,0.2734375,0.050293,-8.719512,-7.3170733,2.0121951,-0.0530404
297,-0.9892578,0.2773438,0.0483398,-9.1463413,-6.9512196,2.0121951,-0.0090639
298,-0.9980469,0.2807617,0.0395508,-10.1829271,-7.0121951,2.1341465,0.0130922
299,-0.9980469,0.2807617,0.0366211,-11.6463413,-7.1951222,2.1341465,0.024506
300,-0.9980469,0.2841797,0.0439453,-12.0731707,-7.5,2.2560976,0.014435
301,-0.9931641,0.2719727,0.0488281,-13.1097565,-7.7439027,2.195122,0.0077211
302,-0.9892578,0.2685547,0.0551758,-13.2926836,-7.9268293,1.9512196,0.0030213
303,-0.9770508,0.2573242,0.0522461,-13.5365858,-8.2317076,1.7682927,-0.0020142
304,-0.9760742,0.2529297,0.0532227,-13.5365858,-8.1707315,1.6463414,-0.0063783
305,-0.9746094,0.2421875,0.050293,-13.5365858,-8.3536587,1.4634147,-0.0097353
306,-0.9770508,0.2358398,0.0454102,-13.2926836,-8.1097565,1.2804878,-0.011078
307,-0.9716797,0.2294922,0.0429688,-12.6829271,-8.1097565,1.2804878,-0.0137636
308,-0.9736328,0.2260742,0.0473633,-12.6829271,-8.0487804,1.2804878,-0.017792
309,-0.9741211,0.2231445,0.0527344,-12.3780489,-7.9268293,1.2195122,-0.0171206
310,-0.9804688,0.2265625,0.0556641,-12.1951218,-8.2317076,1.3414634,-0.0174563
311,-0.987793,0.2265625,0.0615234,-11.5853662,-8.1097565,1.3414634,-0.0218204
312,-0.9882812,0.2299805,0.0649414,-11.0975609,-8.3536587,0.7317073,-0.0271916
313,-0.9951172,0.230957,0.0678711,-10.7926836,-8.3536587,0.7926829,-0.0285344
314,-0.9985352,0.2275391,0.0668945,-10,-8.5975609,0.5487805,-0.0285344
315,-1.0019531,0.2299805,0.0654297,-9.5121956,-8.780488,0.7317073,-0.03122
316,-1.0073242,0.2338867,0.0708008,-8.719512,-8.9024391,0.6097561,-0.0352483
317,-1.003418,0.2382812,0.0693359,-8.3536587,-9.3292685,0.9756098,-0.0352483
318,-0.996582,0.2451172,0.0629883,-8.1097565,-9.7560978,0.9756098,-0.0325628
319,-0.9946289,0.2470703,0.0644531,-7.9878049,-9.8780489,0.7317073,-0.0345769
320,-0.9780273,0.2480469,0.0620117,-8.4756098,-9.9390249,0.3048781,-0.0339055
321,-0.9731445,0.2495117,0.0654297,-9.0853662,-9.5731707,0.1219512,-0.0392767
322,-0.9731445,0.2519531,0.0629883,-9.6341467,-9.3292685,0.3048781,-0.0496834
323,-0.965332,0.2548828,0.0644531,-10.3658543,-8.841464,0.6097561,-0.0513619
324,-0.9604492,0.2495117,0.0683594,-10.9146347,-8.780488,0.6707317,-0.0506905
325,-0.9609375,0.2480469,0.065918,-11.8292685,-8.1097565,0.9146342,-0.0533761
326,-0.9599609,0.246582,0.0644531,-12.3780489,-7.8658538,0.9146342,-0.0520333
327,-0.9624023,0.2441406,0.0566406,-12.8658543,-7.6829271,1.3414634,-0.0527047
328,-0.9609375,0.2373047,0.0561523,-13.3536587,-7.1951222,1.5243902,-0.0480049
329,-0.9628906,0.2275391,0.0556641,-13.3536587,-7.0121951,1.5853659,-0.0473335
330,-0.9648438,0.2270508,0.0546875,-13.0487804,-6.890244,1.5243902,-0.0473335
331,-0.9707031,0.2216797,0.0581055,-12.6829271,-6.890244,1.2195122,-0.0446479
332,-0.9731445,0.2270508,0.0595703,-12.2560978,-6.8292685,1.0365853,-0.0473335
333,-0.9760742,0.2338867,0.0556641,-12.0121956,-6.6463418,0.6707317,-0.0449836
334,-0.9799805,0.237793,0.050293,-11.4634151,-6.5243902,0.7317073,-0.0459907
335,-0.9848633,0.2490234,0.0488281,-11.7073174,-6.7073174,0.6707317,-0.0449836
336,-0.9794922,0.2539062,0.0458984,-11.8292685,-6.8292685,0.9146342,-0.0426337
337,-0.9780273,0.2573242,0.0463867,-12.3170738,-6.8292685,0.6097561,-0.0473335
338,-0.9726562,0.2612305,0.050293,-13.3536587,-6.890244,0.4268293,-0.0459907
339,-0.9702148,0.2578125,0.0478516,-13.9634151,-6.8292685,0.3658537,-0.0459907
340,-0.9677734,0.2607422,0.0512695,-14.8780489,-6.4024391,0.4268293,-0.0486763
341,-0.9638672,0.2583008,0.0527344,-15.3658543,-6.280488,0.4268293,-0.0506905
342,-0.9599609,0.2509766,0.0541992,-16.5853653,-6.4024391,0.5487805,-0.0500191
343,-0.9560547,0.2441406,0.0522461,-17.5,-6.1585369,0.6097561,-0.0540475
344,-0.9501953,0.2304688,0.0498047,-17.560976,-6.1585369,0.6707317,-0.0513619
345,-0.953125,0.222168,0.0541992,-17.3170738,-5.9146342,0.9756098,-0.0533761
346,-0.9550781,0.2226562,0.0566406,-16.4024391,-5.670732,0.9756098,-0.0553902
347,-0.9580078,0.2211914,0.0556641,-15.3048782,-5.5487804,1.1585366,-0.0547189
348,-0.9584961,0.2275391,0.0522461,-14.6951227,-5.5487804,0.9756098,-0.056733
349,-0.9707031,0.2338867,0.0517578,-14.2073174,-5.609756,1.2804878,-0.0594186
350,-0.9760742,0.2392578,0.0546875,-14.0853662,-5.670732,1.2195122,-0.0574044
351,-0.9814453,0.2543945,0.0449219,-14.0853662,-5.7317076,1.402439,-0.0527047
352,-0.9824219,0.253418,0.050293,-14.3902445,-5.7317076,1.3414634,-0.0486763
353,-0.9858398,0.2504883,0.0571289,-15,-5.670732,1.402439,-0.0433051
354,-0.9868164,0.25,0.0615234,-15.2439032,-6.4024391,1.2804878,-0.0466621
355,-0.9853516,0.2431641,0.0644531,-15.060976,-6.4024391,1.0365853,-0.0433051
356,-0.9838867,0.2402344,0.0600586,-14.5731707,-6.8292685,0.9756098,-0.042298
357,-0.9780273,0.2368164,0.0620117,-14.2682934,-6.890244,0.9146342,-0.0406195
358,-0.9711914,0.2416992,0.0649414,-13.9634151,-7.0731707,1.1585366,-0.0392767
359,-0.9702148,0.2402344,0.0634766,-13.841464,-7.0121951,0.9756098,-0.0412909
360,-0.9663086,0.2416992,0.0644531,-13.780488,-6.7682929,0.5487805,-0.0419623
361,-0.9628906,0.2407227,0.0688477,-13.7195129,-6.5243902,0.6097561,-0.0406195
362,-0.9580078,0.237793,0.065918,-13.7195129,-6.4634147,0.5487805,-0.0419623
363,-0.9614258,0.2426758,0.0668945,-14.0243902,-6.4634147,0.8536586,-0.056733
364,-0.9624023,0.2426758,0.0610352,-13.9634151,-6.280488,0.5487805,-0.0795605
365,-0.9692383,0.2431641,0.0585938,-14.1463413,-6.0975609,1.1585366,-0.0916457
366,-0.9707031,0.2451172,0.0537109,-14.3292685,-6.0975609,1.2804878,-0.0923171
367,-0.9702148,0.2412109,0.0551758,-14.8170738,-5.8536587,1.2804878,-0.0916457
368,-0.9731445,0.2416992,0.0532227,-14.8170738,-6.0975609,1.402439,-0.0809033
369,-0.9750977,0.2441406,0.0537109,-15.1829271,-6.280488,1.1585366,-0.0731823
370,-0.9785156,0.2426758,0.0532227,-15.1829271,-6.1585369,0.9146342,-0.063447
371,-0.9736328,0.2451172,0.0546875,-14.7560978,-6.7682929,1.0365853,-0.0560616
372,-0.9692383,0.2470703,0.0561523,-14.6341467,-6.890244,1.0365853,-0.0533761
373,-0.9619141,0.2407227,0.0615234,-14.8780489,-6.8292685,0.7926829,-0.0527047
374,-0.965332,0.2421875,0.0634766,-14.6341467,-6.7073174,0.6097561,-0.0580758
375,-0.9643555,0.2397461,0.0693359,-14.5121956,-6.6463418,0.4878049,-0.076875
376,-0.9667969,0.2436523,0.065918,-14.3292685,-6.4634147,0.5487805,-0.0825818
377,-0.9628906,0.2490234,0.0673828,-14.0243902,-6.1585369,0.6097561,-0.073518
378,-0.9663086,0.2563477,0.0629883,-13.7195129,-6.1585369,0.6097561,-0.0540475
379,-0.9682617,0.2573242,0.0615234,-14.4512196,-6.2195125,0.4878049,-0.0379339
380,-0.9702148,0.2651367,0.0566406,-14.5731707,-6.0365853,0.6097561,-0.0298772
381,-0.9755859,0.2666016,0.0605469,-15,-6.0365853,0.9146342,-0.0265202
382,-0.9770508,0.2631836,0.0595703,-15.6097565,-5.8536587,0.2439024,-0.0251774
383,-0.9780273,0.2641602,0.0576172,-15.7926836,-5.9756098,0.0609756,-0.027863
384,-0.9799805,0.2548828,0.0556641,-16.5853653,-5.7317076,-0.3048781,-0.0339055
385,-0.9755859,0.2553711,0.0546875,-16.8902435,-5.8536587,-0.1829268,-0.0386053
386,-0.9755859,0.2509766,0.0507812,-16.9512196,-5.670732,-0.3048781,-0.0379339
387,-0.9736328,0.2539062,0.0576172,-16.7682934,-5.7317076,-0.1829268,-0.0379339
388,-0.9702148,0.2475586,0.0610352,-16.9512196,-5.7317076,0.0609756,-0.0339055
389,-0.9619141,0.2451172,0.0629883,-16.7682934,-6.0365853,-0.1219512,-0.0332341
390,-0.9580078,0.2431641,0.0654297,-17.0731716,-6.0975609,0,-0.0298772
391,-0.9536133,0.2324219,0.0644531,-17.439024,-5.7317076,-0.0609756,-0.0275273
392,-0.9545898,0.2314453,0.0605469,-17.6829281,-5.609756,0.1829268,-0.0231632
393,-0.9570312,0.230957,0.0532227,-18.1097565,-4.6951222,0.6097561,-0.0184634
394,-0.9628906,0.2314453,0.0498047,-18.1097565,-4.9390244,0.8536586,-0.0157778
395,-0.9711914,0.2319336,0.0454102,-18.1097565,-4.3292685,0.9146342,-0.0218204
396,-0.9799805,0.2285156,0.0419922,-17.9878044,-4.0853658,1.097561,-0.0198062
397,-0.9916992,0.2353516,0.0380859,-18.2317085,-4.7560978,1.402439,-0.0224918
398,-1,0.2358398,0.0385742,-18.4146347,-4.9390244,1.4634147,-0.0224918
399,-1.0004883,0.2373047,0.0400391,-18.2317085,-5.1829271,1.5243902,-0.0171206
400,-0.9956055,0.2373047,0.043457,-17.7439022,-5.9146342,1.3414634,-0.014435
401,-0.9941406,0.2392578,0.0419922,-17.1951218,-6.2195125,1.2195122,-0.011078
402,-0.9853516,0.2441406,0.0454102,-16.8902435,-6.6463418,0.8536586,-0.0137636
403,-0.9799805,0.2470703,0.0473633,-16.5243912,-6.7682929,0.5487805,-0.0140993
404,-0.9736328,0.2524414,0.0507812,-16.280489,-6.8292685,0.1829268,-0.0137636
405,-0.9726562,0.2578125,0.0512695,-16.2195129,-6.5853658,0.1219512,-0.0164492
406,-0.9658203,0.269043,0.0473633,-16.5243912,-6.5853658,0.0609756,-0.0191348
407,-0.9707031,0.2734375,0.0507812,-16.8902435,-6.280488,0.0609756,-0.0238346
408,-0.9741211,0.2763672,0.059082,-18.1707325,-5.609756,0.0609756,-0.0218204
409,-0.9780273,0.2749023,0.0673828,-19.939024,-5.1829271,0.1219512,-0.0251774
410,-0.9785156,0.2709961,0.0712891,-20.7317085,-5.1219511,0.2439024,-0.0285344
411,-0.9882812,0.2661133,0.0776367,-21.5853672,-4.7560978,-0.3658537,-0.0265202
412,-0.987793,0.2592773,0.0771484,-21.7073174,-5.0609756,-0.3048781,-0.0298772
413,-0.9990234,0.25,0.0756836,-21.5243912,-5.2439027,-0.4268293,-0.03122
414,-0.9990234,0.2490234,0.0722656,-21.0365868,-5.4268293,-0.3048781,-0.0339055
415,-0.9931641,0.2421875,0.0629883,-20.5487804,-5.4268293,-0.5487805,-0.0345769
416,-0.9936523,0.2426758,0.0571289,-20.4878044,-5.7926831,-0.6707317,-0.0332341
417,-0.9916992,0.2412109,0.0498047,-20.1829281,-5.7317076,-0.9146342,-0.0352483
418,-0.9936523,0.2402344,0.0488281,-20.1829281,-5.670732,-0.7317073,-0.0359197
419,-0.9946289,0.2431641,0.0419922,-20.6097565,-5.7926831,-0.8536586,-0.035584
420,-0.9985352,0.2392578,0.0473633,-20.1829281,-5.7926831,-0.9146342,-0.0318914
421,-1.003418,0.230957,0.0473633,-20.1829281,-6.2195125,-0.7317073,-0.0352483
422,-1.0102539,0.2265625,0.0424805,-19.8170738,-6.3414636,-0.3658537,-0.0365911
423,-1.0185547,0.2265625,0.0419922,-19.8170738,-6.5243902,-0.3048781,-0.0392767
424,-1.0170898,0.2275391,0.0424805,-19.5121956,-7.0731707,0.1219512,-0.0449836
425,-1.0166016,0.2294922,0.0424805,-19.0243912,-7.0731707,0.2439024,-0.0453193
426,-1.0141602,0.2236328,0.0517578,-17.8658543,-7.5,0.1829268,-0.0513619
427,-1.0161133,0.2285156,0.0541992,-17.560976,-8.1097565,0.1219512,-0.0527047
428,-1.0117188,0.2319336,0.0517578,-16.5853653,-8.6585369,-0.1829268,-0.0527047
429,-1.0063477,0.2358398,0.0483398,-15.9146347,-9.2682924,-0.0609756,-0.0527047
430,-0.9970703,0.2402344,0.0473633,-15.7926836,-9.6951218,-0.4268293,-0.0553902
431,-0.9916992,0.2460938,0.0356445,-16.280489,-9.7560978,0,-0.0520333
432,-0.9868164,0.2451172,0.0302734,-16.280489,-9.6341467,-0.1219512,-0.0506905
433,-0.9863281,0.2451172,0.0307617,-16.8292694,-9.2073174,0.0609756,-0.0480049
434,-0.9853516,0.2460938,0.0302734,-16.9512196,-9.3292685,0.1219512,-0.0486763
435,-0.9858398,0.2456055,0.0400391,-16.9512196,-9.3902445,0.4268293,-0.0486763
436,-0.9868164,0.2470703,0.0390625,-17.0731716,-9.3292685,0.6097561,-0.0500191
437,-0.9882812,0.2470703,0.0415039,-17.0731716,-9.3902445,0.5487805,-0.0513619
438,-0.9912109,0.2426758,0.0444336,-17.2560978,-9.5121956,0.5487805,-0.0506905
439,-0.9951172,0.2446289,0.0463867,-17.1341476,-9.3292685,0.7317073,-0.0500191
440,-0.996582,0.2470703,0.0483398,-17.8048782,-9.7560978,0.1829268,-0.0486763
441,-0.9980469,0.2421875,0.0561523,-17.6219521,-9.4512196,0.3048781,-0.0466621
442,-0.9960938,0.2407227,0.0532227,-17.1341476,-10.060976,-0.1829268,-0.0459907
443,-0.9970703,0.2382812,0.0561523,-17.1341476,-10.2439022,0.1219512,-0.0433051
444,-0.9970703,0.2407227,0.0566406,-17.0121956,-10.7317076,-0.1829268,-0.0446479
445,-0.9916992,0.2387695,0.0581055,-16.8292694,-11.0975609,-0.1219512,-0.0406195
446,-0.9794922,0.2329102,0.0605469,-16.2195129,-11.280488,0.4268293,-0.0439765
447,-0.9726562,0.2338867,0.0639648,-15.9756098,-11.4634151,0.2439024,-0.0543832
448,-0.9619141,0.2392578,0.0634766,-15.3658543,-11.5243902,-0.4878049,-0.0594186
449,-0.9609375,0.2421875,0.0595703,-15.3658543,-11.5243902,-0.3658537,-0.06009
450,-0.9526367,0.2368164,0.0556641,-15.2439032,-11.0365858,-0.2439024,-0.0594186
451,-0.9526367,0.2358398,0.0522461,-15.9146347,-10.3658543,-0.3658537,-0.0547189
452,-0.9580078,0.2353516,0.0556641,-15.9756098,-10.1219511,-0.1829268,-0.0506905
453,-0.9614258,0.2338867,0.0561523,-16.0975609,-9.5731707,-0.2439024,-0.0459907
454,-0.965332,0.2353516,0.0625,-16.0365849,-9.3292685,0,-0.0379339
455,-0.9702148,0.234375,0.0678711,-16.5243912,-9.4512196,0,-0.0365911
456,-0.9702148,0.2324219,0.0742188,-16.4634151,-9.3292685,0.2439024,-0.035584
457,-0.9658203,0.2207031,0.0644531,-16.280489,-9.6951218,0.4878049,-0.0332341
458,-0.965332,0.2143555,0.059082,-16.3414631,-9.6341467,0.4878049,-0.0392767
459,-0.9516602,0.2114258,0.0561523,-16.0975609,-9.9390249,0.6707317,-0.0433051
460,-0.9443359,0.2104492,0.0537109,-16.1585369,-9.7560978,0.3658537,-0.0463264
461,-0.9321289,0.2177734,0.0522461,-15.7317076,-9.7560978,0.8536586,-0.0506905
462,-0.9379883,0.2226562,0.043457,-15.3658543,-9.5731707,0.6097561,-0.0547189
463,-0.9404297,0.2299805,0.0327148,-15.3658543,-9.3902445,0.6097561,-0.0580758
464,-0.9521484,0.2353516,0.0200195,-15.6707325,-8.5365858,0.7926829,-0.0580758
465,-0.9638672,0.2368164,0.0200195,-16.280489,-8.4146347,0.9756098,-0.0560616
466,-0.9804688,0.2363281,0.0205078,-17.0731716,-7.9268293,1.4634147,-0.0607614
467,-0.987793,0.2368164,0.0244141,-16.8902435,-7.8658538,1.6463414,-0.06009
468,-0.9956055,0.2304688,0.0297852,-16.5853653,-8.4756098,1.8292683,-0.0553902
469,-0.9975586,0.2241211,0.0385742,-16.8902435,-8.9024391,1.7073171,-0.0547189
470,-0.9951172,0.2246094,0.0527344,-15.7317076,-9.8780489,1.4634147,-0.0506905
471,-0.9921875,0.2231445,0.0566406,-15.2439032,-10.3658543,1.3414634,-0.0500191
472,-0.9760742,0.2211914,0.0576172,-14.0243902,-10.7317076,0.4878049,-0.0439765
473,-0.9726562,0.222168,0.0522461,-13.4146347,-10.5487804,0.3048781,-0.0459907
474,-0.9633789,0.2275391,0.0561523,-13.2926836,-10.7317076,0.1829268,-0.0453193
475,-0.9594727,0.2412109,0.0532227,-12.7439032,-10.060976,0.1829268,-0.0433051
476,-0.9628906,0.2460938,0.0537109,-12.8658543,-9.8780489,0.2439024,-0.0412909
477,-0.9677734,0.2548828,0.0551758,-13.2926836,-9.0853662,0.7317073,-0.0439765
478,-0.9731445,0.2597656,0.0522461,-13.4756098,-9.0243902,0.6707317,-0.0446479
479,-0.9794922,0.2578125,0.0473633,-14.3292685,-8.1707315,1.0365853,-0.0433051
480,-0.9819336,0.2597656,0.046875,-14.7560978,-8.1707315,1.4634147,-0.0392767
481,-0.9946289,0.2563477,0.0483398,-15.5487804,-7.8658538,1.402439,-0.0446479
482,-0.9951172,0.2539062,0.0493164,-15.7926836,-7.9878049,1.4634147,-0.0459907
483,-0.9990234,0.246582,0.0527344,-15.9146347,-8.3536587,1.1585366,-0.0463264
484,-1.003418,0.2416992,0.0507812,-15.3048782,-9.0853662,0.4878049,-0.0466621
485,-1.0048828,0.2338867,0.0541992,-14.6951227,-9.4512196,0.4878049,-0.0459907
486,-0.9970703,0.2304688,0.0498047,-13.5975609,-9.8780489,0.0609756,-0.0426337
487,-0.9956055,0.2324219,0.0507812,-13.2926836,-10.060976,0.1219512,-0.042298
488,-0.9887695,0.2299805,0.0507812,-12.6829271,-10.4878054,0.1829268,-0.0419623
489,-0.9838867,0.2299805,0.046875,-12.5,-10.6097565,0.2439024,-0.0386053
490,-0.9731445,0.2304688,0.0454102,-11.8292685,-10.3658543,0.6707317,-0.0433051
491,-0.9663086,0.2294922,0.0507812,-11.5853662,-10.1219511,0.4878049,-0.0466621
492,-0.9589844,0.2294922,0.0498047,-12.0121956,-10.1829271,0.7926829,-0.0480049
493,-0.9550781,0.230957,0.0498047,-11.9512196,-10.1219511,0.6707317,-0.0459907
494,-0.9511719,0.2299805,0.0463867,-11.8292685,-9.4512196,0.9146342,-0.0446479
495,-0.9482422,0.2285156,0.0458984,-11.9512196,-9.0853662,1.2195122,-0.0453193
496,-0.9482422,0.2314453,0.0493164,-12.0121956,-9.0243902,1.2195122,-0.0486763
497,-0.9555664,0.2290039,0.0488281,-12.4390249,-8.3536587,1.9512196,-0.0641184
498,-0.9594727,0.2314453,0.0419922,-12.9268293,-8.5365858,2.0121951,-0.076875
499,-0.9716797,0.2231445,0.0375977,-12.9268293,-8.6585369,2.4390244,-0.0755322
500,-0.9755859,0.2211914,0.0371094,-12.8658543,-8.3536587,2.5,-0.0674754
501,-0.9775391,0.2138672,0.0400391,-12.8658543,-8.5365858,2.7439024,-0.0520333
502,-0.9833984,0.2133789,0.0400391,-12.1951218,-8.6585369,2.804878,-0.0379339
503,-0.9838867,0.2192383,0.043457,-10.9756098,-8.9634151,2.4390244,-0.0325628
504,-0.9824219,0.2182617,0.0488281,-10.2439022,-9.5731707,2.1341465,-0.03122
505,-0.9829102,0.2236328,0.0561523,-8.841464,-10.1219511,2.0731707,-0.0325628
506,-0.9736328,0.222168,0.0615234,-8.1097565,-10.6097565,2.0731707,-0.0302129
507,-0.9589844,0.2294922,0.0585938,-7.9878049,-10.7317076,1.8292683,-0.0339055
508,-0.9526367,0.2373047,0.0585938,-7.8658538,-10.6097565,2.0731707,-0.0386053
509,-0.9501953,0.2416992,0.0629883,-7.8048782,-10.2439022,2.0121951,-0.0379339
510,-0.9423828,0.246582,0.0576172,-8.3536587,-9.6951218,2.0121951,-0.0392767
511,-0.9448242,0.2490234,0.0556641,-8.3536587,-9.4512196,2.3780489,-0.0433051
512,-0.9453125,0.262207,0.0527344,-8.9634151,-8.4146347,2.3170731,-0.0459907
513,-0.9438477,0.2641602,0.0483398,-9.5731707,-8.2317076,2.195122,-0.0466621
514,-0.953125,0.2714844,0.0527344,-10.7926836,-7.5,2.0731707,-0.0459907
515,-0.9599609,0.2700195,0.0537109,-11.5243902,-7.2560978,1.8902439,-0.0473335
516,-0.9716797,0.2651367,0.0522461,-12.8048782,-6.8292685,2.0121951,-0.0513619
517,-0.9755859,0.2607422,0.0546875,-13.3536587,-6.9512196,1.8292683,-0.0513619
518,-0.9824219,0.2553711,0.0620117,-13.1097565,-6.8292685,1.8292683,-0.0486763
519,-0.9814453,0.2519531,0.0639648,-13.2926836,-6.8292685,1.402439,-0.0527047
520,-0.9765625,0.25,0.0625,-13.6585369,-6.9512196,1.402439,-0.0587472
521,-0.9760742,0.2490234,0.0576172,-13.7195129,-6.890244,0.9146342,-0.0647898
522,-0.9770508,0.2470703,0.0537109,-13.5975609,-6.8292685,0.9146342,-0.0621042
523,-0.9736328,0.2416992,0.0483398,-13.6585369,-6.8292685,0.7926829,-0.06009
524,-0.9692383,0.2368164,0.0449219,-13.5975609,-6.6463418,0.9146342,-0.0745251
525,-0.9711914,0.2373047,0.0390625,-13.6585369,-6.0975609,1.3414634,-0.1460288
526,-0.9716797,0.2333984,0.0415039,-13.9024391,-5.8536587,1.402439,-0.1795987
527,-0.96875,0.2338867,0.0356445,-14.2073174,-5.9146342,1.5853659,-0.1514
528,-0.972168,0.2314453,0.0385742,-13.9024391,-6.0365853,1.9512196,-0.102388
529,-0.9760742,0.234375,0.0361328,-13.841464,-5.9756098,1.9512196,-0.0527047
530,-0.9750977,0.2368164,0.0395508,-13.780488,-6.1585369,2.1341465,-0.0097353
531,-0.9736328,0.2382812,0.0419922,-13.4756098,-6.5853658,2.195122,0.0130922
532,-0.9702148,0.2373047,0.0439453,-13.2926836,-6.2195125,2.5609756,0.021149
533,-0.9677734,0.2363281,0.050293,-13.1707315,-6.3414636,2.5,0.0157778
534,-0.9638672,0.2338867,0.0463867,-13.7195129,-6.3414636,2.4390244,0.0077211
535,-0.9619141,0.2358398,0.0463867,-14.0853662,-6.2195125,2.7439024,0.0023499
536,-0.9580078,0.2338867,0.046875,-14.6341467,-5.9146342,2.9268293,-0.0016785
537,-0.9619141,0.2324219,0.0424805,-14.7560978,-5.609756,3.1707318,-0.0057069
538,-0.9707031,0.2358398,0.0395508,-15.060976,-5.5487804,3.0487804,-0.0073854
539,-0.9755859,0.2363281,0.0356445,-15.060976,-5.4878049,3.7804878,-0.0090639
540,-0.980957,0.2368164,0.0336914,-15.3658543,-5.609756,3.9024391,-0.0137636
541,-0.9833984,0.2392578,0.0419922,-15.1219511,-5.7317076,3.7804878,-0.0151064
542,-0.9838867,0.2387695,0.0458984,-15.2439032,-5.9146342,3.8414636,-0.0171206
543,-0.9824219,0.2387695,0.0478516,-14.8170738,-6.5243902,3.7195122,-0.0151064
544,-0.9829102,0.2373047,0.0483398,-14.7560978,-6.890244,3.7804878,-0.0171206
545,-0.9814453,0.2373047,0.0444336,-15.060976,-6.9512196,3.3536587,-0.0194705
546,-0.9790039,0.2348633,0.0478516,-15.1219511,-6.4634147,3.3536587,-0.0258488
547,-0.9824219,0.230957,0.0629883,-15.4878054,-6.7682929,3.2317073,-0.0251774
548,-0.9790039,0.2314453,0.0620117,-15.3658543,-6.5853658,3.3536587,-0.024506
549,-0.9750977,0.2285156,0.0673828,-14.5731707,-6.8292685,3.2926829,-0.0298772
550,-0.9746094,0.2290039,0.0678711,-13.5365858,-6.890244,3.1707318,-0.03122
551,-0.972168,0.2348633,0.0639648,-12.9268293,-7.1951222,2.9878049,-0.0328985
552,-0.9682617,0.2358398,0.0512695,-12.560976,-6.9512196,2.9878049,-0.0325628
553,-0.9677734,0.2426758,0.0444336,-12.0731707,-6.890244,2.8658538,-0.0345769
554,-0.9677734,0.2495117,0.0380859,-12.4390249,-6.5243902,2.9268293,-0.0419623
555,-0.9648438,0.2553711,0.0419922,-12.9878054,-6.4634147,2.9268293,-0.0553902
556,-0.9677734,0.2631836,0.0458984,-14.1463413,-6.3414636,2.6829269,-0.0641184
557,-0.9677734,0.262207,0.0478516,-14.6951227,-6.2195125,2.3780489,-0.0678111
558,-0.9770508,0.262207,0.0527344,-16.0365849,-5.9756098,2.4390244,-0.0728466
559,-0.9804688,0.2558594,0.0551758,-16.4024391,-5.7317076,2.5,-0.073518
560,-0.9868164,0.2470703,0.0532227,-16.7073174,-5.7317076,2.6829269,-0.0688182
561,-0.9985352,0.2363281,0.050293,-16.8292694,-6.2195125,3.0487804,-0.0621042
562,-0.9995117,0.2319336,0.0454102,-17.1341476,-6.280488,3.2317073,-0.0594186
563,-1.003418,0.2270508,0.0449219,-17.0121956,-6.280488,3.4146342,-0.0560616
564,-1.0058594,0.2265625,0.0405273,-16.7073174,-6.3414636,3.2926829,-0.0533761
565,-0.9990234,0.2246094,0.0532227,-15.9146347,-6.9512196,3.2317073,-0.0473335
566,-1.0004883,0.2255859,0.0576172,-15.7317076,-7.3170733,3.2926829,-0.0443122
567,-0.9995117,0.2280273,0.0664062,-15.1219511,-7.6219516,2.3170731,-0.0406195
568,-1.0019531,0.234375,0.0615234,-14.7560978,-7.7439027,2.2560976,-0.0396124
569,-1.0029297,0.2319336,0.0551758,-14.1463413,-8.2317076,2.7439024,-0.0406195
570,-0.9980469,0.2304688,0.0483398,-14.2682934,-8.2926826,2.6219513,-0.0419623
571,-0.9946289,0.2304688,0.0439453,-14.2682934,-8.5365858,3.2926829,-0.0433051
572,-0.9887695,0.2265625,0.0439453,-14.5121956,-8.4756098,3.7195122,-0.0419623
573,-0.9863281,0.2236328,0.0478516,-13.9024391,-8.6585369,3.7804878,-0.0386053
574,-0.9780273,0.2216797,0.0527344,-13.4756098,-9.1463413,3.8414636,-0.0399481
575,-0.9760742,0.2246094,0.0493164,-13.1097565,-9.2682924,3.4146342,-0.0439765
576,-0.9648438,0.2275391,0.0507812,-12.6219511,-9.2682924,3.5975611,-0.0419623
577,-0.9599609,0.2329102,0.0512695,-12.4390249,-9.2682924,3.5365853,-0.0399481
578,-0.9589844,0.2348633,0.0405273,-12.3780489,-9.0853662,3.3536587,-0.0419623
579,-0.9584961,0.2382812,0.0395508,-12.3170738,-9.2073174,3.4756098,-0.0433051
580,-0.9594727,0.2402344,0.0317383,-12.3780489,-9.1463413,3.4756098,-0.0433051
581,-0.9599609,0.2421875,0.034668,-12.8658543,-9.2682924,3.7195122,-0.0459907
582,-0.9624023,0.2431641,0.0322266,-14.1463413,-8.9634151,4.2073174,-0.0661326
583,-0.9599609,0.2446289,0.0395508,-15.5487804,-8.4756098,4.1463413,-0.0916457
584,-0.9633789,0.2402344,0.0439453,-15.9756098,-8.4756098,4.1463413,-0.0929885
585,-0.965332,0.2382812,0.0527344,-16.4024391,-8.2317076,4.2073174,-0.0862745
586,-0.96875,0.2368164,0.0527344,-16.4024391,-7.9878049,3.9024391,-0.0741894
587,-0.96875,0.237793,0.0546875,-16.6463413,-8.3536587,3.6585367,-0.0627756
588,-0.9682617,0.2368164,0.0546875,-16.5243912,-8.2317076,3.8414636,-0.0594186
589,-0.9697266,0.2421875,0.0566406,-16.5853653,-8.2926826,3.9024391,-0.0540475
590,-0.972168,0.2436523,0.0668945,-16.8292694,-7.9878049,3.6585367,-0.0506905
591,-0.9682617,0.246582,0.0722656,-16.4024391,-8.1707315,3.3536587,-0.0473335
592,-0.9648438,0.253418,0.0737305,-16.3414631,-8.0487804,3.1097562,-0.0436408
593,-0.9599609,0.2558594,0.0654297,-16.4634151,-8.0487804,2.6219513,-0.0406195
594,-0.9609375,0.2553711,0.0644531,-17.1951218,-7.8658538,2.6219513,-0.0365911
595,-0.9584961,0.2587891,0.059082,-17.1341476,-7.5609756,2.804878,-0.0365911
596,-0.9614258,0.2646484,0.0585938,-18.1097565,-6.8292685,2.6829269,-0.0352483
597,-0.9628906,0.2617188,0.0585938,-18.9634151,-6.5853658,2.6829269,-0.0352483
598,-0.9692383,0.2602539,0.0581055,-20.060976,-6.4024391,2.6829269,-0.0372625
599,-0.9711914,0.2578125,0.0610352,-20.4878044,-6.280488,2.4390244,-0.0399481
600,-0.9707031,0.2524414,0.0625,-20.9756107,-5.9146342,2.5,-0.0382696
601,-0.9731445,0.25,0.059082,-20.9756107,-6.0365853,2.4390244,-0.0325628
602,-0.9726562,0.2451172,0.0600586,-22.0731716,-5.8536587,2.0121951,-0.035584
603,-0.9780273,0.2416992,0.0610352,-22.560976,-5.9756098,2.4390244,-0.0339055
604,-0.9780273,0.2294922,0.0566406,-23.9024391,-5.5487804,2.6829269,-0.0325628
605,-0.9829102,0.2119141,0.0600586,-23.5365868,-5.2439027,2.9878049,-0.0298772
606,-0.9868164,0.2016602,0.0615234,-22.6219521,-5.3658538,3.0487804,-0.03122
607,-0.9931641,0.1948242,0.0654297,-20.2439022,-5.8536587,3.2926829,-0.0339055
608,-0.9931641,0.1914062,0.0639648,-19.3902435,-6.2195125,3.2317073,-0.0379339
609,-0.9960938,0.2006836,0.0620117,-16.8902435,-6.7073174,3.3536587,-0.0379339
610,-0.9931641,0.2099609,0.0605469,-16.2195129,-7.2560978,3.5365853,-0.0379339
611,-0.9916992,0.2246094,0.0458984,-14.8780489,-7.6219516,3.5975611,-0.0406195
612,-0.9853516,0.2348633,0.0429688,-14.7560978,-7.9268293,3.8414636,-0.0647898
613,-0.9750977,0.2456055,0.046875,-14.7560978,-7.9878049,3.2926829,-0.0829175
614,-0.972168,0.2460938,0.0478516,-15.4878054,-7.9878049,3.1707318,-0.0835889
615,-0.9663086,0.2470703,0.0483398,-15.7926836,-7.6829271,2.7439024,-0.0788891
616,-0.9658203,0.2460938,0.0546875,-16.7073174,-7.7439027,3.2317073,-0.0674754
617,-0.9697266,0.2368164,0.0561523,-17.0731716,-7.3780489,3.1707318,-0.0540475
618,-0.9707031,0.230957,0.0585938,-17.3780499,-7.1341467,3.5975611,-0.042298
619,-0.9702148,0.2275391,0.059082,-17.0731716,-7.4390244,4.0243902,-0.0365911
620,-0.9711914,0.2211914,0.0625,-16.3414631,-7.2560978,4.0853658,-0.0339055
621,-0.9682617,0.2216797,0.0693359,-15.6097565,-6.9512196,4.1463413,-0.0339055
622,-0.96875,0.2319336,0.0678711,-14.8780489,-7.3780489,3.9634147,-0.0281987
623,-0.9677734,0.2314453,0.0629883,-14.5731707,-7.2560978,3.9024391,-0.0231632
624,-0.9638672,0.2382812,0.0595703,-15.060976,-7.0731707,3.4756098,-0.0231632
625,-0.9658203,0.2421875,0.0556641,-15.7317076,-6.7073174,2.9268293,-0.0208133
626,-0.9609375,0.253418,0.050293,-16.4024391,-6.5243902,2.8658538,-0.0204776
627,-0.9658203,0.2529297,0.0541992,-17.1341476,-5.9756098,2.804878,-0.0198062
628,-0.965332,0.2509766,0.0488281,-17.2560978,-5.9756098,2.9878049,-0.0204776
629,-0.9692383,0.2504883,0.0488281,-17.8658543,-5.9756098,3.1097562,-0.0201419
630,-0.9707031,0.2495117,0.0454102,-17.9268303,-5.8536587,3.2317073,-0.0271916
631,-0.9677734,0.2441406,0.0361328,-18.1707325,-5.7926831,3.1097562,-0.0352483
632,-0.9726562,0.2402344,0.034668,-18.4146347,-5.670732,3.1097562,-0.0433051
633,-0.9833984,0.2387695,0.0307617,-18.4146347,-5.3658538,2.8658538,-0.0527047
634,-0.9804688,0.2353516,0.0322266,-18.5365849,-5.4268293,2.804878,-0.0580758
635,-0.9887695,0.237793,0.0385742,-18.1097565,-5.7926831,2.4390244,-0.0627756
636,-0.996582,0.2446289,0.0380859,-17.8658543,-6.0365853,2.4390244,-0.0621042
637,-1.0009766,0.246582,0.0302734,-18.0487804,-6.1585369,2.3170731,-0.0580758
638,-1.0073242,0.2480469,0.03125,-18.4146347,-6.5243902,2.195122,-0.0580758
639,-1.0048828,0.246582,0.0327148,-18.4756107,-6.7073174,2.5,-0.0506905
640,-1.0063477,0.2412109,0.0371094,-19.4512196,-6.7682929,2.3170731,-0.0406195
641,-1.003418,0.237793,0.0405273,-19.6341476,-7.0121951,2.5,-0.0325628
642,-0.9990234,0.2265625,0.0537109,-19.7560978,-7.3780489,2.3780489,-0.0218204
643,-0.9980469,0.2250977,0.0581055,-19.3902435,-7.5609756,2.3780489,-0.0208133
644,-0.9926758,0.2207031,0.0625,-19.3902435,-7.5,2.5609756,-0.021149
645,-0.9897461,0.2236328,0.0654297,-19.5121956,-7.5609756,2.5609756,-0.0164492
646,-0.9887695,0.2241211,0.0737305,-18.6585369,-7.3780489,2.9268293,-0.0167849
647,-0.9814453,0.2294922,0.0761719,-18.2926826,-7.5,2.9878049,-0.017792
648,-0.9760742,0.2275391,0.0751953,-18.1707325,-7.6829271,2.9268293,-0.0191348
649,-0.96875,0.2304688,0.0605469,-18.6585369,-7.9878049,2.9268293,-0.0224918
650,-0.9609375,0.2294922,0.0546875,-19.0243912,-7.8048782,2.9878049,-0.017792
651,-0.9560547,0.2304688,0.0512695,-20.1829281,-6.890244,3.4756098,-0.017792
652,-0.9560547,0.2319336,0.0507812,-20.4878044,-6.5853658,3.2926829,-0.017792
653,-0.9511719,0.2294922,0.0561523,-21.4024391,-5.8536587,3.2317073,-0.0248417
654,-0.9516602,0.2290039,0.0576172,-21.6463413,-5.5487804,3.5365853,-0.0271916
655,-0.9550781,0.2246094,0.0537109,-21.7073174,-5.3048782,3.5365853,-0.0298772
656,-0.9555664,0.21875,0.0493164,-21.8292694,-5.4268293,3.5365853,-0.0325628
657,-0.9589844,0.2207031,0.0444336,-22.1341476,-5,3.9024391,-0.0288701
658,-0.9609375,0.2197266,0.0375977,-22.8658543,-4.5121951,4.2073174,-0.0285344
659,-0.9682617,0.2246094,0.0473633,-22.9268303,-4.2073174,4.1463413,-0.0318914
660,-0.984375,0.2231445,0.0541992,-23.1097565,-4.390244,3.6585367,-0.0315557
661,-0.9912109,0.2202148,0.0546875,-22.6829281,-4.5731707,3.4756098,-0.0359197
662,-1.0078125,0.2119141,0.0507812,-21.7682934,-5.0609756,3.4756098,-0.0352483
663,-1.0063477,0.2089844,0.0507812,-21.3414631,-5.4878049,3.3536587,-0.0365911
664,-1.012207,0.2138672,0.0605469,-20.2439022,-6.5243902,3.5975611,-0.0406195
665,-1.0097656,0.2158203,0.059082,-19.5121956,-6.7073174,3.5365853,-0.0446479
666,-0.9926758,0.222168,0.0546875,-18.3536587,-7.6219516,3.2926829,-0.0473335
667,-0.9833984,0.2231445,0.0537109,-18.2317085,-7.9268293,3.1707318,-0.0540475
668,-0.9770508,0.2363281,0.0537109,-18.2317085,-7.6829271,3.1097562,-0.0795605
669,-0.9702148,0.2426758,0.0537109,-18.3536587,-7.7439027,2.6219513,-0.1500572
670,-0.96875,0.2431641,0.0507812,-18.6585369,-7.3170733,2.195122,-0.1701991
671,-0.9682617,0.2426758,0.0527344,-19.7560978,-7.0121951,2.3780489,-0.1456931
672,-0.96875,0.2426758,0.0551758,-20.1829281,-6.5243902,2.6829269,-0.102388
673,-0.9726562,0.2260742,0.0688477,-20.6707325,-6.3414636,3.1097562,-0.0594186
674,-0.9755859,0.2192383,0.0727539,-20.6707325,-6.280488,3.4756098,-0.024506
675,-0.9755859,0.2167969,0.0854492,-20.3048782,-6.3414636,3.3536587,-0.0077211
676,-0.9790039,0.2124023,0.0874023,-19.6951218,-6.4024391,3.5365853,-0.0083925
677,-0.9858398,0.2094727,0.090332,-17.439024,-6.280488,3.1707318,-0.011078
678,-0.9882812,0.2124023,0.0859375,-16.5853653,-6.7682929,2.9268293,-0.0204776
679,-0.9902344,0.2226562,0.0771484,-14.0853662,-7.1341467,2.2560976,-0.0265202
680,-0.9946289,0.2290039,0.0732422,-13.4756098,-7.3780489,1.8292683,-0.0318914
681,-1.0009766,0.246582,0.0610352,-13.2926836,-7.3170733,1.7682927,-0.0382696
682,-1,0.2597656,0.0517578,-13.5975609,-7.7439027,1.5853659,-0.0392767
683,-0.9975586,0.265625,0.0527344,-14.2073174,-7.8048782,1.7682927,-0.0406195
684,-0.9882812,0.2607422,0.0493164,-15.5487804,-8.1097565,1.5243902,-0.0446479
685,-0.9868164,0.2563477,0.0507812,-16.2195129,-8.1097565,1.4634147,-0.0439765
686,-0.9765625,0.2475586,0.0571289,-17.439024,-8.1707315,1.097561,-0.0409552
687,-0.972168,0.2416992,0.0605469,-18.2317085,-8.2317076,1.1585366,-0.0453193
688,-0.9628906,0.2202148,0.0732422,-18.8414631,-8.1097565,0.9756098,-0.0439765
689,-0.9638672,0.2138672,0.0751953,-18.7195129,-7.8658538,0.9756098,-0.0399481
690,-0.9599609,0.2011719,0.0727539,-17.9268303,-7.7439027,1.3414634,-0.0406195
691,-0.9614258,0.1987305,0.0693359,-16.9512196,-7.6829271,1.5853659,-0.0459907
692,-0.9614258,0.2041016,0.0629883,-16.0365849,-7.5,1.7073171,-0.0439765
693,-0.9697266,0.2138672,0.0551758,-14.4512196,-7.6219516,1.8902439,-0.0446479
694,-0.9760742,0.222168,0.050293,-13.780488,-7.6219516,1.9512196,-0.0459907
695,-0.9892578,0.2338867,0.0419922,-13.5365858,-7.8658538,1.5243902,-0.0433051
696,-0.9926758,0.2412109,0.0415039,-13.841464,-7.8048782,1.2195122,-0.0406195
697,-1.0029297,0.2504883,0.046875,-14.3902445,-7.9878049,1.2195122,-0.0446479
698,-1.0083008,0.2504883,0.046875,-14.6951227,-8.1707315,0.9146342,-0.0473335
699,-1.0024414,0.2421875,0.0546875,-15.3048782,-8.9024391,0.9146342,-0.0513619
700,-1.0009766,0.2421875,0.059082,-15.3048782,-9.2073174,0.7926829,-0.0513619
701,-0.9921875,0.234375,0.0703125,-16.0975609,-9.3902445,0.6097561,-0.0500191
702,-0.9902344,0.2329102,0.0761719,-16.0975609,-9.6951218,0,-0.0480049
703,-0.9746094,0.2226562,0.0810547,-15.9756098,-9.6341467,0.1219512,-0.0480049
704,-0.9628906,0.222168,0.0830078,-14.8780489,-9.5731707,-0.1219512,-0.0453193
705,-0.9521484,0.2226562,0.0844727,-14.5731707,-9.4512196,-0.2439024,-0.0473335
706,-0.9482422,0.2246094,0.0795898,-13.9634151,-9.0243902,-0.2439024,-0.0439765
707,-0.9482422,0.2265625,0.078125,-14.0243902,-8.9024391,-0.0609756,-0.0446479
708,-0.9418945,0.2329102,0.0664062,-14.0243902,-8.3536587,0.4268293,-0.0453193
709,-0.9414062,0.234375,0.0620117,-14.0853662,-8.1097565,0.3658537,-0.0473335
710,-0.9418945,0.2329102,0.0527344,-14.5731707,-7.8658538,0.4268293,-0.0527047
711,-0.9443359,0.2358398,0.0498047,-14.9390249,-7.3780489,0.2439024,-0.0580758
712,-0.9462891,0.2431641,0.0478516,-15.7317076,-6.5853658,0.7317073,-0.0540475
713,-0.9541016,0.2495117,0.0439453,-16.4024391,-6.5853658,0.4878049,-0.0527047
714,-0.9628906,0.2480469,0.0400391,-16.8292694,-6.280488,0.8536586,-0.0553902
715,-0.9726562,0.253418,0.0390625,-17.7439022,-6.280488,0.3658537,-0.0553902
716,-0.9838867,0.2470703,0.0375977,-18.2317085,-6.4634147,0.0609756,-0.0516976
717,-0.9887695,0.2426758,0.0263672,-18.780489,-6.5243902,0.1829268,-0.0500191
718,-0.9907227,0.2387695,0.0322266,-19.0853672,-6.7073174,0.3048781,-0.0513619
719,-0.9970703,0.2216797,0.0361328,-18.4756107,-7.6829271,0.7317073,-0.0513619
720,-0.9916992,0.2138672,0.0385742,-17.8658543,-7.9878049,0.4878049,-0.0540475
721,-0.9873047,0.206543,0.0473633,-16.5243912,-8.9024391,0.3658537,-0.0513619
722,-0.987793,0.2050781,0.050293,-15.9146347,-9.3902445,0.1829268,-0.0473335
723,-0.9814453,0.2119141,0.0556641,-14.5121956,-9.1463413,-0.2439024,-0.0473335
724,-0.9833984,0.2172852,0.0551758,-13.5365858,-9.4512196,0,-0.0493477
725,-0.9765625,0.2280273,0.0595703,-13.6585369,-9.4512196,-0.2439024,-0.0459907
726,-0.9736328,0.2382812,0.0522461,-14.0243902,-9.6951218,0.0609756,-0.0439765
727,-0.9731445,0.2353516,0.0527344,-14.2682934,-9.5121956,0.2439024,-0.0433051
728,-0.9785156,0.2280273,0.0473633,-15.060976,-9.0243902,0.6097561,-0.0466621
729,-0.9760742,0.2260742,0.0429688,-15,-8.719512,0.7317073,-0.0473335
730,-0.9790039,0.2265625,0.0498047,-15.6097565,-9.0243902,1.2804878,-0.0473335
731,-0.9780273,0.2255859,0.0561523,-15.6707325,-9.0243902,1.2804878,-0.0439765
732,-0.9785156,0.2275391,0.0610352,-15.3658543,-8.9634151,1.1585366,-0.0446479
733,-0.9780273,0.2314453,0.0610352,-15.060976,-8.719512,1.0365853,-0.042298
734,-0.9824219,0.2397461,0.0585938,-14.3292685,-8.9634151,0.4878049,-0.0399481
735,-0.9829102,0.246582,0.0517578,-13.841464,-8.841464,0.1219512,-0.0399481
736,-0.987793,0.2539062,0.0551758,-13.7195129,-8.9634151,0.0609756,-0.0399481
737,-0.9838867,0.2646484,0.0576172,-14.5121956,-8.780488,0.0609756,-0.0406195
738,-0.9765625,0.2695312,0.0629883,-15.1219511,-9.0243902,-0.0609756,-0.0433051
739,-0.9794922,0.2675781,0.065918,-16.7073174,-8.9024391,-0.4878049,-0.0446479
740,-0.9746094,0.2631836,0.0688477,-17.3780499,-8.719512,-0.3658537,-0.0446479
741,-0.96875,0.2543945,0.0703125,-18.780489,-7.9878049,-0.4878049,-0.0433051
742,-0.9658203,0.25,0.0732422,-19.4512196,-7.9268293,-0.6097561,-0.0419623
743,-0.9707031,0.2412109,0.0820312,-20.5487804,-7.3780489,-0.4268293,-0.0379339
744,-0.96875,0.2324219,0.0834961,-20.4878044,-7.1951222,-0.7317073,-0.0406195
745,-0.9697266,0.2275391,0.0864258,-19.6341476,-7.0121951,-0.4268293,-0.0399481
746,-0.9667969,0.2255859,0.0732422,-18.8414631,-7.0731707,-0.6097561,-0.0379339
747,-0.9755859,0.2280273,0.0654297,-18.4756107,-7.1341467,-0.6097561,-0.0379339
748,-0.9736328,0.2304688,0.0585938,-18.1097565,-6.7073174,-0.3048781,-0.0392767
749,-0.9726562,0.2382812,0.0576172,-18.5365849,-6.6463418,-0.4268293,-0.0409552
750,-0.9785156,0.2446289,0.0571289,-18.780489,-6.3414636,-0.6097561,-0.0459907
751,-0.9824219,0.2441406,0.0571289,-18.9024391,-6.5243902,-0.6097561,-0.0466621
752,-0.9848633,0.2397461,0.0483398,-19.6951218,-6.0975609,-0.4878049,-0.056733
753,-0.980957,0.2353516,0.0380859,-19.8780499,-6.280488,-0.3658537,-0.0923171
754,-0.9824219,0.2294922,0.0234375,-20.4268303,-6.280488,-0.1219512,-0.109102
755,-0.9829102,0.2275391,0.0185547,-20.4878044,-6.4634147,-0.1219512,-0.102388
756,-0.9794922,0.2207031,0.0273438,-20.1829281,-6.4634147,0.4268293,-0.087953
757,-0.9726562,0.2182617,0.0395508,-19.939024,-6.890244,0.6097561,-0.0661326
758,-0.9716797,0.2148438,0.0419922,-19.3902435,-7.0121951,0.3048781,-0.0419623
759,-0.9750977,0.2158203,0.0463867,-18.7195129,-7.3780489,0.2439024,-0.024506
760,-0.9741211,0.2172852,0.043457,-18.5365849,-7.3170733,0.2439024,-0.017792
761,-0.9824219,0.2226562,0.0424805,-18.3536587,-6.9512196,0.6097561,-0.0137636
762,-0.9833984,0.2246094,0.0454102,-18.5365849,-7.1951222,0.8536586,-0.014435
763,-0.9946289,0.2250977,0.0507812,-18.2317085,-7.1951222,1.402439,-0.0204776
764,-0.9975586,0.2236328,0.0498047,-18.4756107,-7.4390244,1.402439,-0.024506
765,-0.9956055,0.2216797,0.0541992,-18.2926826,-7.5609756,1.8292683,-0.0298772
766,-0.9990234,0.2270508,0.0541992,-17.9268303,-7.7439027,1.8292683,-0.0298772
767,-0.9921875,0.2270508,0.0532227,-17.8658543,-8.1097565,1.6463414,-0.0325628
768,-0.9921875,0.2299805,0.0551758,-18.2317085,-8.2926826,1.8292683,-0.0352483
769,-0.9907227,0.2290039,0.0561523,-18.1097565,-8.4146347,1.6463414,-0.0547189
770,-0.9873047,0.2241211,0.0566406,-18.4756107,-8.2926826,1.7073171,-0.0654612
771,-0.9873047,0.2207031,0.0581055,-18.2926826,-8.2317076,1.6463414,-0.063447
772,-0.984375,0.2192383,0.0576172,-18.2317085,-8.2317076,1.9512196,-0.0580758
773,-0.9838867,0.2177734,0.0654297,-18.2317085,-8.1707315,1.7682927,-0.0433051
774,-0.9838867,0.2207031,0.0732422,-17.3170738,-8.0487804,1.9512196,-0.0285344
775,-0.9829102,0.2202148,0.0766602,-16.8292694,-8.2317076,2.2560976,-0.024506
776,-0.9824219,0.2202148,0.0742188,-15.4878054,-8.0487804,2.3170731,-0.0231632
777,-0.9838867,0.2216797,0.0703125,-14.9390249,-8.0487804,2.0121951,-0.0261845
778,-0.9848633,0.2319336,0.0556641,-14.6951227,-8.2317076,2.195122,-0.027863
779,-0.9838867,0.237793,0.0561523,-14.9390249,-7.7439027,2.1341465,-0.0292058
780,-0.9853516,0.2451172,0.0556641,-14.7560978,-7.5,1.9512196,-0.0325628
781,-0.9853516,0.2573242,0.0585938,-15.6097565,-7.5,1.5243902,-0.0352483
782,-0.9853516,0.2578125,0.0576172,-15.7926836,-7.4390244,1.3414634,-0.0409552
783,-0.9912109,0.2563477,0.0610352,-16.4024391,-7.1951222,0.9756098,-0.0449836
784,-0.9941406,0.2553711,0.0615234,-17.0731716,-7.0731707,1.097561,-0.0446479
785,-0.9985352,0.2548828,0.0610352,-17.8658543,-7.0121951,0.9756098,-0.0459907
786,-1.0014648,0.253418,0.0629883,-18.6585369,-6.890244,1.2804878,-0.0486763
787,-0.9995117,0.2412109,0.0610352,-19.1463413,-6.8292685,1.7073171,-0.0486763
788,-1.0004883,0.2348633,0.059082,-19.2073174,-7.8048782,1.9512196,-0.0439765
789,-0.9853516,0.222168,0.059082,-19.3292694,-7.6829271,2.195122,-0.0446479
790,-0.9736328,0.2075195,0.0566406,-19.4512196,-7.9878049,2.195122,-0.0406195
791,-0.9682617,0.2045898,0.0585938,-19.1463413,-7.9268293,2.0731707,-0.0379339
792,-0.9658203,0.1987305,0.0644531,-18.4756107,-7.6219516,2.0121951,-0.0369268
793,-0.9692383,0.1953125,0.0664062,-18.1707325,-7.5,2.195122,-0.0365911
794,-0.9775391,0.2011719,0.0576172,-16.8902435,-7.4390244,2.4390244,-0.0386053
795,-0.9853516,0.2050781,0.050293,-16.5243912,-7.3170733,2.4390244,-0.0392767
796,-0.9916992,0.2119141,0.0395508,-16.0365849,-7.2560978,3.4756098,-0.0439765
797,-0.9931641,0.2163086,0.0385742,-16.4024391,-7.4390244,3.9024391,-0.0419623
798,-1.0009766,0.2250977,0.0415039,-15.9146347,-8.1097565,3.9634147,-0.0412909
799,-1.0019531,0.2285156,0.0429688,-15.5487804,-8.6585369,3.9634147,-0.0459907
800,-1,0.2353516,0.0478516,-15.5487804,-9.1463413,4.1463413,-0.0433051
801,-0.9985352,0.2348633,0.0454102,-15.6097565,-9.8170738,3.6585367,-0.0419623
802,-0.9956055,0.2319336,0.0463867,-15.4878054,-10,3.2926829,-0.0406195
803,-0.9853516,0.2329102,0.0546875,-15.8536587,-10.1829271,3.3536587,-0.0392767
804,-0.9794922,0.2294922,0.0600586,-16.3414631,-10.2439022,3.2317073,-0.0372625
805,-0.972168,0.2304688,0.0683594,-15.7926836,-10.3048782,3.2317073,-0.0396124
806,-0.9663086,0.2304688,0.0727539,-15.5487804,-10.4268293,3.3536587,-0.0466621
807,-0.9575195,0.2275391,0.0683594,-15.3048782,-10.3048782,3.5365853,-0.0480049
808,-0.9506836,0.2250977,0.0708008,-15.1829271,-10.3048782,3.7804878,-0.0513619
809,-0.9433594,0.2246094,0.0727539,-15.3658543,-10.1219511,4.0243902,-0.0527047
810,-0.9394531,0.2285156,0.0771484,-15.7317076,-9.8170738,3.9024391,-0.0580758
811,-0.9306641,0.2333984,0.0786133,-16.1585369,-9.3902445,3.7804878,-0.0715038
812,-0.934082,0.2368164,0.0786133,-16.8902435,-8.4146347,3.5975611,-0.0825818
813,-0.9389648,0.2368164,0.0771484,-17.3170738,-8.1707315,3.5365853,-0.0842603
814,-0.9501953,0.2412109,0.0703125,-16.9512196,-7.6219516,3.7804878,-0.0835889
815,-0.9633789,0.2441406,0.0664062,-17.1951218,-7.5,3.7804878,-0.076875
816,-0.9790039,0.246582,0.0541992,-17.8048782,-6.9512196,3.9634147,-0.0691539
817,-0.9892578,0.2456055,0.0512695,-18.2317085,-6.8292685,4.1463413,-0.0661326
818,-1.0053711,0.237793,0.0488281,-18.2926826,-7.1341467,4.5731707,-0.0607614
819,-1.0048828,0.2353516,0.0478516,-18.4756107,-7.3170733,4.5121951,-0.0500191
820,-1.0078125,0.2324219,0.0507812,-18.2926826,-8.2317076,4.1463413,-0.0513619
821,-1.0009766,0.2314453,0.0561523,-17.6829281,-9.3292685,3.2926829,-0.0406195
822,-0.9980469,0.2211914,0.0610352,-17.439024,-9.5121956,3.0487804,-0.0352483
823,-0.9804688,0.21875,0.0541992,-16.280489,-10.2439022,2.5,-0.0359197
824,-0.9746094,0.2192383,0.0493164,-16.1585369,-10.7317076,2.5,-0.03122
825,-0.9633789,0.2211914,0.0400391,-15.7317076,-10.8536587,2.8658538,-0.0305486
826,-0.9638672,0.2211914,0.0424805,-15.6097565,-10.4268293,2.9878049,-0.0365911
827,-0.9580078,0.2241211,0.0429688,-15.6707325,-10.2439022,3.4756098,-0.0325628
828,-0.9570312,0.2270508,0.0444336,-15.6097565,-10.060976,3.5975611,-0.03122
829,-0.9580078,0.2270508,0.0449219,-15.8536587,-10.1219511,3.8414636,-0.0332341
830,-0.9599609,0.2324219,0.0449219,-15.7317076,-9.7560978,4.0853658,-0.0325628
831,-0.9682617,0.2324219,0.0483398,-16.0365849,-9.6341467,3.8414636,-0.0339055
832,-0.9741211,0.2329102,0.0463867,-16.6463413,-9.5121956,4.1463413,-0.0328985
833,-0.9868164,0.2392578,0.0473633,-16.5243912,-9.5731707,4.2682929,-0.0342412
834,-1.0009766,0.2407227,0.0454102,-17.0121956,-9.8780489,4.390244,-0.03122
835,-1.0039062,0.2412109,0.0463867,-17.5,-10.1829271,4.4512196,-0.0285344
836,-1.0009766,0.2368164,0.043457,-17.439024,-10.6097565,4.1463413,-0.027863
837,-0.9995117,0.237793,0.0405273,-17.1951218,-10.9756098,4.0243902,-0.0288701
838,-0.9946289,0.230957,0.0410156,-17.1951218,-11.7073174,3.8414636,-0.0265202
839,-0.9873047,0.2255859,0.046875,-16.7073174,-12.0731707,3.9024391,-0.0234989
840,-0.9804688,0.2241211,0.059082,-16.5243912,-12.5,3.6585367,-0.0298772
841,-0.9726562,0.2202148,0.0595703,-16.0975609,-12.6219511,3.6585367,-0.0325628
842,-0.9633789,0.2226562,0.0620117,-15.4878054,-12.3780489,3.4756098,-0.0325628
843,-0.9570312,0.2241211,0.0644531,-14.9390249,-12.2560978,3.6585367,-0.0365911
844,-0.9501953,0.2294922,0.065918,-14.8780489,-12.2560978,3.6585367,-0.0382696
845,-0.956543,0.230957,0.0620117,-14.6951227,-11.6463413,4.0853658,-0.0372625
846,-0.9560547,0.2329102,0.0600586,-15,-11.5243902,3.8414636,-0.0392767
847,-0.9667969,0.2363281,0.0605469,-15.3658543,-11.1585369,4.6951222,-0.0406195
848,-0.9658203,0.2392578,0.0629883,-15.4268293,-11.1585369,4.6951222,-0.0412909
849,-0.9648438,0.2416992,0.0639648,-15.5487804,-11.341464,4.8780489,-0.0406195
850,-0.965332,0.2382812,0.0664062,-15.7317076,-11.5243902,5,-0.0412909
851,-0.9545898,0.2304688,0.0678711,-16.4024391,-11.7073174,4.5731707,-0.0412909
852,-0.9516602,0.2255859,0.0639648,-16.5243912,-11.5853662,4.6341462,-0.0382696
853,-0.9428711,0.2192383,0.0610352,-17.0121956,-11.5243902,4.7560978,-0.0406195
854,-0.9443359,0.2143555,0.065918,-16.8902435,-10.7317076,4.8780489,-0.0412909
855,-0.9443359,0.2133789,0.0639648,-16.5853653,-10.7317076,4.8780489,-0.0406195
856,-0.9516602,0.2148438,0.0605469,-16.4024391,-10.6707315,5.4878049,-0.0399481
857,-0.9487305,0.2128906,0.0576172,-16.2195129,-10.7926836,5.7926831,-0.0453193
858,-0.9448242,0.2133789,0.0395508,-16.7073174,-10.7926836,6.280488,-0.0453193
859,-0.9423828,0.2114258,0.0356445,-16.5853653,-10.3048782,6.0975609,-0.0433051
860,-0.9506836,0.2182617,0.0327148,-16.4024391,-10.060976,6.3414636,-0.0453193
861,-0.9487305,0.21875,0.0390625,-16.1585369,-10.1829271,6.2195125,-0.0459907
862,-0.9550781,0.2250977,0.0473633,-15.9146347,-10.1219511,6.0365853,-0.0480049
863,-0.9628906,0.2231445,0.0473633,-15.6097565,-10,6.0975609,-0.0459907
864,-0.9785156,0.2290039,0.0488281,-15.1829271,-10.3658543,6.1585369,-0.0433051
865,-0.9863281,0.2304688,0.0444336,-15.060976,-10.5487804,6.3414636,-0.0426337
866,-0.9873047,0.2329102,0.0385742,-14.6341467,-10.5487804,6.2195125,-0.0433051
867,-0.9916992,0.2270508,0.0375977,-14.2073174,-11.7073174,6.0365853,-0.0439765
868,-0.9873047,0.2299805,0.0400391,-14.3292685,-12.0731707,6.0975609,-0.0446479
869,-0.972168,0.2207031,0.0419922,-14.0243902,-12.9878054,6.1585369,-0.0446479
870,-0.9711914,0.2182617,0.0454102,-13.780488,-13.2317076,5.7317076,-0.0446479
871,-0.9589844,0.2177734,0.0600586,-12.7439032,-12.9268293,5.1829271,-0.0473335
872,-0.953125,0.2177734,0.0683594,-12.1951218,-12.8048782,5.0609756,-0.049012
873,-0.9560547,0.2260742,0.0566406,-10.4878054,-13.1707315,4.4512196,-0.0459907
874,-0.9594727,0.2358398,0.0473633,-10,-13.3536587,5,-0.0466621
875,-0.9682617,0.2504883,0.0371094,-8.9024391,-12.7439032,5.0609756,-0.0473335
876,-0.9770508,0.2587891,0.0380859,-7.8658538,-12.4390249,5.609756,-0.0486763
877,-0.9882812,0.277832,0.0380859,-8.3536587,-12.6219511,5.4878049,-0.0493477
878,-1.0014648,0.2832031,0.0327148,-10.3658543,-12.9268293,5.7317076,-0.0480049
879,-1.0039062,0.2875977,0.0351562,-11.1585369,-12.9268293,5.5487804,-0.0486763
880,-1.0102539,0.2792969,0.0410156,-12.6829271,-13.3536587,5.3658538,-0.0520333
881,-1.0083008,0.2749023,0.0449219,-13.2926836,-13.7195129,5.2439027,-0.0513619
882,-0.996582,0.262207,0.0458984,-14.2073174,-14.2682934,5.1219511,-0.0486763
883,-0.9873047,0.2607422,0.046875,-14.2073174,-14.5121956,4.7560978,-0.0493477
884,-0.972168,0.2456055,0.0576172,-14.3292685,-14.2682934,4.2073174,-0.0506905
885,-0.9702148,0.2402344,0.0625,-14.2073174,-14.1463413,4.3292685,-0.049012
886,-0.9658203,0.2275391,0.0673828,-14.4512196,-13.780488,4.5731707,-0.0466621
887,-0.9594727,0.2241211,0.0708008,-14.0243902,-13.1097565,5,-0.0453193
888,-0.9619141,0.2202148,0.0786133,-14.0853662,-12.7439032,5.3048782,-0.0459907
889,-0.9599609,0.2216797,0.0825195,-13.780488,-12.0731707,5.9146342,-0.0473335
890,-0.9545898,0.2192383,0.0878906,-13.3536587,-12.0731707,6.0975609,-0.0419623
891,-0.9443359,0.2226562,0.0932617,-12.560976,-11.5243902,5.609756,-0.0433051
892,-0.9423828,0.2280273,0.09375,-12.5,-11.341464,5.5487804,-0.0433051
893,-0.9321289,0.2324219,0.0922852,-11.6463413,-10.6097565,5.3048782,-0.0446479
894,-0.9267578,0.237793,0.0932617,-11.1585369,-10.3048782,4.8170733,-0.0513619
895,-0.921875,0.2509766,0.0908203,-10.4268293,-9.7560978,4.2073174,-0.0506905
896,-0.9194336,0.2602539,0.0805664,-10.2439022,-9.3902445,4.1463413,-0.0513619
897,-0.9238281,0.2753906,0.0644531,-10.4878054,-8.4756098,3.9634147,-0.06009
898,-0.9204102,0.2792969,0.0581055,-11.5853662,-7.5609756,4.0243902,-0.0624399
899,-0.9199219,0.2895508,0.0556641,-12.2560978,-7.1951222,3.9634147,-0.0849317
900,-0.9296875,0.293457,0.050293,-14.4512196,-5.9146342,3.5975611,-0.1641566
901,-0.9301758,0.2958984,0.0473633,-15.6097565,-5.4878049,3.9024391,-0.2151827
902,-0.9423828,0.2910156,0.0419922,-18.1707325,-4.5731707,3.8414636,-0.2017548
903,-0.9467773,0.2871094,0.0390625,-19.3292694,-3.9024391,3.4756098,-0.1621424
904,-0.9545898,0.2744141,0.0371094,-20.9756107,-3.4146342,3.5365853,-0.1104448
905,-0.9599609,0.2705078,0.0415039,-21.4634151,-3.1097562,3.2317073,-0.0654612
906,-0.9555664,0.2495117,0.0439453,-22.1951218,-3.4756098,2.6829269,-0.0359197
907,-0.9555664,0.2397461,0.0498047,-22.0731716,-3.5365853,2.2560976,-0.017792
908,-0.9438477,0.230957,0.0639648,-21.0365868,-3.9634147,1.402439,-0.0151064
909,-0.9375,0.2270508,0.0732422,-19.5731716,-3.6585367,0.3048781,-0.0151064
910,-0.9399414,0.2290039,0.0737305,-18.3536587,-3.6585367,0.1219512,-0.0097353
911,-0.9453125,0.246582,0.0761719,-16.7073174,-3.2926829,0,-0.0043641
912,-0.9462891,0.2558594,0.0688477,-15.7317076,-3.1707318,0,-0.0036927
913,-0.9663086,0.2724609,0.0546875,-15.1829271,-2.9268293,0.4878049,0.0016785
914,-0.965332,0.28125,0.0493164,-15.7926836,-2.6219513,0.6707317,0.0023499
915,-0.9824219,0.2949219,0.0371094,-17.8658543,-2.0731707,1.6463414,-0.0016785
916,-0.9892578,0.2929688,0.034668,-19.3292694,-1.5243902,1.9512196,0.0023499
917,-0.9985352,0.2856445,0.0395508,-21.8902435,-1.402439,2.195122,0.0016785
918,-0.9975586,0.2768555,0.0415039,-23.0487804,-1.4634147,2.0121951,0.0010071
919,-1.0004883,0.2514648,0.0522461,-24.4512196,-1.5853659,1.7682927,0.0016785
920,-0.9995117,0.2250977,0.0585938,-25.1219521,-1.7682927,1.1585366,-0.0050355
921,-0.9980469,0.2172852,0.0556641,-25,-2.0731707,0.9756098,-0.0057069
922,-0.9916992,0.1938477,0.0561523,-23.2317085,-2.195122,1.3414634,-0.0030213
923,-0.9804688,0.1904297,0.0595703,-21.5243912,-2.6219513,1.5853659,-0.0030213
924,-0.965332,0.1928711,0.0571289,-19.3902435,-3.4146342,1.4634147,-0.0043641
925,-0.9575195,0.1918945,0.0683594,-18.1097565,-3.6585367,1.6463414,-0.0016785
926,-0.9438477,0.1958008,0.0756836,-16.0365849,-3.1707318,1.7682927,-0.0057069
927,-0.9414062,0.2006836,0.0708008,-15.3048782,-3.1097562,1.7073171,-0.0057069
928,-0.9326172,0.2172852,0.0751953,-14.0853662,-2.7439024,1.8292683,-0.0077211
929,-0.9355469,0.2280273,0.0771484,-13.9634151,-2.195122,2.3170731,-0.0137636
930,-0.9467773,0.2421875,0.0722656,-14.5731707,-1.2195122,2.6829269,-0.0218204
931,-0.9589844,0.246582,0.0605469,-15.5487804,-0.4268293,3.1707318,-0.0271916
932,-0.9667969,0.2539062,0.0527344,-15.8536587,-0.3658537,3.3536587,-0.0325628
933,-0.9814453,0.2475586,0.0537109,-16.5853653,-0.1219512,4.0243902,-0.0379339
934,-0.9868164,0.2509766,0.0473633,-16.9512196,0.0609756,4.0243902,-0.0379339
935,-0.9975586,0.2480469,0.0424805,-17.9878044,-0.2439024,4.0853658,-0.0379339
936,-1,0.2446289,0.0385742,-17.9268303,-0.1829268,4.0243902,-0.0412909
937,-0.9985352,0.234375,0.0390625,-18.6585369,-0.4878049,3.2926829,-0.0453193
938,-1.0029297,0.2338867,0.0419922,-18.9634151,-0.2439024,3.0487804,-0.0399481
939,-1.0043945,0.2314453,0.050293,-19.1463413,-0.1829268,2.804878,-0.0392767
940,-1.0053711,0.2231445,0.0537109,-18.5975609,-0.5487805,2.195122,-0.0419623
941,-1.0048828,0.2138672,0.0776367,-17.1341476,-1.097561,2.3780489,-0.0463264
942,-1.003418,0.2026367,0.0898438,-15.4878054,-2.195122,2.4390244,-0.0473335
943,-1.0009766,0.1962891,0.1005859,-14.2073174,-2.0731707,2.4390244,-0.0493477
944,-1,0.2036133,0.1108398,-11.280488,-2.6219513,3.1707318,-0.0547189
945,-1.0039062,0.2016602,0.1103516,-9.5121956,-2.9878049,3.3536587,-0.0651255
946,-1.0107422,0.2094727,0.0776367,-6.7682929,-3.5975611,4.5731707,-0.0718395
947,-1.0136719,0.2104492,0.0566406,-5.9756098,-3.7804878,5.1829271,-0.0772107
948,-1.0200195,0.21875,0.03125,-3.9024391,-4.4512196,6.1585369,-0.0782177
949,-1.0180664,0.2255859,0.0229492,-3.5365853,-4.5121951,6.2195125,-0.076875
950,-1.0136719,0.237793,0.0092773,-2.9268293,-5.7926831,6.0975609,-0.0721752
951,-1.019043,0.2456055,0.0087891,-2.9878049,-5.9756098,5.5487804,-0.066804
952,-1.0175781,0.2563477,0.0234375,-2.6219513,-6.3414636,5.0609756,-0.063447
953,-1.0351562,0.2802734,0.0512695,-1.402439,-6.9512196,4.1463413,-0.0574044
954,-1.0371094,0.2885742,0.0605469,-0.6707317,-7.6829271,4.0853658,-0.0594186
955,-1.0473633,0.3173828,0.0673828,-0.1219512,-8.3536587,4.2073174,-0.0574044
956,-1.0517578,0.3295898,0.0644531,-0.2439024,-8.9024391,4.4512196,-0.0574044
957,-1.0463867,0.3554688,0.0556641,-1.5853659,-9.3902445,4.6341462,-0.0540475
958,-1.0439453,0.3642578,0.0463867,-3.2926829,-9.4512196,5,-0.0500191
959,-1.0400391,0.3725586,0.0351562,-7.1951222,-9.5121956,5.4268293,-0.0500191
960,-1.0375977,0.3696289,0.0380859,-9.5731707,-9.2682924,5.4268293,-0.0486763
961,-1.0292969,0.3520508,0.050293,-14.5121956,-8.841464,5.4878049,-0.0459907
962,-1.0244141,0.3398438,0.0585938,-19.0853672,-7.8658538,5.5487804,-0.0486763
963,-1.0107422,0.3046875,0.0859375,-20.7317085,-7.6829271,5.7926831,-0.0459907
964,-1.0097656,0.2626953,0.1137695,-22.5,-7.0731707,6.0975609,-0.0466621
965,-1.0083008,0.2431641,0.1269531,-22.3780499,-7.0121951,6.5243902,-0.0439765
966,-1.0014648,0.2099609,0.1420898,-20.7926826,-6.6463418,7.1951222,-0.0419623
967,-0.9995117,0.2006836,0.1489258,-19.5731716,-6.7073174,7.0731707,-0.0433051
968,-0.9873047,0.1938477,0.1567383,-16.5243912,-6.5243902,8.0487804,-0.0459907
969,-0.9819336,0.1958008,0.1533203,-15.3658543,-6.5853658,7.9878049,-0.0433051
970,-0.9765625,0.2163086,0.1396484,-13.1707315,-6.0365853,8.6585369,-0.0463264
971,-0.9702148,0.2294922,0.1357422,-12.0121956,-5.7926831,9.0853662,-0.0433051
972,-0.9638672,0.2539062,0.1201172,-11.9512196,-5.0609756,9.6951218,-0.0419623
973,-0.9624023,0.2651367,0.1123047,-13.4146347,-3.9024391,10,-0.0446479
974,-0.9619141,0.2875977,0.0996094,-14.3292685,-3.4146342,10.060976,-0.0486763
975,-0.9672852,0.300293,0.0898438,-16.5243912,-2.0731707,10,-0.0493477
976,-0.9648438,0.309082,0.0927734,-17.8048782,-1.7073171,9.8780489,-0.0473335
977,-0.965332,0.3237305,0.0942383,-20.1219521,-1.2804878,9.5731707,-0.0486763
978,-0.9648438,0.3237305,0.0957031,-21.5243912,-0.8536586,9.5731707,-0.0503548
979,-0.9658203,0.3193359,0.0957031,-23.6585369,-0.3048781,9.2682924,-0.0513619
980,-0.9672852,0.3183594,0.0947266,-24.2073174,-0.2439024,9.4512196,-0.0506905
981,-0.9746094,0.3085938,0.0864258,-25.4268303,0.1219512,9.5731707,-0.0486763
982,-0.9750977,0.3056641,0.081543,-26.4024391,0,9.8170738,-0.0439765
983,-0.9770508,0.2993164,0.0771484,-27.0731716,0.0609756,9.8170738,-0.0513619
984,-0.9794922,0.2939453,0.0761719,-27.6219521,0,10.060976,-0.0533761
985,-0.9829102,0.2797852,0.0795898,-27.7439022,-0.2439024,10.060976,-0.0540475
986,-0.984375,0.262207,0.0805664,-27.0121956,-1.097561,10,-0.073518
987,-0.9794922,0.2597656,0.0839844,-26.3414631,-1.2804878,10,-0.0929885
988,-0.9790039,0.2485352,0.0864258,-24.2073174,-2.3170731,9.4512196,-0.0956741
989,-0.9770508,0.2431641,0.0898438,-22.9878063,-2.6219513,9.2073174,-0.0876173
990,-0.9814453,0.2387695,0.0864258,-20.3048782,-4.1463413,9.0243902,-0.0674754
991,-0.9814453,0.2358398,0.0859375,-18.5975609,-4.7560978,9.2682924,-0.0513619
992,-0.9780273,0.2299805,0.0722656,-15.2439032,-6.6463418,9.3902445,-0.0439765
993,-0.9760742,0.2290039,0.0605469,-13.6585369,-7.4390244,9.4512196,-0.0352483
994,-0.9672852,0.2241211,0.050293,-11.280488,-8.4756098,9.5731707,-0.0399481
995,-0.9614258,0.2197266,0.0493164,-8.1707315,-10.1829271,10.1219511,-0.0419623
996,-0.9580078,0.2148438,0.0473633,-6.3414636,-11.0365858,9.8780489,-0.0446479
997,-0.9516602,0.2172852,0.0546875,-1.7682927,-12.4390249,10.1219511,-0.0486763
998,-0.9511719,0.2211914,0.0610352,0.3048781,-13.2926836,9.8780489,-0.0493477
999,-0.953125,0.2441406,0.0571289,3.8414636,-14.6341467,9.6341467,-0.0513619
1000,-0.9536133,0.2602539,0.0458984,5,-15.5487804,9.5731707,-0.0459907
1001,-0.949707,0.2919922,0.019043,6.5243902,-16.5853653,9.5121956,-0.0473335
1002,-0.9467773,0.309082,0.0107422,6.3414636,-17.1951218,9.2682924,-0.0463264
1003,-0.9472656,0.3334961,-0.0083008,5,-17.3170738,8.6585369,-0.0459907
1004,-0.9418945,0.3486328,-0.0107422,3.3536587,-17.0121956,8.5365858,-0.0493477
1005,-0.9443359,0.3671875,0.0092773,-0.0609756,-16.3414631,7.8658538,-0.0527047
1006,-0.9458008,0.3720703,0.0244141,-3.7804878,-16.0365849,7.3170733,-0.0547189
1007,-0.9482422,0.375,0.0463867,-5.7926831,-15.9756098,7.3170733,-0.0533761
1008,-0.953125,0.3696289,0.0605469,-10.060976,-15.6097565,7.3170733,-0.056733
1009,-0.956543,0.3652344,0.0717773,-12.1951218,-15,7.3780489,-0.0694896
1010,-0.9638672,0.3603516,0.090332,-16.0365849,-14.2682934,7.7439027,-0.0822461
1011,-0.965332,0.3530273,0.0976562,-17.8658543,-13.9024391,8.2317076,-0.0815747
1012,-0.9731445,0.3286133,0.1083984,-20.9756107,-13.3536587,9.1463413,-0.0721752
1013,-0.972168,0.3129883,0.1142578,-22.3170738,-13.1707315,9.2682924,-0.0580758
1014,-0.9726562,0.2836914,0.1181641,-24.3292694,-12.7439032,10.1219511,-0.0459907
1015,-0.9716797,0.2636719,0.1186523,-24.6951218,-12.1951218,10.1219511,-0.0332341
1016,-0.9736328,0.2353516,0.121582,-25.2439022,-12.2560978,10.6707315,-0.0218204
1017,-0.9716797,0.2275391,0.1259766,-24.5121956,-11.4634151,10.9756098,-0.0204776
1018,-0.9765625,0.2202148,0.1342773,-23.4146347,-11.219512,10.7317076,-0.0224918
1019,-0.9726562,0.2250977,0.1386719,-21.0365868,-11.0975609,10.7926836,-0.024506
1020,-0.9770508,0.2382812,0.137207,-19.5121956,-10.8536587,10.7926836,-0.0204776
1021,-0.9785156,0.2602539,0.1254883,-17.439024,-11.4024391,11.0975609,-0.0181277
1022,-0.9814453,0.2749023,0.1103516,-16.4634151,-11.280488,11.0975609,-0.0137636
1023,-0.9760742,0.3051758,0.0825195,-16.5243912,-11.219512,11.5853662,-0.0137636
1024,-0.9750977,0.3188477,0.0751953,-16.8292694,-11.1585369,11.6463413,-0.0114137
1025,-0.9741211,0.3344727,0.0585938,-18.1707325,-10.8536587,11.7682934,-0.0104067
1026,-0.9741211,0.3374023,0.0498047,-19.3902435,-11.0365858,11.8292685,-0.0070497
1027,-0.9716797,0.3359375,0.0371094,-21.280489,-11.0975609,11.9512196,-0.011078
1028,-0.9677734,0.3354492,0.0283203,-23.780489,-11.341464,11.8292685,-0.0124208
1029,-0.9604492,0.3232422,0.0283203,-24.5731716,-11.219512,11.6463413,-0.0130922
1030,-0.9594727,0.3110352,0.034668,-26.2195129,-11.0365858,11.4024391,-0.0151064
1031,-0.9628906,0.3032227,0.0361328,-26.280489,-11.341464,10.9146347,-0.0137636
1032,-0.9604492,0.3007812,0.046875,-26.2195129,-11.7682934,10.3658543,-0.0097353
1033,-0.9643555,0.2963867,0.0527344,-25.9756107,-11.9512196,10.3048782,-0.0104067
1034,-0.9682617,0.2954102,0.0703125,-25,-12.3780489,9.8780489,-0.0151064
1035,-0.972168,0.2983398,0.0756836,-24.6341476,-12.560976,10,-0.0204776
1036,-0.9755859,0.2998047,0.0834961,-23.7195129,-13.4756098,10.060976,-0.027863
1037,-0.9707031,0.2973633,0.0834961,-23.2317085,-14.0853662,10,-0.0674754
1038,-0.9677734,0.2929688,0.0878906,-23.6585369,-14.6951227,10.1219511,-0.148043
1039,-0.9599609,0.2880859,0.0942383,-23.5365868,-15.2439032,10,-0.1722133
1040,-0.9526367,0.2788086,0.1054688,-23.2926826,-15.4878054,9.8170738,-0.1520714
1041,-0.9389648,0.2670898,0.109375,-21.8292694,-15.9146347,9.7560978,-0.1171588
1042,-0.9335938,0.2568359,0.1088867,-20.8536587,-16.0365849,9.5731707,-0.0741894
1043,-0.9238281,0.2583008,0.1069336,-18.8414631,-16.1585369,9.1463413,-0.0399481
1044,-0.9238281,0.2661133,0.1069336,-17.7439022,-16.4024391,9.2073174,-0.0171206
1045,-0.9179688,0.2802734,0.0922852,-15.9146347,-16.5243912,9.5121956,-0.0016785
1046,-0.9199219,0.2919922,0.0859375,-15.6097565,-16.5853653,9.5121956,0.0036927
1047,-0.9243164,0.309082,0.0708008,-15.7926836,-16.7073174,9.6951218,0.0050355
1048,-0.9277344,0.3115234,0.0703125,-16.280489,-16.6463413,10,0.0124208
1049,-0.9316406,0.315918,0.0825195,-17.5,-16.1585369,10.3048782,0.0104067
1050,-0.9301758,0.3168945,0.090332,-20.1219521,-15.9146347,10.7926836,0.0077211
1051,-0.9384766,0.3198242,0.0996094,-21.4024391,-15.4878054,10.4268293,0.0077211
1052,-0.9448242,0.3193359,0.1030273,-23.2926826,-14.8170738,10.060976,0.0036927
1053,-0.9526367,0.3183594,0.1074219,-23.9634151,-14.4512196,9.8170738,-0.0010071
1054,-0.9570312,0.3105469,0.1137695,-25.7317085,-14.2682934,9.7560978,-0.0090639
1055,-0.9624023,0.3017578,0.1142578,-26.2195129,-13.7195129,9.7560978,-0.011078
1056,-0.9667969,0.2890625,0.1166992,-26.7073174,-13.3536587,10.6097565,-0.0097353
1057,-0.9711914,0.2827148,0.1210938,-26.280489,-13.5975609,10.7317076,-0.0151064
1058,-0.9628906,0.2675781,0.1206055,-25.3658543,-13.5365858,11.5243902,-0.0208133
1059,-0.9594727,0.2597656,0.1137695,-25,-13.5365858,11.7073174,-0.0224918
1060,-0.949707,0.2563477,0.1054688,-24.5731716,-13.5975609,12.0121956,-0.0248417
1061,-0.9458008,0.2592773,0.1020508,-23.9634151,-13.2317076,12.2560978,-0.0285344
1062,-0.9394531,0.262207,0.1020508,-23.9024391,-13.0487804,12.560976,-0.0305486
1063,-0.9423828,0.2724609,0.1035156,-23.9024391,-12.4390249,12.1341467,-0.0271916
1064,-0.9482422,0.277832,0.1020508,-24.3902435,-12.4390249,12.0121956,-0.0292058
1065,-0.9609375,0.2817383,0.1015625,-24.4512196,-12.0731707,12.560976,-0.03122
1066,-0.9677734,0.2836914,0.1020508,-25,-12.0121956,13.1097565,-0.0379339
1067,-0.987793,0.2861328,0.090332,-25.1219521,-12.3170738,13.7195129,-0.0426337
1068,-1.0004883,0.284668,0.0874023,-24.8170738,-12.4390249,14.3902445,-0.0446479
1069,-1.0019531,0.2910156,0.0869141,-24.0243912,-13.2317076,15.1829271,-0.0446479
1070,-0.9995117,0.2949219,0.0825195,-23.1707325,-13.7195129,15.2439032,-0.0459907
1071,-0.9912109,0.3046875,0.0756836,-22.8658543,-14.5731707,15.3048782,-0.0439765
1072,-0.9873047,0.3056641,0.0693359,-22.8048782,-15.7926836,14.4512196,-0.0446479
1073,-0.9770508,0.3139648,0.0683594,-23.2317085,-15.7926836,13.9634151,-0.0500191
1074,-0.9663086,0.3178711,0.0766602,-24.0853672,-16.1585369,13.780488,-0.0493477
1075,-0.9638672,0.315918,0.0810547,-24.3292694,-16.1585369,13.4146347,-0.0459907
1076,-0.9609375,0.3115234,0.0893555,-24.8780499,-16.5853653,13.2926836,-0.0496834
1077,-0.9633789,0.3056641,0.0927734,-25,-16.7073174,13.841464,-0.0473335
1078,-0.9663086,0.2905273,0.1025391,-25.4268303,-16.7682934,14.4512196,-0.0486763
1079,-0.9633789,0.284668,0.1108398,-25,-16.9512196,14.6951227,-0.0493477
1080,-0.9648438,0.2744141,0.1186523,-23.1707325,-17.5,15.1829271,-0.0500191
1081,-0.9599609,0.2685547,0.1225586,-22.5,-17.7439022,15.060976,-0.0520333
1082,-0.9609375,0.2666016,0.1235352,-20.1829281,-18.4146347,14.8170738,-0.0520333
1083,-0.9536133,0.2827148,0.1206055,-17.9268303,-18.8414631,14.0853662,-0.0540475
1084,-0.9526367,0.2885742,0.1123047,-17.1341476,-19.2682934,13.3536587,-0.0527047
1085,-0.949707,0.3061523,0.1074219,-16.4024391,-19.2073174,12.5,-0.0527047
1086,-0.9443359,0.3129883,0.1083984,-15.9146347,-19.5731716,12.0121956,-0.0543832
1087,-0.9428711,0.3232422,0.1030273,-15.6707325,-19.6341476,10.7926836,-0.0594186
1088,-0.9433594,0.3261719,0.1044922,-15.4268293,-19.6341476,10.6097565,-0.0621042
1089,-0.9355469,0.3330078,0.0966797,-15.1219511,-19.939024,10.1219511,-0.063447
1090,-0.9331055,0.3398438,0.0966797,-15.2439032,-19.6341476,10,-0.063447
1091,-0.9335938,0.34375,0.0991211,-15.9756098,-19.8170738,9.1463413,-0.0647898
1092,-0.9321289,0.3461914,0.0986328,-16.5243912,-19.7560978,8.780488,-0.0664683
1093,-0.9316406,0.3408203,0.0957031,-17.3780499,-19.7560978,8.0487804,-0.0691539
1094,-0.9243164,0.3349609,0.0908203,-18.1707325,-19.939024,7.5609756,-0.0674754
1095,-0.9223633,0.3295898,0.0888672,-18.1707325,-20,6.9512196,-0.0647898
1096,-0.9145508,0.3276367,0.0898438,-17.7439022,-20.1219521,5.9756098,-0.0647898
1097,-0.9155273,0.3266602,0.0957031,-17.5,-20.1829281,5.3048782,-0.0647898
1098,-0.9125977,0.3251953,0.1010742,-16.4024391,-20.6097565,3.8414636,-0.0594186
1099,-0.9135742,0.3266602,0.1020508,-16.2195129,-20.6707325,3.2926829,-0.0584115
1100,-0.9155273,0.3271484,0.1005859,-14.7560978,-21.3414631,2.8658538,-0.06009
1101,-0.9165039,0.3320312,0.1010742,-14.4512196,-21.0975609,2.6219513,-0.0594186
1102,-0.9174805,0.3417969,0.0957031,-14.5121956,-21.280489,2.4390244,-0.0560616
1103,-0.921875,0.347168,0.0976562,-14.4512196,-21.1585369,2.4390244,-0.0557259
1104,-0.9267578,0.3618164,0.0908203,-15.5487804,-21.0365868,1.9512196,-0.0580758
1105,-0.9301758,0.3647461,0.0874023,-17.560976,-20.7926826,2.0731707,-0.056733
1106,-0.9296875,0.3608398,0.0883789,-18.6585369,-20.9756107,1.9512196,-0.0540475
1107,-0.9370117,0.3427734,0.0957031,-21.5243912,-20.7317085,1.2195122,-0.0533761
1108,-0.9375,0.3300781,0.0986328,-22.3780499,-20.7926826,1.097561,-0.0513619
1109,-0.9331055,0.2949219,0.0986328,-22.8658543,-20.9756107,0.9756098,-0.0473335
1110,-0.9345703,0.2788086,0.0996094,-22.9268303,-20.9756107,1.2804878,-0.0473335
1111,-0.9345703,0.2539062,0.1088867,-21.2195129,-20.8536587,2.0121951,-0.0459907
1112,-0.934082,0.2470703,0.112793,-20.3658543,-21.0975609,1.9512196,-0.0419623
1113,-0.9355469,0.2504883,0.1025391,-18.3536587,-20.8536587,2.3780489,-0.0412909
1114,-0.9350586,0.2568359,0.1010742,-17.6219521,-20.9146347,2.5,-0.0419623
1115,-0.9389648,0.2719727,0.1030273,-16.5853653,-20.6707325,2.5,-0.0439765
1116,-0.9394531,0.2910156,0.0942383,-17.0121956,-20.1829281,2.2560976,-0.0433051
1117,-0.9506836,0.2963867,0.0942383,-17.3170738,-20.1219521,2.195122,-0.0453193
1118,-0.9580078,0.3007812,0.1005859,-18.780489,-20,2.4390244,-0.0493477
1119,-0.9580078,0.2993164,0.097168,-19.6951218,-19.6341476,2.6829269,-0.0493477
1120,-0.9638672,0.2895508,0.1103516,-21.2195129,-19.5731716,3.4146342,-0.0486763
1121,-0.9614258,0.2851562,0.1196289,-21.7682934,-19.2073174,3.6585367,-0.0527047
1122,-0.9707031,0.2788086,0.1376953,-22.0731716,-19.0243912,4.0243902,-0.0513619
1123,-0.9707031,0.2744141,0.140625,-21.7073174,-19.2073174,4.2682929,-0.0493477
1124,-0.9775391,0.2724609,0.1323242,-20.7926826,-19.3292694,5.1219511,-0.0486763
1125,-0.9794922,0.2724609,0.125,-20.060976,-19.5731716,5.2439027,-0.0503548
1126,-0.9868164,0.2792969,0.1118164,-18.5975609,-20.060976,5.7317076,-0.0500191
1127,-0.987793,0.284668,0.1264648,-17.6829281,-20.060976,5.670732,-0.0540475
1128,-0.984375,0.2924805,0.1313477,-17.0121956,-20.4878044,5.4268293,-0.0540475
1129,-0.9838867,0.3007812,0.1323242,-14.6341467,-21.0365868,5.2439027,-0.0513619
1130,-0.9858398,0.3061523,0.1235352,-13.7195129,-21.3414631,4.8170733,-0.0574044
1131,-0.9829102,0.3203125,0.1171875,-12.8658543,-22.0121956,5.3048782,-0.0715038
1132,-0.980957,0.3217773,0.1035156,-12.6219511,-22.439024,5.1219511,-0.102388
1133,-0.9692383,0.331543,0.0878906,-12.8658543,-22.9268303,5.7317076,-0.1560998
1134,-0.9697266,0.3349609,0.0839844,-13.1707315,-22.8658543,5.4878049,-0.1782559
1135,-0.9663086,0.3427734,0.0771484,-13.7195129,-22.9878063,5.670732,-0.1722133
1136,-0.9658203,0.347168,0.0688477,-14.9390249,-22.8658543,5.670732,-0.1493858
1137,-0.9697266,0.3481445,0.0693359,-15.9146347,-22.6219521,5.9146342,-0.1211872
1138,-0.9794922,0.3427734,0.0839844,-17.1341476,-22.3170738,6.0365853,-0.0943313
1139,-0.9833984,0.3344727,0.0908203,-17.1951218,-22.1341476,6.280488,-0.0661326
1140,-1.0009766,0.3276367,0.1054688,-16.5243912,-22.9878063,6.280488,-0.0473335
1141,-1.0053711,0.3237305,0.1162109,-15.5487804,-23.4146347,6.5243902,-0.0359197
1142,-1.0073242,0.3139648,0.112793,-13.9634151,-24.0243912,6.9512196,-0.0231632
1143,-1.0087891,0.3144531,0.1118164,-13.3536587,-24.5121956,6.890244,-0.0130922
1144,-1.0019531,0.3164062,0.1030273,-12.7439032,-24.8780499,7.0731707,-0.0030213
1145,-0.9916992,0.3168945,0.1074219,-13.1707315,-24.9390259,6.9512196,0.0023499
1146,-0.9824219,0.3144531,0.1181641,-13.2926836,-24.5121956,6.3414636,0.0063783
1147,-0.9785156,0.3095703,0.1220703,-14.0853662,-24.6341476,6.0975609,0.0083925
1148,-0.9707031,0.2988281,0.128418,-14.0853662,-24.8170738,6.2195125,0.0050355
1149,-0.9716797,0.2773438,0.1459961,-14.3292685,-24.6341476,6.7682929,0.0003357
1150,-0.96875,0.2651367,0.1513672,-13.9024391,-24.6951218,6.9512196,0.0016785
1151,-0.96875,0.2543945,0.1459961,-11.5243902,-24.7560978,7.7439027,0.0023499
1152,-0.9658203,0.246582,0.1318359,-10.2439022,-24.9390259,8.3536587,-0.0003357
1153,-0.9716797,0.2426758,0.1152344,-6.7073174,-25.3048782,9.1463413,0.0003357
1154,-0.9707031,0.246582,0.1113281,-5.1829271,-25.1829281,9.5731707,-0.0016785
1155,-0.9716797,0.2719727,0.1044922,-1.097561,-25.4878063,9.6951218,-0.0036927
1156,-0.9760742,0.2880859,0.1005859,0.3048781,-25.6707325,9.5121956,-0.0046998
1157,-0.9829102,0.3310547,0.09375,2.3780489,-26.2195129,8.4146347,-0.0010071
1158,-0.9858398,0.3452148,0.0942383,3.6585367,-26.4634151,7.6829271,0.0010071
1159,-0.9995117,0.3759766,0.0922852,4.0853658,-26.6463413,6.9512196,0.0016785
1160,-0.9990234,0.3984375,0.0810547,4.2073174,-27.3780499,6.8292685,0.0006714
1161,-0.9892578,0.3989258,0.0712891,3.2926829,-27.6219521,6.6463418,-0.0043641
1162,-0.9770508,0.3974609,0.0683594,0.7926829,-27.8048782,6.9512196,-0.0137636
1163,-0.9619141,0.3979492,0.0761719,-0.9756098,-27.7439022,6.890244,-0.0164492
1164,-0.9423828,0.3833008,0.0795898,-4.5121951,-27.2560978,7.0121951,-0.0208133
1165,-0.9316406,0.3740234,0.081543,-5.8536587,-26.9512196,7.2560978,-0.0271916
1166,-0.9233398,0.3476562,0.0810547,-8.2926826,-25.9146347,7.5,-0.0285344
1167,-0.9223633,0.3334961,0.0908203,-9.0853662,-25.5487804,7.5,-0.0288701
1168,-0.9287109,0.3125,0.1098633,-9.1463413,-24.8780499,8.1097565,-0.0305486
1169,-0.9316406,0.3037109,0.1171875,-8.2317076,-24.0853672,8.5975609,-0.0265202
1170,-0.9418945,0.3032227,0.1289062,-7.3780489,-23.8414631,8.841464,-0.0218204
1171,-0.9633789,0.309082,0.1289062,-5.4878049,-23.5365868,9.3292685,-0.0231632
1172,-0.9692383,0.3242188,0.1308594,-4.9390244,-23.1097565,9.3292685,-0.0261845
1173,-0.9790039,0.3422852,0.1411133,-4.1463413,-22.6219521,8.9634151,-0.0325628
1174,-0.9829102,0.3505859,0.1416016,-4.2682929,-22.560976,8.841464,-0.0339055
1175,-0.984375,0.3569336,0.1435547,-4.390244,-22.3780499,7.9878049,-0.0365911
1176,-0.9863281,0.3608398,0.1352539,-4.5731707,-22.439024,7.7439027,-0.0379339
1177,-0.9794922,0.3583984,0.1201172,-5.0609756,-22.6829281,7.6219516,-0.0416266
1178,-0.9741211,0.3549805,0.1176758,-5.5487804,-22.6829281,7.5,-0.0396124
1179,-0.9604492,0.3530273,0.1352539,-6.3414636,-22.0121956,7.6219516,-0.0439765
1180,-0.9589844,0.3481445,0.1499023,-5.7926831,-22.3780499,7.9268293,-0.0473335
1181,-0.9516602,0.3374023,0.1557617,-5.1829271,-22.3780499,7.8048782,-0.0446479
1182,-0.9492188,0.3295898,0.1523438,-4.5731707,-21.9512196,8.5975609,-0.0453193
1183,-0.9467773,0.328125,0.1533203,-4.6341462,-21.6463413,8.9634151,-0.0486763
1184,-0.9418945,0.3344727,0.1479492,-5.2439027,-21.0365868,9.2073174,-0.0486763
1185,-0.9458008,0.3427734,0.1469727,-5.3048782,-20.6707325,9.4512196,-0.0486763
1186,-0.9472656,0.3481445,0.140625,-6.2195125,-20.060976,9.3292685,-0.0486763
1187,-0.9521484,0.3535156,0.1411133,-6.7682929,-19.8170738,9.4512196,-0.0506905
1188,-0.9589844,0.355957,0.137207,-7.9878049,-19.3292694,9.1463413,-0.0513619
1189,-0.9614258,0.3530273,0.1386719,-8.719512,-19.2073174,9.0853662,-0.0500191
1190,-0.9716797,0.3457031,0.144043,-9.4512196,-18.9634151,9.0243902,-0.0533761
1191,-0.9726562,0.3393555,0.1459961,-9.6951218,-19.1463413,9.5121956,-0.0553902
1192,-0.9765625,0.3237305,0.1411133,-9.2682924,-18.9634151,10,-0.0520333
1193,-0.972168,0.3164062,0.1420898,-8.9634151,-19.2682934,10.2439022,-0.0527047
1194,-0.9648438,0.3139648,0.1459961,-8.5365858,-19.6341476,10.3658543,-0.0547189
1195,-0.9516602,0.3110352,0.1469727,-7.7439027,-19.939024,10.060976,-0.0553902
1196,-0.9458008,0.3095703,0.1621094,-7.0731707,-19.8170738,10,-0.0547189
1197,-0.9282227,0.3032227,0.1103516,-5.1829271,-21.4634151,8.9634151,-0.0540475
1198,-0.9033203,0.3076172,0.0561523,-4.0853658,-21.1585369,8.780488,-0.0533761
1199,-0.8632812,0.3208008,0.065918,-4.9390244,-17.7439022,7.8658538,-0.0543832
1200,-0.8525391,0.3291016,0.1313477,-6.9512196,-16.9512196,6.5243902,-0.0553902
1201,-0.8569336,0.3325195,0.2485352,-7.3780489,-18.3536587,4.5121951,-0.0594186
1202,-0.8759766,0.3222656,0.237793,-2.2560976,-19.5121956,5.9756098,-0.0594186
1203,-0.9052734,0.3027344,0.1347656,-0.3658537,-19.5731716,7.8048782,-0.0584115
1204,-0.8847656,0.2963867,0.0942383,0.1829268,-19.3292694,10.4878054,-0.0587472
1205,-0.8759766,0.2993164,0.0966797,-0.2439024,-19.3292694,11.0365858,-0.0621042
1206,-0.8779297,0.3237305,0.1166992,-1.4634147,-17.0731716,11.5853662,-0.0614328
1207,-0.8847656,0.3369141,0.1274414,-1.402439,-15.9756098,11.0975609,-0.063447
1208,-0.9008789,0.3466797,0.1601562,0.0609756,-16.9512196,9.3292685,-0.0607614
1209,-0.9077148,0.3476562,0.1723633,1.402439,-18.2926826,8.4146347,-0.0580758
1210,-0.9287109,0.3369141,0.1630859,4.4512196,-19.3902435,7.0121951,-0.0574044
1211,-0.9389648,0.3310547,0.1474609,4.8780489,-19.0243912,6.7682929,-0.0607614
1212,-0.9575195,0.331543,0.1376953,3.9024391,-18.7195129,7.7439027,-0.0614328
1213,-0.9599609,0.3354492,0.1347656,2.6829269,-18.780489,9.2073174,-0.0674754
1214,-0.9506836,0.328125,0.1274414,2.6219513,-19.0853672,9.9390249,-0.0738537
1215,-0.9423828,0.3154297,0.1103516,3.3536587,-19.3902435,10.3658543,-0.0755322
1216,-0.9316406,0.3076172,0.1108398,3.3536587,-20,10.4878054,-0.0745251
1217,-0.9077148,0.2880859,0.121582,3.5365853,-20.7926826,9.3902445,-0.070161
1218,-0.8959961,0.2851562,0.1279297,3.5365853,-20.7317085,8.780488,-0.0607614
1219,-0.8916016,0.2939453,0.1269531,5.1219511,-20.3658543,7.7439027,-0.0540475
1220,-0.890625,0.2963867,0.121582,6.0365853,-20.2439022,7.3780489,-0.0493477
1221,-0.8881836,0.315918,0.1308594,6.8292685,-20.1219521,7.2560978,-0.0433051
1222,-0.8974609,0.3286133,0.1396484,7.0121951,-20.2439022,7.3170733,-0.0412909
1223,-0.9121094,0.3422852,0.1381836,7.4390244,-20.2439022,8.1707315,-0.0412909
1224,-0.9277344,0.3530273,0.1206055,7.6219516,-20.060976,9.4512196,-0.0406195
1225,-0.9477539,0.3564453,0.0888672,7.3170733,-19.8170738,10.1219511,-0.0399481
1226,-0.9526367,0.3681641,0.0751953,6.1585369,-20.7926826,11.4634151,-0.0399481
1227,-0.9550781,0.3618164,0.0737305,5.1829271,-20.9146347,11.5853662,-0.0392767
1228,-0.9570312,0.3598633,0.0961914,4.390244,-21.2195129,11.1585369,-0.0419623
1229,-0.956543,0.3554688,0.1118164,4.6341462,-21.5243912,10.6097565,-0.0412909
1230,-0.9550781,0.3481445,0.1308594,6.7073174,-23.0487804,9.8170738,-0.0436408
1231,-0.953125,0.3481445,0.1347656,8.1097565,-23.780489,9.1463413,-0.0446479
1232,-0.9428711,0.3413086,0.1303711,10.3658543,-25.4268303,8.5365858,-0.0459907
1233,-0.9365234,0.34375,0.1279297,11.5243902,-25.7317085,8.4146347,-0.0473335
1234,-0.9301758,0.3442383,0.1230469,12.6829271,-25.6097565,9.0243902,-0.0449836
1235,-0.9277344,0.3452148,0.1245117,13.7195129,-25.5487804,10.1219511,-0.0419623
1236,-0.9204102,0.3564453,0.1196289,14.0853662,-25.6707325,10.5487804,-0.0459907
1237,-0.9257812,0.3613281,0.1264648,14.2073174,-25.6097565,11.5243902,-0.0486763
1238,-0.9287109,0.3666992,0.1269531,14.0243902,-25.3658543,11.9512196,-0.0486763
1239,-0.9418945,0.3642578,0.1162109,13.5975609,-25.060976,13.1097565,-0.0433051
1240,-0.9462891,0.3632812,0.109375,13.4756098,-24.6951218,14.1463413,-0.0399481
1241,-0.9628906,0.3569336,0.0986328,12.5,-24.1463413,15.2439032,-0.0419623
1242,-0.9663086,0.3579102,0.0976562,11.5243902,-24.0853672,15.9756098,-0.0453193
1243,-0.9731445,0.3530273,0.1186523,8.9634151,-23.780489,16.7073174,-0.0459907
1244,-0.9804688,0.3491211,0.137207,8.2926826,-23.4146347,16.7682934,-0.0500191
1245,-0.9916992,0.3369141,0.1445312,7.6219516,-22.439024,17.5,-0.0486763
1246,-1.0043945,0.3320312,0.144043,7.6219516,-22.1951218,17.9878044,-0.0473335
1247,-1.0136719,0.3198242,0.1430664,7.9268293,-22.3170738,18.3536587,-0.0466621
1248,-1.0078125,0.3066406,0.1450195,8.5975609,-22.7439022,19.5121956,-0.0473335
1249,-1.0112305,0.3032227,0.1450195,9.2073174,-22.9268303,19.939024,-0.0500191
1250,-1.0117188,0.3022461,0.1396484,11.280488,-23.4146347,20.8536587,-0.0446479
1251,-1.0039062,0.2998047,0.1347656,12.3780489,-23.6585369,21.0365868,-0.0433051
1252,-0.9956055,0.3125,0.1318359,14.8780489,-24.2073174,21.4024391,-0.0419623
1253,-0.9892578,0.3188477,0.1328125,15.5487804,-24.3292694,21.5853672,-0.0419623
1254,-0.9897461,0.3349609,0.1396484,17.3170738,-24.6951218,21.6463413,-0.0459907
1255,-0.9887695,0.34375,0.144043,18.2317085,-24.8780499,21.7073174,-0.0412909
1256,-0.9921875,0.3515625,0.1459961,19.3902435,-24.9390259,22.1951218,-0.0399481
1257,-0.9941406,0.3632812,0.1293945,20.4268303,-25.4878063,23.2317085,-0.0419623
1258,-0.9873047,0.3652344,0.1181641,19.8780499,-25.5487804,23.780489,-0.0459907
1259,-0.9912109,0.3691406,0.1044922,19.1463413,-25.4268303,25,-0.0594186
1260,-0.9936523,0.3725586,0.1030273,18.3536587,-25.1219521,25.6097565,-0.1252155
1261,-0.9907227,0.3681641,0.1000977,17.3780499,-25,26.7073174,-0.1654994
1262,-0.9926758,0.3657227,0.1044922,17.1341476,-25.1219521,26.5853672,-0.1514
1263,-0.9892578,0.3637695,0.1162109,16.280489,-25.3048782,26.8902454,-0.115816
1264,-0.9912109,0.362793,0.1235352,16.0975609,-25.2439022,26.7073174,-0.070161
1265,-0.9892578,0.3569336,0.1459961,15.9146347,-24.8170738,26.280489,-0.0352483
1266,-0.987793,0.3496094,0.15625,16.2195129,-24.9390259,26.0975609,-0.0114137
1267,-0.984375,0.3427734,0.184082,17.6829281,-25.1829281,26.0975609,-0.0063783
1268,-0.9785156,0.3481445,0.2055664,20.6097565,-25.8536587,26.3414631,-0.0057069
1269,-0.9711914,0.3569336,0.2104492,22.439024,-26.3414631,26.280489,-0.011078
1270,-0.9604492,0.3803711,0.2089844,26.1585369,-26.8902454,26.5243912,-0.0151064
1271,-0.9536133,0.394043,0.1992188,27.560976,-26.7682934,27.0121956,-0.0164492
1272,-0.9536133,0.4194336,0.1733398,29.1463413,-26.5243912,27.9268303,-0.0204776
1273,-0.9526367,0.4301758,0.1611328,29.0243912,-26.0975609,28.4146347,-0.0231632
1274,-0.953125,0.4433594,0.1420898,27.3780499,-25.4878063,29.9390259,-0.0191348
1275,-0.9589844,0.4443359,0.1386719,26.1585369,-25.1829281,31.0365868,-0.0218204
1276,-0.9614258,0.4350586,0.1386719,22.6219521,-24.3292694,32.5,-0.024506
1277,-0.9575195,0.4223633,0.1430664,20.7317085,-23.6585369,33.4146347,-0.0231632
1278,-0.9638672,0.394043,0.1518555,17.0731716,-22.8048782,34.5731697,-0.0238346
1279,-0.9624023,0.3657227,0.1699219,14.9390249,-22.0731716,35,-0.0221561
1280,-0.9628906,0.3442383,0.1791992,14.1463413,-22.1951218,35.3658562,-0.024506
1281,-0.9599609,0.3144531,0.1977539,14.5731707,-21.6463413,35.6707344,-0.0261845
1282,-0.9560547,0.2993164,0.2075195,15.6097565,-21.7073174,35.5487823,-0.027863
1283,-0.9550781,0.2866211,0.2260742,19.2073174,-22.3170738,35.1829262,-0.0285344
1284,-0.9511719,0.2836914,0.2329102,21.6463413,-22.6219521,35.1829262,-0.0285344
1285,-0.9448242,0.2851562,0.2231445,27.1951218,-23.4146347,34.9390259,-0.0271916
1286,-0.9404297,0.2919922,0.2143555,30,-23.6585369,34.9390259,-0.0231632
1287,-0.9335938,0.3168945,0.1889648,34.8780479,-24.2073174,35.7317085,-0.0218204
1288,-0.9316406,0.3232422,0.1767578,36.8902435,-24.2682934,35.7926826,-0.0285344
1289,-0.9208984,0.3579102,0.1621094,39.5121956,-24.6951218,36.7682953,-0.0352483
1290,-0.9135742,0.3994141,0.1479492,41.2804871,-24.5121956,36.341465,-0.0382696
1291,-0.9150391,0.4189453,0.1411133,41.5243912,-24.4512196,36.0365868,-0.0446479
1292,-0.9052734,0.4536133,0.1396484,40.9756088,-24.0243912,35.6097565,-0.0621042
1293,-0.9067383,0.4663086,0.140625,40.1829262,-23.9634151,35.3658562,-0.0762036
1294,-0.9150391,0.4868164,0.1464844,38.4756088,-23.2317085,35.1219521,-0.076875
1295,-0.921875,0.484375,0.1425781,37.9268303,-22.7439022,35,-0.0654612
1296,-0.9306641,0.4819336,0.1435547,36.0365868,-22.3780499,35.6707344,-0.0527047
1297,-0.9365234,0.4731445,0.1416016,34.8780479,-22.560976,36.1585388,-0.0412909
1298,-0.9433594,0.4550781,0.1357422,32.5609779,-22.7439022,37.3780479,-0.0315557
1299,-0.9482422,0.4448242,0.1362305,31.280489,-22.6219521,37.7439041,-0.0298772
1300,-0.9487305,0.4243164,0.144043,30.3048782,-22.0731716,38.4756088,-0.0285344
1301,-0.9526367,0.3916016,0.1660156,30.4268303,-22.5,38.2317085,-0.0298772
1302,-0.953125,0.3818359,0.1762695,31.8292694,-22.6829281,38.0487823,-0.0339055
1303,-0.9648438,0.3720703,0.1791992,35.7317085,-23.6585369,37.3170738,-0.0352483
1304,-0.9667969,0.3647461,0.1738281,38.2926826,-24.3292694,36.7073174,-0.0392767
1305,-0.9760742,0.3696289,0.1469727,43.2926826,-25.2439022,36.0365868,-0.0406195
1306,-0.9765625,0.3754883,0.1333008,45.3658562,-25.9756107,35.9146347,-0.0406195
1307,-0.9711914,0.3959961,0.1074219,48.7804871,-27.3780499,35.6097565,-0.0453193
1308,-0.9594727,0.4125977,0.1010742,49.0853653,-27.8658543,35.4878044,-0.0466621
1309,-0.9375,0.4404297,0.1049805,48.9024391,-29.0243912,34.6341476,-0.0513619
1310,-0.9228516,0.453125,0.109375,47.2560997,-28.841465,33.5365868,-0.0540475
1311,-0.8930664,0.4663086,0.1293945,46.0975609,-28.780489,33.0487823,-0.0533761
1312,-0.8793945,0.4663086,0.1513672,43.2317085,-27.8048782,32.1951218,-0.0516976
1313,-0.8774414,0.472168,0.1513672,42.0731735,-27.0121956,31.9512196,-0.0503548
1314,-0.8725586,0.4707031,0.1542969,39.4512215,-25.6097565,32.1951218,-0.0503548
1315,-0.8740234,0.472168,0.1611328,38.2317085,-24.4512196,32.6829262,-0.0493477
1316,-0.878418,0.4770508,0.1674805,35.7317085,-22.6829281,32.9878044,-0.0446479
1317,-0.8769531,0.4731445,0.1713867,34.5731697,-22.0731716,33.4146347,-0.0466621
1318,-0.8803711,0.4584961,0.1689453,33.0487823,-20.6097565,33.7804871,-0.0459907
1319,-0.8818359,0.4516602,0.1660156,32.8658562,-20.1219521,33.841465,-0.0412909
1320,-0.8862305,0.4335938,0.1674805,31.9512196,-19.6951218,33.6585388,-0.0379339
1321,-0.890625,0.4228516,0.1655273,31.8292694,-19.1463413,33.7195129,-0.0446479
1322,-0.9003906,0.4052734,0.1640625,32.0731697,-18.8414631,33.5365868,-0.0493477
1323,-0.9067383,0.3964844,0.1567383,33.2317085,-18.1097565,33.4756088,-0.0533761
1324,-0.9067383,0.3959961,0.1538086,34.2682953,-17.7439022,33.3536606,-0.0587472
1325,-0.9038086,0.3925781,0.1333008,37.0731697,-17.8048782,32.8048782,-0.06009
1326,-0.902832,0.3945312,0.1191406,38.3536606,-17.8658543,32.6829262,-0.0560616
1327,-0.9013672,0.4047852,0.0932617,39.6341476,-18.4146347,31.7682934,-0.0594186
1328,-0.8979492,0.4111328,0.0864258,39.6951218,-18.5975609,31.4634151,-0.0540475
1329,-0.8828125,0.4228516,0.0839844,38.7804871,-18.1707325,30.9146347,-0.0500191
1330,-0.8808594,0.4296875,0.0820312,37.9878044,-18.2317085,30.6707325,-0.0466621
1331,-0.8642578,0.4394531,0.0805664,35.4268303,-17.9268303,30.6707325,-0.0426337
1332,-0.8598633,0.4448242,0.078125,30.9756107,-16.8902435,30.9756107,-0.0352483
1333,-0.8579102,0.449707,0.0854492,28.7195129,-16.1585369,31.0365868,-0.0305486
1334,-0.8525391,0.4433594,0.0986328,24.3902435,-14.1463413,31.7682934,-0.0285344
1335,-0.8540039,0.4375,0.1069336,22.439024,-13.4146347,32.1341476,-0.0258488
1336,-0.8618164,0.4306641,0.1162109,19.6341476,-11.9512196,32.6219521,-0.0234989
1337,-0.8671875,0.4296875,0.1201172,18.4146347,-11.5853662,32.7439041,-0.0224918
1338,-0.8740234,0.4287109,0.1254883,17.2560978,-10.6097565,32.5609779,-0.0204776
1339,-0.8779297,0.4282227,0.1264648,16.5243912,-10.1219511,32.1341476,-0.0258488
1340,-0.890625,0.4316406,0.1289062,15.9146347,-9.9390249,31.7682934,-0.0221561
1341,-0.8920898,0.4316406,0.1279297,16.0365849,-9.8170738,31.4024391,-0.024506
1342,-0.894043,0.4379883,0.1381836,16.0365849,-10.4268293,30.4878063,-0.024506
1343,-0.8979492,0.4375,0.140625,16.8292694,-10.8536587,29.9390259,-0.024506
1344,-0.8945312,0.4389648,0.1396484,17.439024,-11.280488,29.6341476,-0.0281987
1345,-0.8911133,0.4433594,0.1171875,19.0243912,-12.1951218,29.3292694,-0.0298772
1346,-0.8891602,0.4404297,0.097168,20,-12.9268293,29.4512196,-0.03122
1347,-0.8842773,0.4384766,0.0732422,20.6097565,-13.780488,29.3292694,-0.03122
1348,-0.8833008,0.4321289,0.0693359,20.9146347,-14.0853662,29.6341476,-0.03122
1349,-0.875,0.4135742,0.0541992,21.0975609,-15.1219511,29.6951218,-0.0292058
1350,-0.8730469,0.4013672,0.0400391,21.6463413,-16.1585369,29.5731716,-0.0298772
1351,-0.8706055,0.3837891,0.03125,23.4146347,-18.3536587,29.3292694,-0.0325628
1352,-0.8623047,0.3803711,0.0405273,24.4512196,-19.5121956,29.0853672,-0.0352483
1353,-0.8530273,0.3901367,0.0742188,28.1097565,-20.8536587,27.8048782,-0.0325628
1354,-0.8500977,0.4013672,0.0537109,31.9512196,-22.2560978,25.7317085,-0.0369268
1355,-0.8334961,0.4458008,-0.0253906,32.7439041,-21.8292694,24.8780499,-0.0406195
1356,-0.8256836,0.4858398,0.0170898,31.0365868,-22.0121956,22.439024,-0.0392767
1357,-0.831543,0.5053711,0.0727539,29.3292694,-22.6219521,21.0365868,-0.0419623
1358,-0.8637695,0.5283203,0.1416016,28.3536587,-23.8414631,19.6341476,-0.0409552
1359,-0.8862305,0.5185547,0.1240234,29.0853672,-23.780489,20.1219521,-0.0587472
1360,-0.9140625,0.4936523,0.0664062,30.7926846,-23.5365868,22.439024,-0.0862745
1361,-0.918457,0.4804688,0.0654297,29.8780499,-23.9634151,23.8414631,-0.0862745
1362,-0.9189453,0.4785156,0.1015625,26.8902454,-25.5487804,27.0121956,-0.0782177
1363,-0.9165039,0.4682617,0.1118164,26.0365868,-25.7926826,27.7439022,-0.070161
1364,-0.9023438,0.4477539,0.1064453,26.7073174,-26.0365868,28.5365868,-0.0580758
1365,-0.8935547,0.4365234,0.1030273,28.2926826,-27.2560978,27.2560978,-0.0459907
1366,-0.8798828,0.4257812,0.1181641,28.6585369,-27.6829281,25.7926826,-0.0359197
1367,-0.8735352,0.4267578,0.1362305,29.1463413,-27.3780499,23.5365868,-0.0352483
1368,-0.8745117,0.4287109,0.1381836,29.2073174,-27.0121956,22.6829281,-0.0372625
1369,-0.8725586,0.4287109,0.1459961,29.1463413,-25.7926826,22.0731716,-0.0382696
1370,-0.8681641,0.4326172,0.15625,28.780489,-25.9756107,22.1341476,-0.0419623
1371,-0.8515625,0.4238281,0.1723633,28.1097565,-26.6463413,22.7439022,-0.0433051
1372,-0.8393555,0.4228516,0.1694336,28.1707325,-26.7682934,23.0487804,-0.0419623
1373,-0.8193359,0.4272461,0.1357422,28.2926826,-26.8902454,23.8414631,-0.0446479
1374,-0.8076172,0.4321289,0.1162109,28.6585369,-26.4024391,24.2682934,-0.0466621
1375,-0.7851562,0.4443359,0.1020508,28.2317085,-25.1219521,24.3902435,-0.0513619
1376,-0.7871094,0.4545898,0.1074219,27.4390259,-22.8658543,23.7195129,-0.0527047
1377,-0.8032227,0.4619141,0.1303711,27.5,-21.4024391,23.3536587,-0.0604257
1378,-0.8476562,0.449707,0.1381836,29.4512196,-20.060976,23.7195129,-0.066804
1379,-0.8696289,0.4418945,0.1401367,30.2439022,-20,24.2682934,-0.070161
1380,-0.902832,0.4267578,0.152832,32.0121956,-21.1585369,25.8536587,-0.0741894
1381,-0.9116211,0.4213867,0.1586914,33.4146347,-21.9512196,26.5243912,-0.073518
1382,-0.9165039,0.4208984,0.1352539,36.7682953,-22.8658543,26.9512196,-0.0715038
1383,-0.9135742,0.4238281,0.1147461,38.4146347,-23.4756107,26.9512196,-0.0621042
1384,-0.9003906,0.4516602,0.0644531,41.2804871,-25.3658543,25.7926826,-0.0574044
1385,-0.8852539,0.4677734,0.046875,41.7682953,-26.1585369,24.5731716,-0.0553902
1386,-0.8608398,0.4951172,0.0429688,41.7682953,-26.5853672,21.8902435,-0.0513619
1387,-0.855957,0.5063477,0.050293,40.4268303,-25.9146347,19.4512196,-0.0681468
1388,-0.8496094,0.5273438,0.0751953,39.1463432,-25.4878063,18.780489,-0.0788891
1389,-0.8486328,0.5288086,0.1005859,36.1585388,-25.4268303,18.5365849,-0.0728466
1390,-0.8374023,0.5200195,0.112793,34.5731697,-25,19.0853672,-0.063447
1391,-0.8256836,0.4951172,0.1337891,31.8902454,-24.4512196,20.6707325,-0.056733
1392,-0.8173828,0.4799805,0.1396484,30.6097565,-23.9634151,21.3414631,-0.0459907
1393,-0.8017578,0.4599609,0.1464844,29.8780499,-23.6585369,22.3780499,-0.0365911
1394,-0.796875,0.4516602,0.1533203,30.5487804,-23.2317085,22.9268303,-0.0285344
1395,-0.7880859,0.4375,0.1640625,32.5609779,-23.1097565,22.0121956,-0.0285344
1396,-0.7900391,0.4321289,0.1674805,34.3292694,-22.9268303,21.6463413,-0.0285344
1397,-0.7988281,0.4282227,0.1655273,37.9878044,-22.9878063,20.060976,-0.0275273
1398,-0.8085938,0.4321289,0.1542969,41.6463432,-23.2317085,19.2073174,-0.0258488
1399,-0.8242188,0.4399414,0.1337891,43.0487823,-23.2926826,18.780489,-0.024506
1400,-0.8369141,0.4555664,0.1240234,46.0975609,-23.5365868,18.3536587,-0.0251774
1401,-0.8452148,0.4599609,0.1123047,47.0731735,-23.9024391,18.1097565,-0.0204776
1402,-0.8520508,0.46875,0.0708008,49.2073174,-25.4268303,18.1707325,-0.0204776
1403,-0.8569336,0.46875,0.0488281,50.1829262,-26.280489,18.2926826,-0.0231632
1404,-0.8530273,0.4716797,0.0224609,50.7926826,-27.6829281,17.7439022,-0.0231632
1405,-0.847168,0.4829102,0.0224609,50.9756126,-27.9878063,17.3170738,-0.0281987
1406,-0.840332,0.5009766,0.0390625,52.6829262,-29.2682934,15.8536587,-0.0332341
1407,-0.8388672,0.5068359,0.0493164,54.1463432,-29.5731716,15.060976,-0.0339055
1408,-0.8398438,0.5117188,0.0654297,57.3780518,-30.8536587,13.9024391,-0.0412909
1409,-0.8413086,0.515625,0.0717773,58.841465,-32.0731697,13.5365858,-0.0486763
1410,-0.8491211,0.5053711,0.1010742,59.6341476,-32.6829262,13.9634151,-0.0513619
1411,-0.8417969,0.4873047,0.1313477,61.0365868,-33.7804871,15.060976,-0.0513619
1412,-0.8383789,0.4775391,0.1435547,62.3170738,-34.2682953,15.8536587,-0.0500191
1413,-0.8286133,0.4643555,0.1508789,64.2073212,-35,16.8292694,-0.0527047
1414,-0.8232422,0.4589844,0.1430664,65.1219559,-35.3658562,17.0731716,-0.0540475
1415,-0.8100586,0.4438477,0.1352539,65.7926865,-35.6097565,17.560976,-0.0533761
1416,-0.800293,0.4296875,0.1323242,65.7926865,-35.5487823,17.6219521,-0.0480049
1417,-0.7915039,0.4272461,0.1313477,66.3414612,-36.4634171,17.1341476,-0.0412909
1418,-0.7851562,0.4228516,0.1259766,66.8292694,-36.5853653,16.7073174,-0.0396124
1419,-0.7836914,0.4257812,0.1152344,68.5365906,-36.5243912,15.9756098,-0.0386053
1420,-0.7866211,0.4316406,0.1025391,71.8902435,-36.2195129,15.4268293,-0.0332341
1421,-0.8037109,0.4360352,0.065918,73.4146347,-36.7073174,15.4268293,-0.0271916
1422,-0.8164062,0.4550781,0.027832,76.2195129,-37.9878044,15.6097565,-0.0258488
1423,-0.8251953,0.4726562,0.0180664,76.9512177,-38.4146347,16.280489,-0.0271916
1424,-0.8364258,0.5107422,0.0151367,77.9878082,-38.7195129,16.0975609,-0.0231632
1425,-0.8408203,0.5302734,0.0185547,78.0487823,-39.3292694,15.7926836,-0.0234989
1426,-0.8334961,0.5625,0.034668,75.9146347,-40.5487823,14.3902445,-0.024506
1427,-0.8344727,0.5712891,0.0527344,74.1463394,-40.9756088,13.5975609,-0.0248417
1428,-0.8242188,0.5742188,0.0786133,69.6951218,-41.5243912,12.1951218,-0.027863
1429,-0.8164062,0.5678711,0.0712891,67.9268341,-41.5243912,11.9512196,-0.0318914
1430,-0.8095703,0.5493164,0.0644531,64.5731735,-41.1585388,12.3170738,-0.0627756
1431,-0.7983398,0.5375977,0.0957031,61.9512215,-40.2439041,13.3536587,-0.1346151
1432,-0.8017578,0.5317383,0.1044922,61.341465,-39.4512215,13.6585369,-0.1537499
1433,-0.7993164,0.5292969,0.0888672,60.1219521,-38.841465,14.3292685,-0.1305867
1434,-0.7958984,0.5332031,0.0854492,59.1463432,-38.4756088,14.5121956,-0.0889601
1435,-0.7993164,0.5341797,0.09375,56.0975609,-37.7439041,14.0853662,-0.0486763
1436,-0.7993164,0.5327148,0.1020508,54.7560997,-37.4390259,13.5365858,-0.017792
1437,-0.8085938,0.5444336,0.1079102,52.8048782,-37.4390259,12.2560978,0.0023499
1438,-0.8110352,0.5512695,0.1020508,52.1341476,-37.5,11.4634151,0.0063783
1439,-0.8168945,0.5791016,0.0717773,51.1585388,-37.2560997,10.7317076,-0.0070497
1440,-0.8193359,0.5932617,0.0561523,50.0609779,-37.0731697,10.3048782,-0.017792
1441,-0.8188477,0.6108398,0.0439453,46.7073174,-37.0731697,10.2439022,-0.0224918
1442,-0.8129883,0.6142578,0.0605469,42.5,-36.8902435,9.8170738,-0.0285344
1443,-0.8071289,0.609375,0.0712891,40.7317085,-37.0121956,9.6951218,-0.0318914
1444,-0.793457,0.5981445,0.0908203,37.6829262,-37.2560997,9.6951218,-0.0352483
1445,-0.7939453,0.5888672,0.0917969,36.7682953,-37.1951218,9.5731707,-0.0372625
1446,-0.7744141,0.5722656,0.0820312,35.8536606,-37.3780479,9.5121956,-0.0372625
1447,-0.7714844,0.5625,0.0751953,35.7926826,-37.5609779,9.5731707,-0.0352483
1448,-0.7578125,0.5639648,0.0693359,36.2804871,-37.8658562,8.841464,-0.0345769
1449,-0.7509766,0.5664062,0.0742188,36.6463432,-38.2926826,8.2926826,-0.0342412
1450,-0.7397461,0.5756836,0.0961914,37.1951218,-38.5975609,7.0121951,-0.0315557
1451,-0.7441406,0.5776367,0.1186523,37.9268303,-38.5365868,6.2195125,-0.03122
1452,-0.7587891,0.5615234,0.125,39.9390259,-38.4756088,5.4878049,-0.0339055
1453,-0.7763672,0.5537109,0.0991211,41.8292694,-39.5731735,6.280488,-0.0298772
1454,-0.784668,0.5537109,0.0898438,43.4756126,-39.8170738,6.9512196,-0.0292058
1455,-0.7910156,0.5634766,0.097168,47.7439041,-40.3658562,7.6829271,-0.0325628
1456,-0.7958984,0.5732422,0.0966797,50.1829262,-40.9146347,7.5609756,-0.0339055
1457,-0.8012695,0.5805664,0.0644531,53.2317085,-42.3780479,6.5243902,-0.0305486
1458,-0.7988281,0.5844727,0.0532227,53.5365868,-42.8658562,6.0975609,-0.0298772
1459,-0.7924805,0.5698242,0.0654297,52.4390259,-43.5975609,4.8170733,-0.0372625
1460,-0.7871094,0.5620117,0.0805664,52.1341476,-43.4146347,4.3292685,-0.0459907
1461,-0.7900391,0.5405273,0.0825195,52.8048782,-43.1707344,4.390244,-0.0500191
1462,-0.7875977,0.534668,0.074707,53.9634171,-42.9878044,4.4512196,-0.0500191
1463,-0.7866211,0.5361328,0.0683594,55.2439041,-42.7439041,5.0609756,-0.0493477
1464,-0.7788086,0.5351562,0.0410156,56.0365868,-42.8658562,5.1219511,-0.0540475
1465,-0.7729492,0.5390625,0.0205078,55.9146347,-42.8048782,5,-0.0627756
1466,-0.7666016,0.5410156,-0.0087891,56.341465,-42.5609779,4.0853658,-0.0876173
1467,-0.762207,0.5439453,-0.0078125,56.4024391,-42.8048782,3.5975611,-0.1030594
1468,-0.7578125,0.5654297,0.0053711,56.8292694,-43.1707344,2.1341465,-0.1003738
1469,-0.7592773,0.5786133,0.0136719,56.7682953,-43.1097565,1.4634147,-0.0842603
1470,-0.7636719,0.5913086,0.0239258,55.0609779,-42.6219521,0.7926829,-0.0674754
1471,-0.7680664,0.6030273,0.0419922,53.6585388,-42.1341476,0.4878049,-0.0553902
1472,-0.7836914,0.6103516,0.0688477,50.9756126,-40.7317085,1.0365853,-0.0473335
1473,-0.7929688,0.6083984,0.0737305,48.7804871,-39.9390259,1.7682927,-0.0433051
1474,-0.8120117,0.5830078,0.1069336,45.0609779,-38.9634171,3.4756098,-0.0386053
1475,-0.831543,0.5532227,0.1494141,41.5243912,-38.7804871,5.1829271,-0.0352483
1476,-0.8330078,0.5410156,0.1538086,41.0975609,-38.7804871,6.1585369,-0.0365911
1477,-0.8320312,0.5097656,0.1079102,40.3658562,-38.6585388,7.0121951,-0.0359197
1478,-0.8310547,0.4970703,0.0761719,40.2439041,-38.7195129,7.3170733,-0.0339055
1479,-0.828125,0.4814453,0.0371094,40.6707344,-39.0853653,7.0731707,-0.0325628
1480,-0.8276367,0.4824219,0.0219727,41.4024391,-39.1463432,6.4634147,-0.0325628
1481,-0.8168945,0.5063477,-0.0087891,43.4146347,-39.6951218,4.4512196,-0.0339055
1482,-0.8203125,0.5283203,-0.0273438,44.2073174,-40.0609779,3.5975611,-0.0339055
1483,-0.824707,0.5830078,-0.0483398,43.7195129,-40.4268303,1.3414634,-0.0339055
1484,-0.8242188,0.609375,-0.0454102,40.8536606,-40.6097565,-0.2439024,-0.0315557
1485,-0.8232422,0.6503906,-0.0249023,38.7195129,-40.7926826,-0.7926829,-0.03122
1486,-0.8144531,0.6601562,-0.0087891,34.3292694,-40.4878044,-1.2195122,-0.0345769
1487,-0.8125,0.6611328,-0.003418,32.1341476,-40.6707344,-0.5487805,-0.0339055
1488,-0.8061523,0.6484375,-0.0131836,28.2317085,-40.7317085,0.7926829,-0.03122
1489,-0.8012695,0.6308594,-0.0053711,26.4634151,-40.4878044,1.8902439,-0.0298772
1490,-0.7871094,0.5957031,0.0454102,24.2682934,-39.8780479,3.6585367,-0.0298772
1491,-0.7900391,0.5678711,0.0922852,25,-39.3902435,4.0853658,-0.0305486
1492,-0.8100586,0.5029297,0.1489258,30.4268303,-38.4146347,4.6341462,-0.0352483
1493,-0.8291016,0.4682617,0.1430664,34.3902435,-38.841465,5.0609756,-0.0379339
1494,-0.8500977,0.4243164,0.1210938,43.3536606,-40.3048782,6.6463418,-0.0365911
1495,-0.8583984,0.4223633,0.1123047,51.4024391,-41.7682953,6.9512196,-0.0365911
1496,-0.8623047,0.4614258,0.0888672,55.3048782,-41.8902435,6.1585369,-0.0399481
1497,-0.8632812,0.53125,0.0419922,61.7682953,-43.0487823,3.1097562,-0.0399481
1498,-0.8574219,0.5732422,0.0253906,63.4146347,-43.6585388,1.097561,-0.0399481
1499,-0.8476562,0.6367188,0.0195312,63.2317085,-44.6951218,-2.4390244,-0.0386053
1500,-0.8447266,0.65625,0.0263672,62.5,-44.7560997,-3.7195122,-0.0379339
1501,-0.8364258,0.6787109,0.0336914,59.4512215,-44.1463432,-3.8414636,-0.0372625
1502,-0.8310547,0.6777344,0.0356445,57.5,-43.4146347,-3.1097562,-0.0406195
1503,-0.8134766,0.6679688,0.0400391,54.3902435,-42.1341476,-0.6097561,-0.0433051
1504,-0.8027344,0.6567383,0.0507812,52.9878044,-41.6463432,0.9756098,-0.0453193
1505,-0.7783203,0.6303711,0.065918,50.1829262,-40.6097565,3.0487804,-0.0459907
1506,-0.7666016,0.6142578,0.0678711,48.1707344,-39.3902435,3.4146342,-0.0406195
1507,-0.7641602,0.5834961,0.0678711,47.6829262,-38.9024391,3.1707318,-0.0459907
1508,-0.7714844,0.5742188,0.0668945,47.9878044,-37.5,2.1341465,-0.0446479
1509,-0.7807617,0.5795898,0.0625,48.4756126,-37.1951218,1.5243902,-0.0459907
1510,-0.8095703,0.5947266,0.0478516,48.7804871,-36.5853653,-0.1829268,-0.0446479
1511,-0.8237305,0.6035156,0.0351562,48.5365868,-36.4024391,-0.4878049,-0.0486763
1512,-0.8398438,0.6210938,0.0024414,47.5,-36.341465,-1.1585366,-0.0621042
1513,-0.8417969,0.6269531,-0.0053711,46.8292694,-36.341465,-1.2195122,-0.0970169
1514,-0.8447266,0.6396484,-0.0107422,44.4512215,-36.7073174,-1.8292683,-0.1252155
1515,-0.8364258,0.6411133,-0.0146484,43.2317085,-36.8902435,-2.3170731,-0.1309224
1516,-0.8066406,0.6533203,-0.0253906,41.0975609,-37.0121956,-3.1707318,-0.1232013
1517,-0.796875,0.6606445,-0.0283203,38.2926826,-37.0121956,-4.5731707,-0.1185016
1518,-0.7822266,0.6743164,-0.0356445,36.5243912,-36.8292694,-4.9390244,-0.1131304
1519,-0.7729492,0.6665039,-0.0288086,32.3170738,-35.6097565,-5.2439027,-0.1587854
1520,-0.7724609,0.6625977,-0.0205078,30,-35,-5.4878049,-0.2030976
1521,-0.7773438,0.6420898,-0.0004883,25.1829281,-33.2926826,-4.5731707,-0.1856413
1522,-0.7827148,0.628418,0.0078125,23.1707325,-32.5609779,-3.6585367,-0.1399863
1523,-0.7939453,0.5898438,0.0297852,19.8170738,-31.0365868,-2.5609756,-0.0889601
1524,-0.8032227,0.5654297,0.0498047,19.0853672,-30.4878063,-1.7073171,-0.0396124
1525,-0.8164062,0.5322266,0.0942383,20.3048782,-30.3658543,-1.1585366,-0.0030213
1526,-0.8271484,0.5200195,0.1118164,22.3170738,-30.6097565,-1.3414634,0.0157778
1527,-0.8457031,0.5043945,0.1108398,27.8048782,-30.9146347,-1.8292683,0.0198062
1528,-0.8535156,0.5087891,0.0961914,33.0487823,-32.4390259,-2.6219513,0.0154421
1529,-0.8637695,0.5239258,0.0742188,34.4512215,-32.9268303,-2.6829269,0.011078
1530,-0.8613281,0.5493164,0.0595703,36.7073174,-33.6585388,-2.9268293,0.0090639
1531,-0.8554688,0.5615234,0.0458984,36.8292694,-34.3902435,-3.1097562,0.0050355
