,Application:, Trigno Discover (1.6.5),Unnamed: 2,Unnamed: 3,Unnamed: 4,Unnamed: 5,Unnamed: 6
0,Date/Time:, 28/01/2025 14:43:53,,,,,
1,Collection Length (seconds):,44.6985,,,,,
2,wrist (81457), , , , , , bicep (81139)
3,sensor mode: 609, , , , , , sensor mode: 40
4,ACC X (G), ACC Y (G), ACC Z (G), GYRO X (deg/s), GYRO Y (deg/s), GYRO Z (deg/s), EMG 1 (mV)
5,370.3704 Hz, 370.3704 Hz, 370.3704 Hz, 370.3704 Hz, 370.3704 Hz, 370.3704 Hz, 2148.1481 Hz
6,-0.9301758,0.4467773,0.0415039,-12.7439032,-15.1829271,1.4634147,-0.0412909
7,-0.9272461,0.4467773,0.0400391,-13.4756098,-15.3658543,1.7073171,-0.0412909
8,-0.9335938,0.4379883,0.0439453,-13.780488,-15.5487804,1.4634147,-0.0406195
9,-0.9355469,0.4345703,0.0493164,-14.4512196,-15.7317076,1.4634147,-0.0406195
10,-0.9375,0.4321289,0.0615234,-14.7560978,-15.9756098,1.2195122,-0.0379339
11,-0.9370117,0.4291992,0.0688477,-14.8780489,-16.4024391,1.5243902,-0.0365911
12,-0.9433594,0.4287109,0.0703125,-14.6341467,-16.5243912,1.5243902,-0.0406195
13,-0.9423828,0.4326172,0.0634766,-13.9024391,-17.0731716,1.3414634,-0.0392767
14,-0.9375,0.4414062,0.0634766,-13.7195129,-17.439024,1.4634147,-0.0365911
15,-0.9394531,0.4492188,0.0600586,-13.9634151,-17.3780499,1.5243902,-0.0352483
16,-0.9418945,0.4482422,0.059082,-14.4512196,-18.1097565,1.7682927,-0.0365911
17,-0.9389648,0.4370117,0.0595703,-15,-18.2926826,1.8902439,-0.0392767
18,-0.9399414,0.4301758,0.0625,-14.8780489,-18.2317085,2.5,-0.0379339
19,-0.9448242,0.4243164,0.0698242,-14.9390249,-18.5975609,2.5,-0.0328985
20,-0.9453125,0.421875,0.0771484,-14.6951227,-18.9634151,2.7439024,-0.0386053
21,-0.9414062,0.4160156,0.0898438,-14.2682934,-19.3902435,2.5,-0.0379339
22,-0.9418945,0.4169922,0.0864258,-14.2073174,-19.5121956,2.7439024,-0.0372625
23,-0.9453125,0.418457,0.0810547,-14.0853662,-19.3902435,3.1707318,-0.0379339
24,-0.9428711,0.4233398,0.0844727,-13.9634151,-19.8780499,3.1707318,-0.0365911
25,-0.9335938,0.4287109,0.0966797,-13.5975609,-20.4878044,2.8658538,-0.0339055
26,-0.9384766,0.4370117,0.0947266,-13.4146347,-20.4268303,2.9268293,-0.0365911
27,-0.9345703,0.440918,0.0883789,-13.4146347,-20.3658543,3.4146342,-0.0372625
28,-0.9301758,0.4399414,0.0864258,-13.5975609,-20.4878044,3.5365853,-0.0369268
29,-0.9282227,0.4389648,0.0849609,-14.5121956,-20.5487804,3.6585367,-0.0392767
30,-0.9267578,0.4316406,0.0859375,-14.7560978,-20.1829281,3.7195122,-0.0406195
31,-0.9233398,0.4267578,0.090332,-15.6097565,-20.060976,3.5975611,-0.0386053
32,-0.9248047,0.4121094,0.0981445,-16.0975609,-20,4.3292685,-0.0392767
33,-0.9316406,0.4135742,0.1015625,-15.9756098,-19.8780499,4.8780489,-0.0386053
34,-0.9326172,0.4003906,0.1030273,-15.060976,-19.3902435,5.4268293,-0.0345769
35,-0.9370117,0.4033203,0.1035156,-14.7560978,-19.6951218,5.4878049,-0.0339055
36,-0.9433594,0.4077148,0.1098633,-13.841464,-19.7560978,5.3658538,-0.0352483
37,-0.9399414,0.4145508,0.1157227,-13.5975609,-19.7560978,5.5487804,-0.0332341
38,-0.9428711,0.4199219,0.1123047,-12.4390249,-20.3658543,5.7926831,-0.0305486
39,-0.9379883,0.4248047,0.1132812,-12.3780489,-20.3048782,5.7926831,-0.03122
40,-0.9350586,0.4248047,0.1142578,-11.9512196,-20,6.280488,-0.03122
41,-0.925293,0.4248047,0.1181641,-12.0731707,-20,6.5853658,-0.0339055
42,-0.9238281,0.4233398,0.1201172,-11.8292685,-20.1829281,6.5243902,-0.0345769
43,-0.9243164,0.4208984,0.1230469,-12.2560978,-19.8780499,6.6463418,-0.0332341
44,-0.9233398,0.4223633,0.1240234,-12.3170738,-19.8780499,6.7682929,-0.0352483
45,-0.9257812,0.4213867,0.1132812,-11.8292685,-20.1219521,7.1341467,-0.0352483
46,-0.9243164,0.4223633,0.1040039,-12.0121956,-19.8780499,7.3170733,-0.0352483
47,-0.9189453,0.4233398,0.0976562,-12.4390249,-19.939024,7.0731707,-0.0386053
48,-0.9091797,0.425293,0.1074219,-12.560976,-20.1219521,7.2560978,-0.0396124
49,-0.9042969,0.425293,0.109375,-12.560976,-20.060976,6.7073174,-0.0392767
50,-0.8964844,0.4306641,0.1123047,-12.6219511,-20.3658543,6.5243902,-0.0406195
51,-0.8930664,0.4370117,0.1098633,-12.8048782,-20.4268303,6.5853658,-0.0392767
52,-0.8925781,0.4477539,0.0986328,-13.0487804,-20.060976,6.8292685,-0.0406195
53,-0.887207,0.4487305,0.0942383,-13.7195129,-20.2439022,6.890244,-0.0406195
54,-0.8881836,0.4516602,0.0795898,-14.2682934,-20,6.9512196,-0.0372625
55,-0.8925781,0.4526367,0.0771484,-14.5731707,-19.7560978,6.890244,-0.0345769
56,-0.8979492,0.4521484,0.078125,-15.6097565,-19.939024,6.9512196,-0.0339055
57,-0.8994141,0.4516602,0.0756836,-16.0365849,-20,7.0121951,-0.0332341
58,-0.9086914,0.4467773,0.0795898,-16.9512196,-20.060976,7.2560978,-0.0325628
59,-0.9199219,0.4418945,0.0874023,-17.3170738,-20.1829281,7.0121951,-0.0345769
60,-0.9228516,0.4379883,0.0917969,-17.9878044,-20.1829281,6.8292685,-0.0328985
61,-0.9257812,0.4316406,0.1079102,-18.4756107,-20.3048782,6.8292685,-0.0352483
62,-0.9248047,0.4243164,0.1123047,-18.4146347,-20.5487804,6.0365853,-0.0365911
63,-0.9228516,0.4194336,0.1235352,-18.2926826,-20.6707325,6.280488,-0.0365911
64,-0.9243164,0.4125977,0.1259766,-18.5975609,-21.1585369,6.0365853,-0.0379339
65,-0.9223633,0.4057617,0.140625,-18.1097565,-21.4024391,6.0975609,-0.0379339
66,-0.9272461,0.4038086,0.144043,-17.6829281,-21.280489,6.280488,-0.0392767
67,-0.9199219,0.4038086,0.1450195,-16.6463413,-21.6463413,5.7926831,-0.0372625
68,-0.9199219,0.4052734,0.1391602,-15.7926836,-21.6463413,5.670732,-0.0352483
69,-0.9189453,0.4140625,0.1313477,-14.5121956,-21.7073174,6.0975609,-0.0352483
70,-0.9165039,0.4223633,0.125,-13.9634151,-21.6463413,6.280488,-0.0365911
71,-0.90625,0.425293,0.1240234,-13.780488,-22.0121956,6.4024391,-0.0352483
72,-0.9018555,0.4272461,0.1308594,-13.780488,-22.2560978,6.5243902,-0.0352483
73,-0.9003906,0.4291992,0.1293945,-13.2317076,-22.0121956,6.4634147,-0.0392767
74,-0.8935547,0.4267578,0.1293945,-13.4146347,-21.8902435,6.7073174,-0.0412909
75,-0.8916016,0.4272461,0.1313477,-14.2073174,-21.7073174,6.9512196,-0.0419623
76,-0.8891602,0.4223633,0.1289062,-14.0853662,-21.5243912,7.6219516,-0.0439765
77,-0.8935547,0.4262695,0.125,-13.841464,-21.5243912,7.7439027,-0.0433051
78,-0.8911133,0.4379883,0.1259766,-13.6585369,-21.280489,8.0487804,-0.0406195
79,-0.8935547,0.4404297,0.1220703,-13.9024391,-21.280489,7.9878049,-0.0412909
80,-0.8959961,0.4487305,0.1157227,-13.841464,-21.2195129,7.6829271,-0.0426337
81,-0.9023438,0.4521484,0.109375,-14.2073174,-21.3414631,7.9878049,-0.0453193
82,-0.8984375,0.4492188,0.1108398,-14.6951227,-21.3414631,8.1707315,-0.0459907
83,-0.8989258,0.4472656,0.1025391,-14.4512196,-21.0975609,8.2317076,-0.0466621
84,-0.8979492,0.4501953,0.0952148,-14.2682934,-21.6463413,8.9634151,-0.0480049
85,-0.8994141,0.4501953,0.0849609,-13.9634151,-21.7073174,8.719512,-0.0513619
86,-0.8945312,0.4477539,0.0830078,-13.9634151,-21.7073174,9.0853662,-0.0503548
87,-0.8867188,0.4555664,0.0869141,-14.4512196,-22.2560978,9.0853662,-0.049012
88,-0.8769531,0.4555664,0.0942383,-14.5731707,-22.439024,8.719512,-0.0473335
89,-0.8735352,0.4643555,0.1005859,-14.5731707,-22.3780499,8.841464,-0.0486763
90,-0.8686523,0.4658203,0.0981445,-15.1219511,-22.0731716,9.0243902,-0.0527047
91,-0.859375,0.4672852,0.1040039,-16.0975609,-21.9512196,9.2073174,-0.0513619
92,-0.8686523,0.4614258,0.109375,-16.7073174,-21.7682934,9.4512196,-0.0540475
93,-0.8710938,0.4609375,0.1166992,-17.8048782,-21.5853672,9.5731707,-0.056733
94,-0.8745117,0.4458008,0.1230469,-18.9024391,-21.6463413,9.5731707,-0.056733
95,-0.8740234,0.4355469,0.1293945,-19.4512196,-20.9146347,10,-0.0547189
96,-0.8808594,0.4145508,0.128418,-19.3292694,-20.8536587,10,-0.0584115
97,-0.878418,0.4111328,0.1313477,-18.7195129,-21.0975609,10.1219511,-0.06009
98,-0.8789062,0.4086914,0.1352539,-18.0487804,-21.1585369,9.8170738,-0.0607614
99,-0.8740234,0.4101562,0.1396484,-17.6829281,-21.1585369,9.6341467,-0.0587472
100,-0.8735352,0.4082031,0.1381836,-17.2560978,-21.0975609,9.3902445,-0.0574044
101,-0.8735352,0.4135742,0.1411133,-16.8292694,-21.0365868,9.1463413,-0.0543832
102,-0.8701172,0.4194336,0.1337891,-15.9756098,-20.7926826,9.7560978,-0.0520333
103,-0.8666992,0.4306641,0.1186523,-16.0365849,-20.6097565,9.8780489,-0.0540475
104,-0.8652344,0.4360352,0.1147461,-16.280489,-20.3658543,10,-0.0513619
105,-0.8686523,0.4321289,0.1166992,-16.5853653,-20.1829281,9.9390249,-0.0540475
106,-0.8701172,0.4272461,0.1166992,-17.3780499,-20.2439022,10.4878054,-0.0533761
107,-0.8735352,0.4155273,0.1220703,-17.439024,-19.8780499,10.6707315,-0.0520333
108,-0.8725586,0.4121094,0.1308594,-17.6219521,-19.8780499,10.7317076,-0.0527047
109,-0.8725586,0.4038086,0.1303711,-17.0121956,-19.6341476,10.1829271,-0.0547189
110,-0.8730469,0.402832,0.1303711,-16.7682934,-19.6951218,10.3048782,-0.0500191
111,-0.8740234,0.409668,0.1342773,-16.0365849,-19.8170738,10.060976,-0.0500191
112,-0.8759766,0.4101562,0.1342773,-15.7926836,-19.5121956,10.1829271,-0.0466621
113,-0.875,0.4140625,0.1323242,-14.6341467,-19.4512196,9.9390249,-0.0433051
114,-0.8647461,0.4272461,0.1328125,-14.5121956,-19.6341476,9.7560978,-0.0426337
115,-0.8652344,0.4277344,0.1308594,-14.4512196,-19.0853672,9.6341467,-0.0392767
116,-0.8603516,0.4291992,0.1274414,-14.6341467,-18.9634151,9.6341467,-0.0433051
117,-0.8564453,0.4331055,0.121582,-14.8780489,-18.7195129,9.9390249,-0.0409552
118,-0.8476562,0.4277344,0.1171875,-15.060976,-18.2926826,9.9390249,-0.0419623
119,-0.8442383,0.4262695,0.1157227,-15.6097565,-18.0487804,9.4512196,-0.0433051
120,-0.8339844,0.4331055,0.1176758,-15.3048782,-17.6829281,8.5975609,-0.0406195
121,-0.8398438,0.4365234,0.1181641,-15.3658543,-17.2560978,8.4756098,-0.0399481
122,-0.8432617,0.4443359,0.1147461,-15.5487804,-17.0731716,8.5975609,-0.0386053
123,-0.8422852,0.4477539,0.1103516,-15.8536587,-16.8902435,8.4146347,-0.0379339
124,-0.8461914,0.4506836,0.1132812,-16.5853653,-16.5243912,8.2926826,-0.0386053
125,-0.8520508,0.4516602,0.0996094,-16.9512196,-16.280489,8.0487804,-0.0392767
126,-0.8588867,0.4477539,0.0957031,-17.6219521,-16.1585369,8.4146347,-0.0406195
127,-0.8637695,0.4379883,0.1079102,-18.3536587,-16.1585369,8.4146347,-0.0409552
128,-0.8598633,0.4301758,0.1201172,-19.0853672,-16.4634151,8.1097565,-0.0406195
129,-0.8608398,0.4140625,0.1376953,-18.9634151,-16.4024391,7.8048782,-0.042298
130,-0.8671875,0.40625,0.1450195,-18.5975609,-15.9756098,7.7439027,-0.0382696
131,-0.8696289,0.4042969,0.1425781,-17.3170738,-16.5853653,7.6829271,-0.0386053
132,-0.8720703,0.4057617,0.1386719,-16.5853653,-16.4024391,7.4390244,-0.0386053
133,-0.8740234,0.4116211,0.1225586,-15.1219511,-16.2195129,6.7682929,-0.0386053
134,-0.8710938,0.4130859,0.1098633,-14.7560978,-16.5853653,6.4634147,-0.0406195
135,-0.8740234,0.4282227,0.1074219,-14.6341467,-17.3170738,6.0975609,-0.0406195
136,-0.862793,0.4262695,0.1108398,-14.4512196,-17.1951218,6.280488,-0.0412909
137,-0.8569336,0.4204102,0.1137695,-14.4512196,-17.3780499,6.4634147,-0.0419623
138,-0.8486328,0.4243164,0.1166992,-14.3292685,-17.1341476,6.4634147,-0.0406195
139,-0.8417969,0.421875,0.1137695,-14.5121956,-17.1341476,6.4634147,-0.0406195
140,-0.8364258,0.425293,0.1123047,-14.4512196,-17.0731716,5.670732,-0.0466621
141,-0.8388672,0.4296875,0.1171875,-14.5731707,-16.9512196,5.4268293,-0.0476692
142,-0.8354492,0.4306641,0.1230469,-13.9634151,-16.8902435,5.1219511,-0.0433051
143,-0.8422852,0.4326172,0.1186523,-13.9024391,-16.5853653,5.3048782,-0.0433051
144,-0.8393555,0.4404297,0.1176758,-14.5121956,-16.3414631,5.609756,-0.0433051
145,-0.8388672,0.4365234,0.1171875,-14.6951227,-16.3414631,5.609756,-0.0439765
146,-0.8417969,0.4287109,0.1201172,-15.1829271,-15.6707325,5.5487804,-0.0416266
147,-0.8457031,0.4257812,0.128418,-15.060976,-15.4268293,5.3048782,-0.0379339
148,-0.8520508,0.4267578,0.1308594,-14.5121956,-14.9390249,5.3048782,-0.0365911
149,-0.8525391,0.4208984,0.1367188,-14.5731707,-14.5731707,5.3048782,-0.0379339
150,-0.8520508,0.421875,0.1391602,-14.3292685,-14.6341467,5.2439027,-0.0379339
151,-0.8486328,0.4282227,0.1503906,-13.841464,-14.6951227,4.8780489,-0.0386053
152,-0.8500977,0.4291992,0.1533203,-13.4756098,-14.3292685,4.3292685,-0.0379339
153,-0.8540039,0.4394531,0.1494141,-13.7195129,-14.0853662,3.7804878,-0.0419623
154,-0.8564453,0.4448242,0.1479492,-13.6585369,-13.5975609,3.9634147,-0.0412909
155,-0.855957,0.4487305,0.1435547,-14.2682934,-13.3536587,3.9634147,-0.0426337
156,-0.8588867,0.4477539,0.1411133,-14.5731707,-13.0487804,3.8414636,-0.0439765
157,-0.8608398,0.4389648,0.1479492,-15,-12.6829271,4.0243902,-0.0446479
158,-0.8647461,0.4306641,0.1455078,-15.2439032,-12.8048782,4.0853658,-0.0426337
159,-0.8686523,0.434082,0.1450195,-14.2682934,-12.4390249,3.5975611,-0.0419623
160,-0.8730469,0.4370117,0.1445312,-13.7195129,-12.6219511,3.5975611,-0.0433051
161,-0.8740234,0.4355469,0.1459961,-12.9268293,-12.9878054,3.4756098,-0.0419623
162,-0.8706055,0.4448242,0.1503906,-12.560976,-12.8048782,3.0487804,-0.0433051
163,-0.8764648,0.4433594,0.1518555,-12.5,-12.7439032,3.0487804,-0.0463264
164,-0.8735352,0.4433594,0.1474609,-12.1341467,-12.7439032,3.2317073,-0.0493477
165,-0.8725586,0.4477539,0.1474609,-12.3170738,-12.7439032,3.1097562,-0.0513619
166,-0.8623047,0.4467773,0.1660156,-12.8658543,-13.0487804,3.1097562,-0.049012
167,-0.8603516,0.4443359,0.1704102,-13.1097565,-12.8658543,2.8658538,-0.0493477
168,-0.8598633,0.4384766,0.1660156,-13.1707315,-12.1951218,2.6829269,-0.0506905
169,-0.8613281,0.440918,0.1757812,-13.1097565,-11.9512196,2.804878,-0.0426337
170,-0.8642578,0.4423828,0.1728516,-12.1951218,-12.2560978,2.804878,-0.0436408
171,-0.8681641,0.4467773,0.1621094,-11.6463413,-11.9512196,2.7439024,-0.0459907
172,-0.8759766,0.4506836,0.1552734,-10.5487804,-11.8292685,2.5609756,-0.0446479
173,-0.887207,0.4511719,0.1435547,-9.8780489,-12.3780489,2.5609756,-0.0473335
174,-0.8823242,0.4472656,0.1367188,-9.8170738,-12.2560978,3.1707318,-0.0459907
175,-0.871582,0.4394531,0.1381836,-9.4512196,-12.8658543,3.1097562,-0.0459907
176,-0.8603516,0.4375,0.1401367,-9.4512196,-12.9878054,3.1707318,-0.0466621
177,-0.8544922,0.4365234,0.1479492,-8.2926826,-12.9878054,2.3780489,-0.0446479
178,-0.8500977,0.440918,0.1499023,-8.0487804,-12.8048782,2.3780489,-0.0426337
179,-0.8427734,0.4555664,0.1523438,-7.6219516,-12.9268293,2.7439024,-0.0466621
180,-0.8417969,0.4628906,0.15625,-7.9878049,-12.6219511,2.3170731,-0.0486763
181,-0.8383789,0.4682617,0.1552734,-8.5365858,-12.4390249,2.3780489,-0.0453193
182,-0.8476562,0.4619141,0.1362305,-8.6585369,-12.1341467,2.804878,-0.0480049
183,-0.8398438,0.4555664,0.1323242,-9.3902445,-12.1951218,3.4146342,-0.0433051
184,-0.8398438,0.440918,0.1401367,-10.060976,-11.9512196,3.4756098,-0.0459907
185,-0.8369141,0.4350586,0.1479492,-9.8780489,-12.0731707,3.1707318,-0.0439765
186,-0.8364258,0.4311523,0.1542969,-8.9024391,-11.7073174,2.8658538,-0.0453193
187,-0.8378906,0.4331055,0.1557617,-8.4756098,-11.7073174,2.9268293,-0.0473335
188,-0.84375,0.4399414,0.1557617,-7.8658538,-11.341464,2.8658538,-0.0513619
189,-0.8496094,0.4487305,0.1538086,-7.8658538,-10.8536587,2.804878,-0.0493477
190,-0.859375,0.4521484,0.1499023,-8.2317076,-10.6097565,2.9878049,-0.0486763
191,-0.8691406,0.4536133,0.1523438,-8.5365858,-10.7317076,3.1707318,-0.0459907
192,-0.8710938,0.4516602,0.1523438,-8.9634151,-10.6097565,3.4146342,-0.0473335
193,-0.8730469,0.4492188,0.1591797,-9.1463413,-10.6097565,3.5365853,-0.0476692
194,-0.8754883,0.4448242,0.1606445,-9.5731707,-10.3658543,3.2926829,-0.0486763
195,-0.8764648,0.4370117,0.1679688,-10.060976,-10.060976,3.4146342,-0.0473335
196,-0.878418,0.4287109,0.1733398,-10.1219511,-9.9390249,3.2317073,-0.0480049
197,-0.8764648,0.4189453,0.1826172,-8.9024391,-9.5731707,3.4146342,-0.0446479
198,-0.8779297,0.4194336,0.1845703,-8.4146347,-9.9390249,3.4146342,-0.0412909
199,-0.8759766,0.4257812,0.1904297,-7.0731707,-9.9390249,3.2926829,-0.0409552
200,-0.8847656,0.4404297,0.1865234,-6.0975609,-9.7560978,3.1097562,-0.0433051
201,-0.887207,0.4501953,0.1899414,-5.0609756,-9.4512196,3.3536587,-0.0433051
202,-0.8833008,0.4682617,0.1801758,-4.390244,-9.6341467,3.0487804,-0.042298
203,-0.8808594,0.4707031,0.1733398,-4.7560978,-9.6951218,3.1097562,-0.0426337
204,-0.8803711,0.4692383,0.1694336,-5.0609756,-9.6951218,3.1707318,-0.0412909
205,-0.8823242,0.4648438,0.1708984,-5.1829271,-9.3292685,3.4146342,-0.0379339
206,-0.8740234,0.4506836,0.1767578,-5.7926831,-9.2682924,3.9024391,-0.0359197
207,-0.8706055,0.4467773,0.1816406,-5.2439027,-9.3902445,4.0853658,-0.0386053
208,-0.8745117,0.4423828,0.1992188,-4.2073174,-9.2682924,4.0853658,-0.0412909
209,-0.8808594,0.4404297,0.203125,-3.5365853,-9.3292685,3.9634147,-0.0406195
210,-0.8857422,0.453125,0.1948242,-2.2560976,-8.9024391,3.9634147,-0.0379339
211,-0.8935547,0.4633789,0.184082,-1.5243902,-9.0853662,4.0853658,-0.0392767
212,-0.8955078,0.4672852,0.1772461,-0.0609756,-9.6341467,4.6951222,-0.0436408
213,-0.8911133,0.4672852,0.1733398,-0.0609756,-9.9390249,4.7560978,-0.0409552
214,-0.8847656,0.4614258,0.1660156,1.0365853,-10.8536587,5,-0.0419623
215,-0.878418,0.4672852,0.1469727,1.5243902,-10.9756098,5.3658538,-0.0426337
216,-0.8706055,0.4716797,0.1411133,2.195122,-11.1585369,5.8536587,-0.0419623
217,-0.8618164,0.4785156,0.1401367,2.4390244,-11.5243902,5.609756,-0.0433051
218,-0.8574219,0.4765625,0.1411133,2.5609756,-11.7073174,5.3048782,-0.0446479
219,-0.855957,0.4887695,0.1411133,2.804878,-11.280488,5.3658538,-0.0459907
220,-0.8564453,0.4995117,0.1416016,2.6219513,-11.7073174,5.4878049,-0.0466621
221,-0.8588867,0.5112305,0.140625,2.3780489,-11.4634151,5.5487804,-0.0449836
222,-0.8720703,0.5151367,0.1416016,2.1341465,-11.219512,5.7317076,-0.0473335
223,-0.8730469,0.5117188,0.1479492,0.8536586,-11.7073174,6.4024391,-0.0500191
224,-0.8759766,0.4985352,0.1611328,-0.1219512,-12.0121956,6.7073174,-0.0500191
225,-0.875,0.484375,0.1679688,-0.7317073,-12.1951218,7.1341467,-0.0500191
226,-0.8725586,0.4628906,0.1743164,-0.8536586,-12.560976,7.5609756,-0.0520333
227,-0.8696289,0.4560547,0.1777344,-0.5487805,-12.3780489,7.5,-0.0527047
228,-0.8710938,0.4506836,0.1835938,0.7926829,-12.4390249,7.1951222,-0.0486763
229,-0.8759766,0.4550781,0.1787109,1.1585366,-12.3170738,7.0731707,-0.0466621
230,-0.8808594,0.4609375,0.1743164,2.5609756,-12.8048782,7.0121951,-0.0449836
231,-0.8740234,0.4633789,0.1791992,3.0487804,-13.0487804,7.3780489,-0.0419623
232,-0.8735352,0.4746094,0.1801758,4.1463413,-13.2317076,7.0731707,-0.0433051
233,-0.8637695,0.4897461,0.1762695,4.5121951,-13.2926836,7.1341467,-0.0433051
234,-0.8618164,0.4951172,0.1713867,4.5121951,-13.2317076,7.5609756,-0.0446479
235,-0.8579102,0.5014648,0.1708984,4.2682929,-13.4146347,7.6219516,-0.0459907
236,-0.8540039,0.4970703,0.168457,3.1097562,-13.7195129,7.9878049,-0.0446479
237,-0.8510742,0.487793,0.1650391,2.8658538,-13.2926836,8.1707315,-0.0439765
238,-0.847168,0.4819336,0.1655273,1.5853659,-13.4146347,9.0853662,-0.0466621
239,-0.8496094,0.4741211,0.1694336,1.1585366,-12.5,9.4512196,-0.0426337
240,-0.8447266,0.472168,0.1772461,0.5487805,-12.0731707,9.6341467,-0.0439765
241,-0.8530273,0.4682617,0.1821289,0.8536586,-11.6463413,9.5731707,-0.0416266
242,-0.8613281,0.4672852,0.1870117,0.6707317,-11.5853662,9.5121956,-0.0396124
243,-0.8701172,0.4755859,0.1875,1.4634147,-11.7073174,9.3292685,-0.0463264
244,-0.8745117,0.4770508,0.1811523,1.5243902,-11.8292685,9.5121956,-0.0469978
245,-0.8701172,0.4765625,0.1787109,1.7073171,-12.0121956,9.9390249,-0.0446479
246,-0.8603516,0.46875,0.1791992,1.5853659,-12.0731707,10.2439022,-0.0459907
247,-0.8544922,0.4667969,0.1826172,1.3414634,-12.1341467,10.6097565,-0.0500191
248,-0.8515625,0.4716797,0.1811523,1.5853659,-12.0121956,10.5487804,-0.0493477
249,-0.8466797,0.4755859,0.1821289,1.9512196,-11.4024391,10.5487804,-0.0446479
250,-0.8510742,0.4838867,0.1904297,2.3780489,-11.219512,10.7317076,-0.0486763
251,-0.8525391,0.4882812,0.1938477,2.3780489,-11.280488,10.9146347,-0.0466621
252,-0.8569336,0.4995117,0.1962891,2.195122,-11.1585369,11.4634151,-0.0433051
253,-0.8632812,0.4926758,0.1958008,2.0121951,-11.0975609,11.6463413,-0.0426337
254,-0.871582,0.4868164,0.1977539,2.3170731,-10.6707315,12.1341467,-0.0409552
255,-0.8754883,0.4716797,0.1977539,2.0731707,-10.8536587,12.6219511,-0.0426337
256,-0.871582,0.46875,0.203125,2.7439024,-11.341464,13.0487804,-0.0459907
257,-0.859375,0.4584961,0.1918945,3.2926829,-11.280488,13.2317076,-0.0433051
258,-0.8579102,0.4624023,0.1899414,4.6951222,-11.219512,13.5365858,-0.0419623
259,-0.8530273,0.4692383,0.1875,5.4878049,-11.1585369,13.7195129,-0.0406195
260,-0.8486328,0.4804688,0.1850586,7.3780489,-10.8536587,13.7195129,-0.0392767
261,-0.8598633,0.503418,0.1791992,8.5365858,-10.7926836,13.5365858,-0.0386053
262,-0.8657227,0.519043,0.1713867,8.9024391,-10.4878054,13.2926836,-0.0365911
263,-0.8691406,0.5273438,0.1704102,9.0853662,-11.6463413,13.4146347,-0.0386053
264,-0.8686523,0.5297852,0.1689453,9.1463413,-11.8292685,13.7195129,-0.0379339
265,-0.8574219,0.5361328,0.1635742,8.780488,-12.560976,14.7560978,-0.0379339
266,-0.8383789,0.5336914,0.1513672,7.5,-12.4390249,15.1219511,-0.0369268
267,-0.8320312,0.5288086,0.15625,5.7926831,-11.9512196,15.3658543,-0.0379339
268,-0.8339844,0.5131836,0.1723633,5.1219511,-11.7073174,14.7560978,-0.0392767
269,-0.8422852,0.5053711,0.175293,5.1219511,-11.280488,13.9634151,-0.0412909
270,-0.8535156,0.5063477,0.184082,5.609756,-10.9146347,14.1463413,-0.0446479
271,-0.862793,0.5117188,0.1811523,6.4634147,-11.5243902,14.1463413,-0.0459907
272,-0.862793,0.5200195,0.1713867,6.890244,-12.3170738,14.4512196,-0.0473335
273,-0.8613281,0.5268555,0.171875,6.890244,-12.7439032,14.6341467,-0.0446479
274,-0.8613281,0.5400391,0.1694336,5.1219511,-12.9268293,14.0243902,-0.0449836
275,-0.8613281,0.5341797,0.1630859,4.5121951,-13.2926836,13.780488,-0.0449836
276,-0.8510742,0.4868164,0.1655273,4.4512196,-13.9024391,14.3292685,-0.0453193
277,-0.8432617,0.4589844,0.1767578,5.1219511,-13.7195129,14.8170738,-0.0459907
278,-0.8457031,0.4560547,0.1787109,7.4390244,-13.2317076,15.6097565,-0.0419623
279,-0.8496094,0.4677734,0.1772461,8.5975609,-12.7439032,15.6707325,-0.0406195
280,-0.8544922,0.4736328,0.1791992,10.9146347,-13.2926836,15.2439032,-0.0436408
281,-0.8608398,0.4975586,0.1782227,11.7682934,-13.5365858,15,-0.0453193
282,-0.8579102,0.5078125,0.1757812,12.4390249,-14.0243902,14.6951227,-0.0466621
283,-0.8530273,0.5273438,0.1738281,12.6219511,-14.2073174,15.1829271,-0.0486763
284,-0.84375,0.5288086,0.1748047,12.5,-14.2073174,15.060976,-0.0493477
285,-0.8193359,0.5292969,0.1826172,11.1585369,-14.1463413,14.3902445,-0.0540475
286,-0.809082,0.5219727,0.1879883,10.3658543,-13.9024391,14.0853662,-0.0574044
287,-0.8017578,0.5141602,0.1933594,9.3292685,-13.0487804,13.9024391,-0.0580758
288,-0.7998047,0.5131836,0.1835938,9.0243902,-12.9878054,13.7195129,-0.0574044
289,-0.8041992,0.5087891,0.1733398,9.0853662,-12.5,13.9634151,-0.0570687
290,-0.8041992,0.5073242,0.1611328,8.9634151,-12.6219511,14.0853662,-0.0597543
291,-0.8032227,0.5019531,0.1582031,8.5975609,-12.9878054,13.7195129,-0.0594186
292,-0.8032227,0.4926758,0.1455078,8.3536587,-12.9878054,13.5975609,-0.0594186
293,-0.800293,0.4960938,0.1347656,7.8658538,-12.560976,13.5975609,-0.0594186
294,-0.796875,0.5019531,0.1269531,7.0731707,-12.0121956,12.9878054,-0.0594186
295,-0.7993164,0.5107422,0.1303711,6.0365853,-11.8902445,12.3780489,-0.0594186
296,-0.8129883,0.5229492,0.1425781,4.6951222,-11.4024391,11.7073174,-0.0553902
297,-0.8208008,0.5229492,0.1489258,4.1463413,-11.1585369,11.5243902,-0.0547189
298,-0.8378906,0.5214844,0.1674805,2.9268293,-11.4634151,12.1951218,-0.0527047
299,-0.840332,0.4975586,0.1865234,2.9268293,-11.5243902,12.6219511,-0.0493477
300,-0.8359375,0.4819336,0.1962891,4.0243902,-12.0121956,13.5365858,-0.0520333
301,-0.8286133,0.4541016,0.199707,4.9390244,-12.0121956,13.841464,-0.0513619
302,-0.8276367,0.4492188,0.1938477,7.4390244,-11.8292685,13.5365858,-0.0513619
303,-0.824707,0.4736328,0.1757812,8.3536587,-11.9512196,13.2317076,-0.0513619
304,-0.8232422,0.4873047,0.1674805,9.0853662,-12.0121956,12.0731707,-0.0500191
305,-0.831543,0.5209961,0.1503906,9.3902445,-12.3780489,11.7682934,-0.0486763
306,-0.8310547,0.543457,0.1469727,9.4512196,-12.1341467,11.8292685,-0.0493477
307,-0.824707,0.574707,0.1318359,7.7439027,-12.1341467,11.0975609,-0.0476692
308,-0.8222656,0.5786133,0.1254883,6.7682929,-11.8292685,10.6707315,-0.0513619
309,-0.8168945,0.581543,0.121582,4.0853658,-11.7073174,10.7317076,-0.0527047
310,-0.8198242,0.5766602,0.1245117,2.7439024,-11.341464,10.9146347,-0.0503548
311,-0.8227539,0.5717773,0.1245117,0.1829268,-11.219512,11.0975609,-0.0476692
312,-0.824707,0.5512695,0.1298828,-0.4878049,-11.0975609,11.0975609,-0.0506905
313,-0.8286133,0.5410156,0.1293945,-2.1341465,-10.8536587,10.7317076,-0.0506905
314,-0.8388672,0.5214844,0.1323242,-2.5,-11.4024391,10.3048782,-0.0513619
315,-0.8388672,0.5161133,0.1313477,-2.3170731,-11.6463413,10.3658543,-0.0500191
316,-0.8476562,0.5288086,0.1254883,-1.8292683,-11.219512,10.3048782,-0.0500191
317,-0.8540039,0.5410156,0.1162109,-1.402439,-11.4634151,10.060976,-0.0493477
318,-0.859375,0.5561523,0.1157227,-2.5,-11.5243902,9.3902445,-0.0513619
319,-0.8603516,0.5605469,0.1210938,-3.2926829,-11.6463413,9.2073174,-0.0527047
320,-0.8515625,0.5532227,0.1337891,-4.2073174,-11.8292685,9.8780489,-0.0473335
321,-0.8354492,0.5405273,0.1479492,-5,-12.0731707,10,-0.0466621
322,-0.8325195,0.5395508,0.1508789,-5.7926831,-11.7682934,10,-0.0513619
323,-0.8188477,0.5351562,0.1577148,-6.0975609,-11.7682934,10.1829271,-0.0513619
324,-0.8120117,0.5297852,0.1645508,-6.9512196,-11.5243902,9.6341467,-0.0527047
325,-0.8105469,0.5283203,0.1708984,-6.7073174,-11.0365858,9.6341467,-0.0520333
326,-0.8120117,0.5400391,0.1689453,-6.6463418,-11.219512,9.7560978,-0.0533761
327,-0.8237305,0.5585938,0.15625,-6.7682929,-10.8536587,9.5121956,-0.0540475
328,-0.8266602,0.5605469,0.1503906,-7.1951222,-10.4878054,9.6951218,-0.0486763
329,-0.8261719,0.5585938,0.1499023,-8.3536587,-11.0975609,9.5121956,-0.0453193
330,-0.824707,0.5576172,0.1533203,-8.841464,-10.7926836,9.6951218,-0.0446479
331,-0.8242188,0.5375977,0.1611328,-9.5121956,-10.4878054,9.4512196,-0.0486763
332,-0.8168945,0.5249023,0.1762695,-9.7560978,-10.6097565,9.3292685,-0.0473335
333,-0.8154297,0.5283203,0.1801758,-9.7560978,-10.3658543,8.9024391,-0.0406195
334,-0.828125,0.5371094,0.1762695,-9.8780489,-10.2439022,8.9634151,-0.0433051
335,-0.8320312,0.5410156,0.1674805,-10,-9.9390249,8.780488,-0.0439765
336,-0.8349609,0.550293,0.1533203,-10.4878054,-9.9390249,8.9024391,-0.0446479
337,-0.8388672,0.5493164,0.1503906,-10.8536587,-10,8.719512,-0.0433051
338,-0.8393555,0.5532227,0.1430664,-11.0365858,-10.1219511,8.5365858,-0.0433051
339,-0.8359375,0.5522461,0.140625,-11.7682934,-10.1829271,8.4146347,-0.0419623
340,-0.8383789,0.550293,0.1386719,-11.8902445,-10.060976,8.3536587,-0.0412909
341,-0.8378906,0.5512695,0.1328125,-12.3780489,-9.6341467,8.2926826,-0.0433051
342,-0.8300781,0.5522461,0.1328125,-13.1707315,-9.6951218,7.4390244,-0.0439765
343,-0.8286133,0.5571289,0.1289062,-13.9024391,-9.5731707,7.4390244,-0.0449836
344,-0.8286133,0.5576172,0.1279297,-15.2439032,-9.3902445,7.1341467,-0.0446479
345,-0.831543,0.5532227,0.1181641,-15.7926836,-8.9634151,7.0731707,-0.0446479
346,-0.8271484,0.5546875,0.1123047,-17.1341476,-8.841464,7.4390244,-0.0473335
347,-0.8237305,0.550293,0.105957,-18.7195129,-8.9024391,7.0731707,-0.0459907
348,-0.8251953,0.5517578,0.1069336,-19.7560978,-8.5975609,6.9512196,-0.0480049
349,-0.8320312,0.5571289,0.1123047,-21.280489,-8.1097565,6.6463418,-0.0513619
350,-0.8300781,0.5581055,0.1176758,-22.3170738,-7.8048782,6.280488,-0.0520333
351,-0.8300781,0.5532227,0.1318359,-24.2682934,-7.7439027,5.7926831,-0.0500191
352,-0.8276367,0.5507812,0.1386719,-25.4878063,-7.1951222,5.7317076,-0.0513619
353,-0.8305664,0.5385742,0.1435547,-26.5853672,-6.9512196,5.4878049,-0.0500191
354,-0.8325195,0.5253906,0.1362305,-26.8292694,-6.5853658,5.4878049,-0.0466621
355,-0.8349609,0.5239258,0.1313477,-27.5,-6.4024391,5.4878049,-0.0486763
356,-0.8359375,0.5214844,0.128418,-27.6829281,-6.280488,5.1219511,-0.0466621
357,-0.8291016,0.5239258,0.1342773,-28.5975609,-5.9146342,4.7560978,-0.0419623
358,-0.8295898,0.5239258,0.1567383,-29.4512196,-5.9146342,3.9634147,-0.0406195
359,-0.8295898,0.5205078,0.1621094,-29.5121956,-5.3048782,4.1463413,-0.0419623
360,-0.8310547,0.527832,0.1689453,-29.2073174,-5.3048782,3.8414636,-0.049012
361,-0.8354492,0.5322266,0.1650391,-28.9024391,-5.1829271,3.7195122,-0.0469978
362,-0.8442383,0.5395508,0.1474609,-28.841465,-4.7560978,3.7195122,-0.0476692
363,-0.8447266,0.5419922,0.1367188,-28.9634151,-4.8780489,3.7195122,-0.049012
364,-0.8432617,0.5361328,0.1347656,-29.2073174,-4.8780489,3.7195122,-0.0486763
365,-0.8286133,0.5239258,0.1411133,-29.5731716,-4.9390244,3.6585367,-0.0493477
366,-0.8251953,0.5170898,0.1479492,-29.9390259,-5,3.1097562,-0.0500191
367,-0.8222656,0.5136719,0.1572266,-30.060976,-4.9390244,2.7439024,-0.0446479
368,-0.8203125,0.5146484,0.1508789,-29.7560978,-4.4512196,2.3780489,-0.0473335
369,-0.8217773,0.5219727,0.1318359,-30.3048782,-3.9024391,2.0731707,-0.0459907
370,-0.8193359,0.5302734,0.1230469,-30.3048782,-3.6585367,2.0731707,-0.0459907
371,-0.8237305,0.5302734,0.1166992,-30.7317085,-3.5975611,1.4634147,-0.0466621
372,-0.8217773,0.5327148,0.1162109,-30.5487804,-3.7195122,1.0365853,-0.049012
373,-0.8217773,0.5419922,0.1201172,-30.6097565,-3.6585367,0.6707317,-0.0486763
374,-0.824707,0.5371094,0.1235352,-30.8536587,-3.8414636,0.6707317,-0.0506905
375,-0.8217773,0.534668,0.1293945,-31.1585369,-3.8414636,0.2439024,-0.0527047
376,-0.8232422,0.5166016,0.1484375,-31.5853672,-3.9634147,0.3048781,-0.0493477
377,-0.8227539,0.5029297,0.1484375,-31.0975609,-3.8414636,0.4268293,-0.0463264
378,-0.8286133,0.4897461,0.1538086,-30.4878063,-3.9024391,0.7317073,-0.0459907
379,-0.8300781,0.4853516,0.1542969,-29.1463413,-3.5975611,1.7073171,-0.0459907
380,-0.8310547,0.4794922,0.1518555,-27.5,-3.1097562,1.8902439,-0.0473335
381,-0.8408203,0.4804688,0.159668,-26.280489,-3.3536587,1.7682927,-0.0480049
382,-0.8510742,0.4863281,0.1645508,-25.3658543,-3.3536587,1.3414634,-0.0473335
383,-0.8554688,0.4848633,0.1733398,-24.5121956,-3.7804878,1.402439,-0.0486763
384,-0.8535156,0.4780273,0.190918,-22.3780499,-4.3292685,2.0731707,-0.0506905
385,-0.8408203,0.4790039,0.1972656,-21.3414631,-4.8170733,2.195122,-0.0503548
386,-0.8330078,0.4819336,0.1938477,-19.3292694,-4.8780489,2.5609756,-0.0500191
387,-0.8217773,0.4887695,0.1933594,-18.5975609,-4.5731707,2.5,-0.0493477
388,-0.8188477,0.4926758,0.1938477,-17.9268303,-4.3292685,2.2560976,-0.0446479
389,-0.8154297,0.5053711,0.1938477,-17.439024,-3.9024391,2.2560976,-0.0459907
390,-0.8110352,0.5097656,0.1943359,-17.3170738,-3.4756098,2.4390244,-0.0493477
391,-0.8095703,0.5180664,0.203125,-17.3780499,-3.0487804,2.2560976,-0.0449836
392,-0.8100586,0.5224609,0.2021484,-17.439024,-2.6829269,2.0731707,-0.0439765
393,-0.8217773,0.5239258,0.1889648,-17.0121956,-2.6219513,2.8658538,-0.0449836
394,-0.824707,0.5175781,0.1845703,-16.6463413,-2.6829269,2.9268293,-0.0429694
395,-0.824707,0.5126953,0.171875,-15.8536587,-2.3780489,3.7804878,-0.0426337
396,-0.8310547,0.5112305,0.1694336,-15.9146347,-2.2560976,3.8414636,-0.0392767
397,-0.8330078,0.5068359,0.1777344,-14.8170738,-2.0731707,3.6585367,-0.0379339
398,-0.8427734,0.5043945,0.1845703,-14.5731707,-2.5609756,3.4756098,-0.0365911
399,-0.8388672,0.5102539,0.1865234,-13.4146347,-3.1097562,3.2926829,-0.0379339
400,-0.8383789,0.5112305,0.1845703,-12.8048782,-2.8658538,3.6585367,-0.0352483
401,-0.8354492,0.5141602,0.1831055,-12.6219511,-2.9268293,3.4756098,-0.0332341
402,-0.8378906,0.5229492,0.1801758,-12.6219511,-2.6829269,3.4146342,-0.0339055
403,-0.8388672,0.5185547,0.1767578,-12.6219511,-2.6829269,3.1707318,-0.0365911
404,-0.8388672,0.515625,0.1699219,-11.8902445,-2.7439024,3.7195122,-0.0365911
405,-0.840332,0.512207,0.1665039,-11.6463413,-2.5,3.7804878,-0.0352483
406,-0.8427734,0.5205078,0.1625977,-11.341464,-2.7439024,3.6585367,-0.0372625
407,-0.8388672,0.5239258,0.152832,-10.9146347,-2.7439024,3.7195122,-0.0369268
408,-0.840332,0.527832,0.1489258,-11.0365858,-2.9268293,3.2317073,-0.0365911
409,-0.8457031,0.5341797,0.1337891,-10.8536587,-2.9268293,3.4756098,-0.0332341
410,-0.8452148,0.527832,0.1333008,-11.0365858,-2.804878,3.6585367,-0.0339055
411,-0.8398438,0.5327148,0.1342773,-11.5853662,-2.9878049,3.5365853,-0.0339055
412,-0.8388672,0.527832,0.1376953,-12.1951218,-3.4146342,3.7804878,-0.0325628
413,-0.8383789,0.5249023,0.1474609,-12.8048782,-3.2926829,3.4146342,-0.0342412
414,-0.8383789,0.5180664,0.1459961,-12.9268293,-3.3536587,3.9634147,-0.03122
415,-0.8349609,0.5112305,0.1430664,-13.5975609,-3.4146342,4.0853658,-0.0325628
416,-0.8305664,0.5029297,0.1381836,-13.780488,-3.4146342,3.9024391,-0.0339055
417,-0.8295898,0.4980469,0.1367188,-13.9024391,-3.4146342,3.5975611,-0.0325628
418,-0.8349609,0.4921875,0.1455078,-13.841464,-3.0487804,3.8414636,-0.0325628
419,-0.8354492,0.4912109,0.1533203,-13.3536587,-3.7195122,3.7195122,-0.0339055
420,-0.840332,0.4868164,0.1694336,-13.2317076,-3.9024391,3.7804878,-0.0352483
421,-0.8427734,0.4921875,0.171875,-12.6829271,-3.9024391,4.2682929,-0.03122
422,-0.8393555,0.4946289,0.171875,-12.6219511,-4.0243902,3.8414636,-0.0305486
423,-0.8369141,0.4946289,0.1728516,-12.560976,-4.4512196,4.390244,-0.0325628
424,-0.8276367,0.4931641,0.1665039,-12.0731707,-4.7560978,4.6341462,-0.0298772
425,-0.8212891,0.4897461,0.1669922,-12.2560978,-5.1219511,4.6341462,-0.027863
426,-0.8115234,0.4990234,0.1645508,-12.1341467,-4.9390244,4.1463413,-0.0305486
427,-0.8066406,0.4975586,0.1635742,-11.9512196,-5,3.5975611,-0.0298772
428,-0.8022461,0.5161133,0.1601562,-12.3170738,-4.6341462,3.2317073,-0.0298772
429,-0.8095703,0.527832,0.1474609,-12.6829271,-4.4512196,3.3536587,-0.03122
430,-0.8100586,0.5307617,0.144043,-14.3902445,-4.0853658,3.2317073,-0.0332341
431,-0.8164062,0.5307617,0.1420898,-14.9390249,-4.0243902,3.2926829,-0.0325628
432,-0.8232422,0.5283203,0.1381836,-16.4024391,-3.8414636,3.1097562,-0.0325628
433,-0.8339844,0.5146484,0.1381836,-17.1951218,-3.6585367,3.2317073,-0.0325628
434,-0.8388672,0.5063477,0.1376953,-17.6219521,-3.8414636,3.7195122,-0.0318914
435,-0.8369141,0.4897461,0.1450195,-17.9268303,-4.0243902,3.5975611,-0.0332341
436,-0.8378906,0.4838867,0.1499023,-17.8048782,-4.1463413,3.1707318,-0.0352483
437,-0.8339844,0.4775391,0.1572266,-17.0731716,-4.7560978,3.0487804,-0.0352483
438,-0.8344727,0.4741211,0.1542969,-16.5243912,-4.8170733,2.8658538,-0.0332341
439,-0.8320312,0.4814453,0.1567383,-15.9146347,-4.6341462,2.6219513,-0.0298772
440,-0.831543,0.4873047,0.1538086,-15.3048782,-4.6341462,2.3170731,-0.0328985
441,-0.8300781,0.4931641,0.1508789,-15.4268293,-5.1829271,2.195122,-0.0271916
442,-0.824707,0.503418,0.1479492,-15.6707325,-4.9390244,1.8902439,-0.0231632
443,-0.8251953,0.5053711,0.1503906,-16.8292694,-4.5121951,1.7073171,-0.027863
444,-0.8212891,0.4970703,0.1484375,-17.0121956,-4.6951222,1.8292683,-0.0298772
445,-0.8183594,0.4960938,0.1494141,-17.439024,-4.7560978,1.8902439,-0.0271916
446,-0.8134766,0.4946289,0.1430664,-16.5853653,-4.390244,1.6463414,-0.0325628
447,-0.815918,0.4980469,0.1411133,-15.9756098,-4.6341462,2.3170731,-0.0352483
448,-0.8193359,0.515625,0.1416016,-14.8780489,-4.5731707,1.9512196,-0.0352483
449,-0.8193359,0.5219727,0.1416016,-14.5731707,-4.8170733,1.5243902,-0.0379339
450,-0.8212891,0.5288086,0.144043,-15.7317076,-4.7560978,0.9756098,-0.0352483
451,-0.8129883,0.5166016,0.1479492,-16.8292694,-4.9390244,0.6707317,-0.0386053
452,-0.8125,0.512207,0.1455078,-17.9878044,-4.6951222,0.7317073,-0.0406195
453,-0.8081055,0.4975586,0.1342773,-18.4146347,-4.5121951,0.9756098,-0.0412909
454,-0.8066406,0.4936523,0.1347656,-18.3536587,-4.5121951,1.5243902,-0.0433051
455,-0.8032227,0.4995117,0.1386719,-17.8048782,-4.390244,1.0365853,-0.0412909
456,-0.8061523,0.5097656,0.1337891,-16.8292694,-4.390244,0.1219512,-0.0419623
457,-0.8305664,0.527832,0.1235352,-17.1951218,-4.5121951,-0.8536586,-0.0459907
458,-0.8388672,0.5366211,0.1245117,-17.9268303,-4.6341462,-0.4878049,-0.0463264
459,-0.859375,0.5395508,0.1240234,-19.3292694,-4.5121951,-0.0609756,-0.0480049
460,-0.8618164,0.5361328,0.1201172,-19.6951218,-4.8780489,0,-0.0486763
461,-0.8691406,0.5214844,0.1220703,-20.6097565,-5.2439027,0.0609756,-0.0473335
462,-0.8671875,0.4995117,0.1225586,-20.6707325,-5.3048782,0.2439024,-0.0500191
463,-0.8671875,0.4916992,0.1274414,-20.060976,-6.1585369,0.0609756,-0.0574044
464,-0.8623047,0.480957,0.1303711,-19.3902435,-6.3414636,0,-0.0580758
465,-0.8603516,0.484375,0.1352539,-18.4146347,-6.890244,-0.7926829,-0.0527047
466,-0.8510742,0.4863281,0.1430664,-17.6219521,-7.1341467,-1.2804878,-0.0500191
467,-0.84375,0.4956055,0.1420898,-17.0121956,-7.0121951,-1.7682927,-0.0506905
468,-0.8422852,0.512207,0.1474609,-16.5243912,-7.2560978,-2.1341465,-0.0500191
469,-0.8383789,0.5180664,0.1479492,-16.2195129,-7.1951222,-1.9512196,-0.0527047
470,-0.828125,0.5302734,0.1430664,-15.8536587,-6.8292685,-1.8292683,-0.0547189
471,-0.8242188,0.5361328,0.140625,-16.0975609,-6.8292685,-2.1341465,-0.0540475
472,-0.8242188,0.5424805,0.1411133,-16.7682934,-6.8292685,-2.0731707,-0.0520333
473,-0.8300781,0.5424805,0.1464844,-17.439024,-6.8292685,-1.7682927,-0.0530404
474,-0.8334961,0.5400391,0.1503906,-18.8414631,-6.1585369,-1.6463414,-0.0493477
475,-0.8334961,0.5283203,0.1616211,-19.3902435,-6.0365853,-1.3414634,-0.0476692
476,-0.8305664,0.519043,0.1650391,-20.4268303,-5.9756098,-1.5243902,-0.0473335
477,-0.8369141,0.503418,0.1728516,-20.7317085,-5.3658538,-1.7682927,-0.0513619
478,-0.8378906,0.5004883,0.1713867,-20.1219521,-5.0609756,-1.9512196,-0.0480049
479,-0.847168,0.5009766,0.1733398,-18.780489,-4.7560978,-1.8902439,-0.0503548
480,-0.8525391,0.5029297,0.1630859,-17.8048782,-4.6951222,-1.6463414,-0.0506905
481,-0.8564453,0.5107422,0.1538086,-15.8536587,-5,-1.9512196,-0.0513619
482,-0.8613281,0.5214844,0.1459961,-14.8170738,-5.1219511,-1.9512196,-0.0500191
483,-0.8574219,0.5366211,0.1367188,-13.9634151,-5.4878049,-2.195122,-0.0480049
484,-0.8500977,0.5449219,0.1333008,-13.9024391,-5.609756,-2.4390244,-0.0480049
485,-0.8491211,0.5419922,0.1318359,-14.4512196,-6.0975609,-2.4390244,-0.0500191
486,-0.8364258,0.5322266,0.1352539,-14.9390249,-5.9146342,-2.5,-0.0473335
487,-0.8344727,0.5229492,0.1420898,-15.9146347,-5.7926831,-2.5,-0.0476692
488,-0.8232422,0.5,0.1557617,-16.4024391,-4.9390244,-2.6829269,-0.0486763
489,-0.8173828,0.4907227,0.1586914,-16.5853653,-4.8170733,-2.5,-0.0473335
490,-0.8212891,0.484375,0.1611328,-14.8780489,-4.390244,-1.9512196,-0.0500191
491,-0.8261719,0.4833984,0.1591797,-13.7195129,-4.1463413,-1.8292683,-0.0480049
492,-0.8325195,0.4990234,0.1479492,-11.4634151,-3.9024391,-1.6463414,-0.0476692
493,-0.8413086,0.5097656,0.1435547,-10.1829271,-3.8414636,-1.4634147,-0.0513619
494,-0.8452148,0.5302734,0.1303711,-9.2682924,-4.2682929,-1.8902439,-0.0486763
495,-0.8447266,0.5327148,0.1381836,-8.841464,-4.5731707,-2.0121951,-0.0527047
496,-0.8354492,0.534668,0.1455078,-8.841464,-5.4268293,-2.1341465,-0.0513619
497,-0.815918,0.5166016,0.1635742,-8.6585369,-5.4268293,-2.3170731,-0.0493477
498,-0.8100586,0.5102539,0.1699219,-8.4756098,-5.5487804,-2.195122,-0.0513619
499,-0.8032227,0.5102539,0.1611328,-8.1707315,-4.5731707,-2.0731707,-0.0486763
500,-0.8046875,0.5092773,0.1557617,-8.1707315,-4.4512196,-1.8902439,-0.0506905
501,-0.8115234,0.5136719,0.1489258,-8.0487804,-3.5975611,-1.5853659,-0.0513619
502,-0.8183594,0.5195312,0.1459961,-8.3536587,-3.2317073,-0.9146342,-0.0500191
503,-0.8374023,0.5185547,0.1464844,-8.6585369,-3.2317073,-1.2195122,-0.0486763
504,-0.8417969,0.5200195,0.1503906,-9.0853662,-3.0487804,-0.9756098,-0.0500191
505,-0.8510742,0.5073242,0.1557617,-9.2682924,-2.7439024,-1.1585366,-0.0520333
506,-0.8574219,0.5009766,0.1655273,-9.2682924,-2.8658538,-0.8536586,-0.0500191
507,-0.859375,0.4892578,0.1689453,-7.6219516,-2.8658538,-1.2195122,-0.0486763
508,-0.8510742,0.4824219,0.1762695,-6.8292685,-2.8658538,-1.2195122,-0.0446479
509,-0.8447266,0.4819336,0.175293,-4.8780489,-2.9878049,-1.6463414,-0.0419623
510,-0.8457031,0.487793,0.1645508,-3.1707318,-3.1097562,-1.2804878,-0.0439765
511,-0.8417969,0.4912109,0.1591797,-2.5609756,-2.8658538,-1.3414634,-0.0459907
512,-0.8408203,0.4960938,0.1542969,-2.7439024,-2.9268293,-0.9756098,-0.0453193
513,-0.8359375,0.4926758,0.159668,-3.1097562,-2.9878049,-0.8536586,-0.0439765
514,-0.8330078,0.487793,0.1689453,-3.4146342,-2.3170731,-0.7317073,-0.0459907
515,-0.8344727,0.4921875,0.1674805,-3.0487804,-2.0731707,-0.6097561,-0.0406195
516,-0.8344727,0.4863281,0.168457,-2.3170731,-2.1341465,-0.3658537,-0.0386053
517,-0.8305664,0.4902344,0.1743164,-2.0731707,-2.1341465,-0.3658537,-0.0406195
518,-0.8261719,0.4887695,0.1689453,-1.2195122,-2.3170731,-0.4878049,-0.0439765
519,-0.8242188,0.496582,0.1538086,-0.8536586,-2.195122,-0.5487805,-0.0433051
520,-0.8217773,0.4995117,0.1499023,-0.5487805,-2.195122,-0.6097561,-0.0433051
521,-0.8115234,0.5019531,0.1503906,-0.0609756,-2.3170731,-0.9146342,-0.0453193
522,-0.8139648,0.5058594,0.1489258,-0.1829268,-1.8292683,-0.8536586,-0.0446479
523,-0.8164062,0.5151367,0.1445312,-0.1829268,-1.402439,-0.9146342,-0.0439765
524,-0.8173828,0.5195312,0.1391602,0.1219512,-1.1585366,-0.5487805,-0.0426337
525,-0.8212891,0.5244141,0.1259766,-0.3048781,-1.2195122,-0.3658537,-0.0392767
526,-0.8256836,0.5292969,0.125,-1.0365853,-1.0365853,-0.3048781,-0.0426337
527,-0.8349609,0.5258789,0.109375,-2.3170731,-1.0365853,-0.2439024,-0.0446479
528,-0.840332,0.5224609,0.1069336,-3.4146342,-0.9756098,-0.3048781,-0.0409552
529,-0.8398438,0.515625,0.109375,-4.2682929,-1.2804878,0.4268293,-0.0409552
530,-0.8349609,0.5009766,0.1186523,-4.7560978,-1.3414634,0.1829268,-0.0412909
531,-0.8334961,0.4936523,0.1313477,-4.6951222,-1.4634147,-0.1829268,-0.0392767
532,-0.8369141,0.4897461,0.1464844,-3.7195122,-1.7682927,-0.7926829,-0.0412909
533,-0.8359375,0.4931641,0.1508789,-3.1707318,-1.5853659,-0.7317073,-0.0406195
534,-0.8359375,0.4975586,0.1513672,-2.0731707,-1.9512196,-1.0365853,-0.0406195
535,-0.8378906,0.5014648,0.1411133,-1.5853659,-2.0731707,-0.8536586,-0.0439765
536,-0.8222656,0.5131836,0.128418,-1.2804878,-2.0731707,-0.9756098,-0.0433051
537,-0.8173828,0.5161133,0.128418,-1.7073171,-2.4390244,-1.1585366,-0.0406195
538,-0.8120117,0.5126953,0.1279297,-2.5,-2.3170731,-1.1585366,-0.0406195
539,-0.800293,0.5068359,0.1264648,-2.5,-2.3170731,-0.9146342,-0.0412909
540,-0.7973633,0.5141602,0.1298828,-2.6829269,-1.7073171,-0.9146342,-0.0386053
541,-0.8085938,0.5209961,0.1235352,-2.2560976,-1.2195122,-0.7317073,-0.0392767
542,-0.8129883,0.5273438,0.1147461,-2.5609756,-0.9146342,-1.1585366,-0.0399481
543,-0.8217773,0.5375977,0.1123047,-3.2317073,-0.8536586,-1.1585366,-0.0352483
544,-0.8291016,0.5395508,0.1137695,-3.9024391,-0.9146342,-1.097561,-0.0369268
545,-0.8349609,0.53125,0.1240234,-5.609756,-1.402439,-0.6707317,-0.0365911
546,-0.8330078,0.519043,0.1333008,-6.1585369,-1.3414634,-0.5487805,-0.0365911
547,-0.8232422,0.4941406,0.1518555,-6.8292685,-1.3414634,-0.8536586,-0.0379339
548,-0.8256836,0.4775391,0.1582031,-6.9512196,-1.097561,-0.9146342,-0.0352483
549,-0.8266602,0.4770508,0.15625,-5.8536587,-0.4878049,-1.0365853,-0.0362554
550,-0.8349609,0.4799805,0.1552734,-5.3048782,-0.5487805,-1.1585366,-0.0352483
551,-0.8354492,0.4833984,0.1508789,-3.8414636,-0.7926829,-1.7073171,-0.0365911
552,-0.8393555,0.4975586,0.1396484,-3.3536587,-0.7317073,-1.8292683,-0.0352483
553,-0.8398438,0.5039062,0.1362305,-2.804878,-0.8536586,-2.0121951,-0.0332341
554,-0.8325195,0.5126953,0.1328125,-2.804878,-0.9756098,-1.9512196,-0.0305486
555,-0.824707,0.5117188,0.1323242,-3.2926829,-1.097561,-2.195122,-0.03122
556,-0.8154297,0.5131836,0.121582,-3.4756098,-0.6707317,-2.1341465,-0.03122
557,-0.8188477,0.5043945,0.1220703,-3.9024391,-0.3048781,-2.0731707,-0.0352483
558,-0.8139648,0.503418,0.1298828,-4.7560978,-0.1219512,-1.7073171,-0.0372625
559,-0.8208008,0.4990234,0.1289062,-5.0609756,0.3658537,-1.7682927,-0.0359197
560,-0.8256836,0.4912109,0.1240234,-4.6951222,0.6707317,-1.402439,-0.0352483
561,-0.8310547,0.4868164,0.1264648,-4.5731707,0.6707317,-1.3414634,-0.0332341
562,-0.8305664,0.4868164,0.1303711,-3.5975611,0.1829268,-1.4634147,-0.0362554
563,-0.8256836,0.4858398,0.1352539,-3.2926829,0,-1.7682927,-0.0359197
564,-0.8256836,0.4912109,0.1323242,-2.0121951,0.1219512,-2.0731707,-0.0352483
565,-0.8295898,0.5053711,0.1240234,-1.4634147,0.3658537,-2.5,-0.0379339
566,-0.8305664,0.5126953,0.1254883,-1.5853659,0.3658537,-2.6219513,-0.0433051
567,-0.8339844,0.5175781,0.1191406,-1.7682927,0.4878049,-2.9268293,-0.0446479
568,-0.8286133,0.5161133,0.1162109,-2.195122,0.4268293,-3.1097562,-0.0446479
569,-0.8242188,0.5151367,0.1162109,-2.9878049,0.3048781,-2.9268293,-0.0446479
570,-0.8222656,0.5073242,0.1245117,-3.7804878,0.6097561,-2.6829269,-0.0446479
571,-0.8266602,0.5078125,0.1279297,-4.5731707,0.9146342,-3.2926829,-0.0433051
572,-0.8383789,0.5048828,0.1333008,-4.2682929,1.2804878,-3.7195122,-0.0406195
573,-0.8461914,0.5068359,0.1293945,-4.2073174,1.402439,-3.8414636,-0.0399481
574,-0.8642578,0.5097656,0.1240234,-4.1463413,1.5243902,-3.6585367,-0.0459907
575,-0.8676758,0.5068359,0.1210938,-3.7804878,1.2804878,-3.0487804,-0.0486763
576,-0.8706055,0.5024414,0.1245117,-3.1707318,0.6707317,-3.1097562,-0.0459907
577,-0.8613281,0.4941406,0.1303711,-2.4390244,0.4268293,-2.9878049,-0.042298
578,-0.8544922,0.4892578,0.1308594,-1.0365853,0.7926829,-3.5975611,-0.0406195
579,-0.8496094,0.4921875,0.1279297,-0.5487805,0.7317073,-4.0853658,-0.0419623
580,-0.8383789,0.5053711,0.1210938,0.4268293,0.6707317,-4.7560978,-0.0473335
581,-0.8393555,0.5229492,0.1074219,0.2439024,0.7926829,-4.6341462,-0.0476692
582,-0.8388672,0.5322266,0.1044922,-0.3048781,0.6707317,-4.5121951,-0.0473335
583,-0.8344727,0.5415039,0.1040039,-0.6707317,1.1585366,-4.5731707,-0.0486763
584,-0.8354492,0.543457,0.0991211,-1.6463414,1.3414634,-4.4512196,-0.0473335
585,-0.831543,0.5375977,0.1020508,-2.0121951,1.7073171,-4.1463413,-0.0453193
586,-0.8344727,0.5302734,0.1044922,-2.804878,2.0731707,-3.7195122,-0.0473335
587,-0.8383789,0.5141602,0.1113281,-3.5365853,2.9268293,-3.8414636,-0.0506905
588,-0.8349609,0.5083008,0.1132812,-3.5975611,3.0487804,-3.9024391,-0.0506905
589,-0.8334961,0.4970703,0.1269531,-3.2317073,3.3536587,-3.9634147,-0.0486763
590,-0.8393555,0.496582,0.1264648,-3.0487804,3.3536587,-4.0853658,-0.0493477
591,-0.8369141,0.5009766,0.1254883,-2.6219513,3.9634147,-3.9634147,-0.0500191
592,-0.840332,0.5029297,0.1308594,-2.1341465,3.9634147,-4.2682929,-0.0513619
593,-0.8398438,0.512207,0.1386719,-2.0731707,4.3292685,-4.390244,-0.0473335
594,-0.8417969,0.5092773,0.1245117,-1.8292683,5.0609756,-4.5121951,-0.0513619
595,-0.8422852,0.5112305,0.121582,-2.0121951,5.7317076,-3.9634147,-0.0506905
596,-0.8515625,0.5092773,0.1069336,-2.5,5.9756098,-3.4146342,-0.0513619
597,-0.8461914,0.5024414,0.1088867,-2.6829269,5.9756098,-2.8658538,-0.0513619
598,-0.8388672,0.4916992,0.1030273,-2.5,6.1585369,-2.6829269,-0.0513619
599,-0.8359375,0.4887695,0.1010742,-2.2560976,5.9756098,-3.0487804,-0.0527047
600,-0.8305664,0.4853516,0.0952148,-2.5,6.5243902,-3.4146342,-0.0527047
601,-0.8339844,0.4926758,0.0942383,-2.3780489,6.7073174,-3.5365853,-0.0533761
602,-0.831543,0.5039062,0.0927734,-2.804878,7.3780489,-3.7195122,-0.0516976
603,-0.8300781,0.5117188,0.0898438,-2.9268293,7.2560978,-3.9024391,-0.0543832
604,-0.8286133,0.5175781,0.0869141,-3.7804878,7.8048782,-4.0243902,-0.0527047
605,-0.8305664,0.5185547,0.0991211,-4.6341462,7.6829271,-4.0853658,-0.0500191
606,-0.8310547,0.5151367,0.1083984,-5.9756098,7.8658538,-4.1463413,-0.0513619
607,-0.8295898,0.5092773,0.1123047,-6.8292685,8.2926826,-4.2073174,-0.0543832
608,-0.8305664,0.5083008,0.1103516,-7.3170733,8.6585369,-4.6341462,-0.056733
609,-0.8305664,0.5063477,0.1049805,-7.9268293,9.3902445,-5.0609756,-0.056733
610,-0.8359375,0.5058594,0.1074219,-7.9878049,9.3292685,-5.5487804,-0.0540475
611,-0.8505859,0.5073242,0.0981445,-8.9024391,9.6951218,-5.5487804,-0.056733
612,-0.8598633,0.5073242,0.0981445,-9.2682924,10,-5.2439027,-0.0553902
613,-0.8696289,0.4946289,0.1044922,-10.1219511,9.8170738,-4.5731707,-0.0533761
614,-0.8657227,0.4824219,0.1103516,-10,9.8780489,-4.6951222,-0.0557259
615,-0.8657227,0.4785156,0.112793,-9.5121956,9.7560978,-5.1829271,-0.0580758
616,-0.8642578,0.4775391,0.1181641,-8.5975609,9.8170738,-5.3048782,-0.0574044
617,-0.8579102,0.4848633,0.1142578,-7.3170733,9.8170738,-5.670732,-0.0587472
618,-0.855957,0.4985352,0.1123047,-6.8292685,9.5121956,-5.9756098,-0.0594186
619,-0.8491211,0.5097656,0.1118164,-5.9756098,10.3048782,-6.2195125,-0.056733
620,-0.84375,0.5161133,0.109375,-5.9756098,10.2439022,-6.1585369,-0.0527047
621,-0.8378906,0.5239258,0.1098633,-5.8536587,10.3658543,-6.1585369,-0.0547189
622,-0.840332,0.5239258,0.1025391,-6.1585369,11.341464,-5.609756,-0.0553902
623,-0.8427734,0.5234375,0.0957031,-6.3414636,11.5853662,-4.9390244,-0.056733
624,-0.8554688,0.5195312,0.0898438,-6.4634147,12.5,-3.6585367,-0.0540475
625,-0.8632812,0.5131836,0.0883789,-7.0731707,12.4390249,-3.5975611,-0.0547189
626,-0.8671875,0.5058594,0.0883789,-8.4146347,13.4756098,-3.5975611,-0.0547189
627,-0.8745117,0.487793,0.1040039,-8.0487804,13.4146347,-3.5975611,-0.0533761
628,-0.875,0.4838867,0.112793,-7.3780489,13.4756098,-3.7804878,-0.0540475
629,-0.8696289,0.4775391,0.1220703,-7.2560978,13.5365858,-3.5975611,-0.0527047
630,-0.8696289,0.480957,0.125,-6.280488,14.0853662,-3.9024391,-0.0527047
631,-0.8735352,0.4833984,0.1245117,-5.8536587,14.0853662,-4.0853658,-0.0513619
632,-0.8774414,0.4873047,0.1230469,-5.9146342,14.2682934,-4.0243902,-0.0473335
633,-0.8730469,0.4946289,0.1137695,-5.609756,14.0853662,-3.8414636,-0.0473335
634,-0.875,0.4960938,0.1064453,-5.7317076,14.0853662,-3.6585367,-0.0469978
635,-0.8833008,0.5058594,0.0908203,-5.7926831,14.5731707,-3.7195122,-0.0459907
636,-0.8852539,0.5141602,0.0791016,-6.2195125,14.5121956,-3.5975611,-0.0446479
637,-0.8891602,0.5185547,0.0717773,-6.8292685,14.3292685,-4.0243902,-0.0480049
638,-0.8828125,0.519043,0.0737305,-7.5,14.2073174,-4.1463413,-0.0486763
639,-0.8789062,0.5136719,0.0786133,-8.2317076,13.9024391,-4.5121951,-0.0500191
640,-0.8691406,0.5029297,0.0820312,-8.9024391,13.7195129,-4.8780489,-0.0493477
641,-0.8662109,0.4990234,0.0800781,-9.1463413,13.780488,-4.9390244,-0.0493477
642,-0.8549805,0.5087891,0.081543,-9.3902445,13.7195129,-5.4878049,-0.0500191
643,-0.8496094,0.512207,0.0800781,-9.2682924,13.841464,-5.670732,-0.0493477
644,-0.8452148,0.5224609,0.0737305,-9.6951218,13.5975609,-6.5243902,-0.0480049
645,-0.84375,0.5268555,0.0683594,-9.6951218,13.780488,-6.5853658,-0.0459907
646,-0.8413086,0.5268555,0.0634766,-11.1585369,14.0243902,-6.5853658,-0.0486763
647,-0.8256836,0.5141602,0.0595703,-11.8292685,13.6585369,-6.280488,-0.0500191
648,-0.8232422,0.5073242,0.0629883,-13.2926836,13.841464,-6.6463418,-0.0493477
649,-0.8276367,0.5092773,0.0546875,-13.4146347,14.0853662,-6.8292685,-0.0493477
650,-0.8349609,0.5107422,0.0493164,-13.4146347,14.4512196,-7.0121951,-0.0500191
651,-0.8618164,0.5107422,0.0332031,-13.4756098,14.5121956,-6.8292685,-0.0493477
652,-0.8740234,0.515625,0.0249023,-14.1463413,14.8780489,-6.280488,-0.0533761
653,-0.9018555,0.5102539,0.0068359,-15.6707325,14.4512196,-5.5487804,-0.0520333
654,-0.9101562,0.5048828,0.0039062,-16.5243912,14.1463413,-5.3658538,-0.0527047
655,-0.9101562,0.4775391,0.0087891,-17.8048782,13.2317076,-5.7317076,-0.0500191
656,-0.9072266,0.4628906,0.0229492,-18.4756107,12.9878054,-5.7926831,-0.0496834
657,-0.9106445,0.4423828,0.0424805,-19.3902435,12.560976,-7.0121951,-0.0446479
658,-0.9140625,0.4335938,0.0571289,-18.6585369,12.3170738,-7.0121951,-0.0443122
659,-0.9165039,0.4345703,0.0649414,-17.3780499,12.3780489,-7.6219516,-0.0459907
660,-0.9282227,0.4511719,0.0664062,-16.8902435,12.1951218,-7.4390244,-0.0453193
661,-0.9345703,0.4570312,0.0600586,-15.3048782,12.3780489,-6.9512196,-0.0453193
662,-0.940918,0.4692383,0.0400391,-14.2682934,11.8902445,-6.280488,-0.0453193
663,-0.9379883,0.4741211,0.0341797,-13.5365858,11.5243902,-5.9146342,-0.0433051
664,-0.9272461,0.4790039,0.0249023,-13.1097565,10.6707315,-5.4878049,-0.0446479
665,-0.918457,0.4790039,0.0219727,-12.6829271,10.7926836,-5.4878049,-0.0419623
666,-0.8920898,0.4731445,0.0200195,-12.7439032,10.6707315,-5.670732,-0.0412909
667,-0.8833008,0.472168,0.0209961,-12.8658543,11.0975609,-5.8536587,-0.0426337
668,-0.8623047,0.4755859,0.03125,-12.9878054,11.341464,-5.7926831,-0.0433051
669,-0.8510742,0.4775391,0.0405273,-13.1707315,11.9512196,-5.609756,-0.0406195
670,-0.8505859,0.4804688,0.0454102,-14.0243902,13.1097565,-5.4268293,-0.0406195
671,-0.8481445,0.4775391,0.0581055,-14.2682934,13.4756098,-5.0609756,-0.0392767
672,-0.8554688,0.4794922,0.0634766,-14.2073174,14.3292685,-5.3048782,-0.0379339
673,-0.8618164,0.480957,0.0615234,-13.5975609,14.8170738,-5.2439027,-0.0379339
674,-0.8623047,0.4863281,0.0595703,-13.3536587,14.8780489,-5.0609756,-0.0409552
675,-0.8647461,0.4868164,0.0463867,-12.560976,15.1219511,-4.8170733,-0.0386053
676,-0.8623047,0.4912109,0.0390625,-12.8048782,15,-5,-0.0352483
677,-0.8632812,0.4882812,0.019043,-12.9878054,15.1219511,-5.4878049,-0.0365911
678,-0.8564453,0.4887695,0.0146484,-12.8658543,15.1829271,-5.5487804,-0.0359197
679,-0.8505859,0.4936523,0.0141602,-13.2317076,15.4268293,-5.9756098,-0.0345769
680,-0.8662109,0.5029297,-0.0029297,-13.3536587,15.6707325,-6.3414636,-0.0339055
681,-0.8691406,0.503418,-0.012207,-13.7195129,16.2195129,-5.9146342,-0.0328985
682,-0.8818359,0.5053711,-0.0244141,-14.2073174,16.2195129,-5.670732,-0.0359197
683,-0.8862305,0.5029297,-0.0268555,-15,15.9146347,-5.5487804,-0.0406195
684,-0.8935547,0.4936523,-0.0273438,-16.5853653,15.2439032,-5.9756098,-0.0386053
685,-0.8959961,0.4873047,-0.0244141,-16.8902435,15,-6.1585369,-0.0352483
686,-0.8920898,0.4750977,-0.0185547,-17.1951218,14.2073174,-7.0731707,-0.0345769
687,-0.8959961,0.4677734,-0.0224609,-17.3170738,13.9634151,-7.3780489,-0.0365911
688,-0.9013672,0.4736328,-0.0424805,-16.9512196,13.1707315,-7.8048782,-0.0365911
689,-0.9023438,0.4780273,-0.0517578,-16.6463413,12.9878054,-8.1097565,-0.0352483
690,-0.9086914,0.4907227,-0.0737305,-16.4634151,11.7682934,-8.1707315,-0.0339055
691,-0.9013672,0.4868164,-0.0830078,-16.5853653,11.5243902,-8.1707315,-0.0332341
692,-0.8950195,0.4848633,-0.0742188,-17.1951218,10.3658543,-8.2926826,-0.0285344
693,-0.8803711,0.4765625,-0.0444336,-17.6219521,10,-8.5975609,-0.0305486
694,-0.8696289,0.4702148,-0.0288086,-18.5365849,9.3292685,-9.4512196,-0.03122
695,-0.8642578,0.4536133,-0.0097656,-18.9634151,9.5731707,-9.6951218,-0.0339055
696,-0.862793,0.4536133,-0.0053711,-18.8414631,9.7560978,-9.3292685,-0.0339055
697,-0.8569336,0.4575195,-0.0024414,-19.2073174,9.8780489,-8.9024391,-0.0325628
698,-0.8554688,0.4589844,-0.0087891,-19.3292694,10.1219511,-9.0243902,-0.0325628
699,-0.8657227,0.4658203,-0.0327148,-19.6951218,10.4268293,-8.780488,-0.0339055
700,-0.8710938,0.4667969,-0.0454102,-20.2439022,10.9146347,-8.4146347,-0.0365911
701,-0.8813477,0.4682617,-0.0634766,-20.5487804,11.4634151,-8.2317076,-0.0365911
702,-0.8979492,0.46875,-0.0742188,-20.6707325,11.341464,-8.1097565,-0.0379339
703,-0.9023438,0.4731445,-0.0791016,-21.0365868,10.8536587,-7.9268293,-0.0396124
704,-0.9018555,0.4707031,-0.0683594,-21.1585369,10.4268293,-8.0487804,-0.042298
705,-0.9013672,0.4648438,-0.0571289,-21.4634151,10.1219511,-7.6219516,-0.0412909
706,-0.8979492,0.4438477,-0.03125,-21.3414631,9.5731707,-7.6219516,-0.0436408
707,-0.8950195,0.4316406,-0.0214844,-20.9146347,9.7560978,-7.2560978,-0.0466621
708,-0.8867188,0.421875,-0.0009766,-20.060976,9.6341467,-7.1341467,-0.0476692
709,-0.8876953,0.4223633,0.0019531,-19.6951218,10.3048782,-6.890244,-0.0486763
710,-0.9008789,0.4326172,-0.0004883,-18.5365849,10.3658543,-6.7682929,-0.0466621
711,-0.9150391,0.4521484,-0.0102539,-17.9878044,10.3658543,-6.8292685,-0.0466621
712,-0.9238281,0.4614258,-0.0258789,-16.8292694,9.5731707,-6.7682929,-0.0473335
713,-0.9135742,0.4550781,-0.0507812,-16.7682934,8.9024391,-6.4024391,-0.0459907
714,-0.8989258,0.449707,-0.0522461,-16.4024391,8.4756098,-6.280488,-0.0449836
715,-0.8793945,0.4360352,-0.0532227,-16.4024391,8.3536587,-6.3414636,-0.0459907
716,-0.8793945,0.4248047,-0.0488281,-16.5243912,9.0853662,-6.0365853,-0.0433051
717,-0.8735352,0.4243164,-0.0317383,-16.0975609,10,-6.2195125,-0.0412909
718,-0.8754883,0.434082,-0.0219727,-16.0365849,10.060976,-6.5243902,-0.0406195
719,-0.8862305,0.4541016,-0.0097656,-15.9146347,11.0365858,-7.0121951,-0.0406195
720,-0.8964844,0.4584961,0.0024414,-15.8536587,11.341464,-6.9512196,-0.0392767
721,-0.9111328,0.4594727,0.0087891,-15.3658543,10.7926836,-6.6463418,-0.0406195
722,-0.9165039,0.4438477,0.0009766,-14.8780489,10.8536587,-6.4634147,-0.0406195
723,-0.9125977,0.434082,-0.0019531,-14.1463413,10.1219511,-6.280488,-0.0412909
724,-0.9072266,0.4331055,-0.0200195,-13.4756098,10.2439022,-6.1585369,-0.0392767
725,-0.9052734,0.4375,-0.0327148,-11.5853662,9.9390249,-6.8292685,-0.0386053
726,-0.9047852,0.4555664,-0.0532227,-10.2439022,9.9390249,-6.8292685,-0.0382696
727,-0.90625,0.46875,-0.0576172,-8.841464,9.5121956,-7.0731707,-0.0365911
728,-0.9052734,0.4848633,-0.0800781,-8.0487804,9.2073174,-7.1951222,-0.0365911
729,-0.9111328,0.4868164,-0.0913086,-8.3536587,8.9634151,-6.7682929,-0.0399481
730,-0.9091797,0.4882812,-0.090332,-8.2926826,8.4146347,-5.8536587,-0.0369268
731,-0.9077148,0.487793,-0.0908203,-8.6585369,8.2926826,-5.3048782,-0.0379339
732,-0.9106445,0.4741211,-0.0888672,-8.780488,8.1707315,-4.7560978,-0.0382696
733,-0.9130859,0.4541016,-0.090332,-8.2317076,8.3536587,-4.5731707,-0.0379339
734,-0.9150391,0.4453125,-0.0883789,-7.6219516,8.0487804,-4.390244,-0.0386053
735,-0.9199219,0.4360352,-0.0908203,-7.2560978,7.9268293,-4.1463413,-0.0382696
736,-0.9140625,0.4350586,-0.0839844,-6.0975609,7.2560978,-4.6341462,-0.0406195
737,-0.9023438,0.4433594,-0.0703125,-5.7317076,7.0731707,-4.8780489,-0.0419623
738,-0.8979492,0.4414062,-0.0629883,-5.1829271,6.5243902,-5.3658538,-0.0419623
739,-0.8881836,0.4482422,-0.0541992,-4.9390244,6.3414636,-5.3658538,-0.0419623
740,-0.8837891,0.4541016,-0.0595703,-4.8170733,6.4634147,-5.5487804,-0.0459907
741,-0.8793945,0.4633789,-0.0844727,-4.6951222,6.9512196,-4.8780489,-0.0446479
742,-0.8774414,0.4677734,-0.0942383,-4.7560978,7.3170733,-4.5121951,-0.0453193
743,-0.8818359,0.4726562,-0.1108398,-6.0975609,7.9878049,-4.2682929,-0.0459907
744,-0.8867188,0.4638672,-0.1191406,-6.8292685,8.4146347,-4.0853658,-0.0466621
745,-0.8950195,0.4633789,-0.1210938,-8.841464,8.9634151,-3.6585367,-0.0459907
746,-0.902832,0.4604492,-0.1191406,-9.6951218,9.2073174,-3.6585367,-0.0459907
747,-0.9067383,0.4506836,-0.1123047,-11.7682934,9.6341467,-3.5975611,-0.0486763
748,-0.9233398,0.4335938,-0.0952148,-12.0731707,9.8170738,-3.4146342,-0.0473335
749,-0.9301758,0.4243164,-0.0869141,-12.4390249,10.060976,-3.2926829,-0.0486763
750,-0.9462891,0.4150391,-0.0722656,-12.1341467,9.6951218,-3.4756098,-0.0480049
751,-0.9516602,0.4116211,-0.0727539,-11.9512196,9.3902445,-3.4146342,-0.0500191
752,-0.9541016,0.4057617,-0.0620117,-12.0121956,8.5975609,-3.4146342,-0.0493477
753,-0.956543,0.40625,-0.0639648,-11.6463413,8.5365858,-3.3536587,-0.0493477
754,-0.9536133,0.4101562,-0.078125,-10.7926836,7.4390244,-4.0853658,-0.0486763
755,-0.9555664,0.4287109,-0.109375,-10.060976,7.2560978,-4.3292685,-0.0473335
756,-0.9541016,0.4443359,-0.1254883,-8.841464,6.7682929,-4.8780489,-0.0459907
757,-0.9536133,0.4746094,-0.1484375,-8.0487804,6.7073174,-5.3048782,-0.0433051
758,-0.9511719,0.4897461,-0.1616211,-7.8048782,5.5487804,-6.0975609,-0.0419623
759,-0.9462891,0.5107422,-0.1831055,-7.8658538,4.8780489,-6.3414636,-0.0412909
760,-0.9335938,0.512207,-0.1826172,-9.3292685,4.0853658,-6.4024391,-0.0406195
761,-0.9204102,0.5073242,-0.1772461,-11.0975609,3.4756098,-6.4634147,-0.0406195
762,-0.909668,0.4995117,-0.1743164,-11.8292685,3.6585367,-6.3414636,-0.0396124
763,-0.9018555,0.4755859,-0.1416016,-13.3536587,4.0853658,-6.7073174,-0.0419623
764,-0.9047852,0.4648438,-0.1274414,-13.9634151,4.2682929,-6.890244,-0.0392767
765,-0.9111328,0.4492188,-0.1088867,-15.4268293,4.6341462,-7.0121951,-0.0419623
766,-0.9233398,0.4326172,-0.0820312,-16.0975609,4.2073174,-6.890244,-0.0436408
767,-0.925293,0.4130859,-0.0625,-17.2560978,4.390244,-7.5,-0.0419623
768,-0.9355469,0.3681641,-0.0219727,-17.5,4.3292685,-7.9878049,-0.0433051
769,-0.9394531,0.3520508,-0.0107422,-16.2195129,4.2073174,-8.719512,-0.0426337
770,-0.9580078,0.3286133,-0.0029297,-14.6341467,3.8414636,-9.4512196,-0.0446479
771,-0.965332,0.3349609,-0.0078125,-10.9756098,3.8414636,-9.7560978,-0.0433051
772,-0.9760742,0.3583984,-0.0307617,-6.7682929,2.6219513,-10.5487804,-0.0446479
773,-0.9750977,0.3779297,-0.0483398,-5.0609756,2.4390244,-10.5487804,-0.0473335
774,-0.9614258,0.4086914,-0.0913086,-2.9878049,1.2804878,-10.8536587,-0.0433051
775,-0.9467773,0.4130859,-0.1015625,-2.5609756,0.6707317,-10.7317076,-0.0446479
776,-0.9125977,0.4155273,-0.1113281,-3.0487804,0.3658537,-10.1219511,-0.0446479
777,-0.8798828,0.4008789,-0.1040039,-3.2926829,0.8536586,-9.8170738,-0.0412909
778,-0.8710938,0.3876953,-0.0908203,-3.8414636,1.7073171,-9.8780489,-0.0459907
779,-0.8637695,0.3803711,-0.0800781,-4.0853658,2.2560976,-10.1219511,-0.0486763
780,-0.8701172,0.3837891,-0.0810547,-3.7804878,3.2926829,-10.1829271,-0.0486763
781,-0.8925781,0.4018555,-0.0913086,-3.7195122,3.9024391,-10,-0.0463264
782,-0.9067383,0.4038086,-0.1020508,-3.9024391,4.8780489,-9.0853662,-0.042298
783,-0.9345703,0.4077148,-0.1347656,-3.4146342,5.4268293,-8.780488,-0.0392767
784,-0.9472656,0.4008789,-0.1547852,-3.6585367,5.3658538,-8.3536587,-0.0379339
785,-0.9462891,0.3862305,-0.1655273,-3.5975611,5.1829271,-8.2317076,-0.0409552
786,-0.9394531,0.3735352,-0.1625977,-3.5365853,4.6341462,-8.841464,-0.0436408
787,-0.9311523,0.362793,-0.1547852,-3.2317073,3.7804878,-9.8170738,-0.0446479
788,-0.9223633,0.3564453,-0.1469727,-2.9268293,3.7195122,-10,-0.0500191
789,-0.9135742,0.3608398,-0.140625,-1.5853659,3.4756098,-10.3048782,-0.0540475
790,-0.894043,0.3823242,-0.1254883,-0.4268293,3.5975611,-10.3658543,-0.0530404
791,-0.8950195,0.3989258,-0.1303711,1.5243902,3.7195122,-10.2439022,-0.0540475
792,-0.8867188,0.4208984,-0.1435547,1.402439,4.4512196,-10.1219511,-0.0493477
793,-0.8886719,0.4277344,-0.1381836,-0.2439024,5.3658538,-9.0243902,-0.0486763
794,-0.8808594,0.4262695,-0.1264648,-2.0731707,6.0975609,-8.719512,-0.0506905
795,-0.8818359,0.4145508,-0.1225586,-2.9268293,6.7073174,-8.780488,-0.0540475
796,-0.8911133,0.3911133,-0.1264648,-4.8170733,7.8048782,-8.5975609,-0.0574044
797,-0.8964844,0.3886719,-0.1269531,-4.6951222,8.2926826,-8.4756098,-0.0553902
798,-0.9140625,0.3803711,-0.1279297,-3.8414636,8.841464,-8.2926826,-0.0574044
799,-0.9321289,0.3930664,-0.1445312,-3.3536587,9.2073174,-8.2926826,-0.0574044
800,-0.9384766,0.3984375,-0.1479492,-2.3170731,9.5121956,-8.2926826,-0.0553902
801,-0.9501953,0.40625,-0.1616211,-2.2560976,9.3292685,-7.8048782,-0.0580758
802,-0.9501953,0.4052734,-0.1645508,-1.2804878,9.3902445,-7.8048782,-0.056733
803,-0.9462891,0.3964844,-0.1640625,-1.2195122,9.3902445,-7.6829271,-0.0580758
804,-0.940918,0.3867188,-0.1630859,-0.7317073,9.1463413,-7.8048782,-0.056733
805,-0.934082,0.3720703,-0.1523438,-0.4878049,9.1463413,-7.8658538,-0.0527047
806,-0.9355469,0.3720703,-0.1533203,-0.2439024,9.1463413,-7.6219516,-0.0540475
807,-0.9350586,0.3730469,-0.1669922,0.8536586,9.0853662,-7.3780489,-0.0527047
808,-0.9394531,0.3793945,-0.1791992,1.3414634,9.2073174,-7.4390244,-0.0527047
809,-0.9458008,0.3989258,-0.2050781,2.0731707,9.0853662,-7.0731707,-0.056733
810,-0.9462891,0.4072266,-0.2290039,2.3780489,9.1463413,-7.1341467,-0.0540475
811,-0.9443359,0.4042969,-0.2368164,2.9878049,9.0853662,-6.6463418,-0.0540475
812,-0.9458008,0.4003906,-0.2363281,3.0487804,9.0243902,-6.4634147,-0.0527047
813,-0.9433594,0.3920898,-0.2226562,2.0731707,9.0853662,-6.5243902,-0.0520333
814,-0.9331055,0.3637695,-0.1806641,1.7073171,8.841464,-6.280488,-0.0520333
815,-0.9306641,0.3486328,-0.1503906,1.6463414,8.780488,-6.9512196,-0.0503548
816,-0.9291992,0.3452148,-0.1162109,3.1097562,8.780488,-7.8048782,-0.0506905
817,-0.9350586,0.3544922,-0.1157227,4.3292685,8.5975609,-7.8658538,-0.0540475
818,-0.9399414,0.3964844,-0.1425781,6.280488,8.2317076,-8.1097565,-0.0533761
819,-0.9428711,0.4145508,-0.1591797,6.7073174,8.2317076,-8.4756098,-0.0513619
820,-0.934082,0.4472656,-0.1772461,6.2195125,7.4390244,-9.0853662,-0.0486763
821,-0.9213867,0.4414062,-0.203125,5.1219511,7.1341467,-9.3292685,-0.0463264
822,-0.9072266,0.4301758,-0.2021484,3.0487804,7.0121951,-9.8780489,-0.0459907
823,-0.8764648,0.4018555,-0.1665039,2.4390244,6.890244,-10.060976,-0.0473335
824,-0.8637695,0.387207,-0.1464844,3.2317073,6.6463418,-11.4024391,-0.0459907
825,-0.8647461,0.3896484,-0.1396484,4.0853658,6.4024391,-12.0121956,-0.0459907
826,-0.8671875,0.3984375,-0.1445312,6.0975609,6.7682929,-12.3170738,-0.0463264
827,-0.8837891,0.434082,-0.1699219,7.3780489,7.0731707,-12.0121956,-0.0453193
828,-0.8886719,0.4492188,-0.1889648,7.6219516,7.2560978,-11.280488,-0.0446479
829,-0.9038086,0.4609375,-0.2124023,6.7073174,7.4390244,-10.7317076,-0.0459907
830,-0.9086914,0.4584961,-0.2138672,5.7926831,7.1341467,-10.3658543,-0.042298
831,-0.9106445,0.4272461,-0.1948242,4.2682929,7.1341467,-10.1219511,-0.0426337
832,-0.9106445,0.3979492,-0.1655273,4.1463413,7.0121951,-10.060976,-0.0426337
833,-0.9101562,0.3842773,-0.1601562,4.5121951,6.6463418,-10.4268293,-0.0433051
834,-0.9130859,0.3789062,-0.1674805,5.0609756,6.5853658,-10.6097565,-0.0433051
835,-0.9145508,0.3774414,-0.175293,6.9512196,6.4634147,-10.5487804,-0.0406195
836,-0.9199219,0.394043,-0.1982422,8.5365858,6.0975609,-10.1829271,-0.0439765
837,-0.9243164,0.4033203,-0.2133789,8.5975609,5.9146342,-9.8170738,-0.0426337
838,-0.9316406,0.4296875,-0.2451172,7.7439027,6.5243902,-9.6951218,-0.0446479
839,-0.934082,0.434082,-0.2641602,6.7073174,7.1341467,-9.8780489,-0.0459907
840,-0.9370117,0.434082,-0.2719727,3.5975611,7.7439027,-10.4878054,-0.0419623
841,-0.9360352,0.4291992,-0.2509766,1.5853659,7.4390244,-11.0975609,-0.0406195
842,-0.9326172,0.4233398,-0.2143555,-0.6707317,6.4024391,-12.6829271,-0.0406195
843,-0.9326172,0.4086914,-0.2060547,-1.0365853,5.609756,-13.2926836,-0.0406195
844,-0.9306641,0.4038086,-0.2124023,-1.0365853,5.4878049,-13.2926836,-0.0446479
845,-0.9443359,0.4121094,-0.2490234,-0.4878049,5.670732,-13.1707315,-0.0473335
846,-0.9545898,0.4296875,-0.2680664,-0.1829268,6.0365853,-12.8048782,-0.0459907
847,-0.9658203,0.456543,-0.3125,-0.4878049,5.9146342,-12.6219511,-0.0459907
848,-0.9633789,0.4643555,-0.3295898,-2.0121951,5.4268293,-12.560976,-0.0446479
849,-0.9560547,0.4472656,-0.3144531,-5.8536587,5.1219511,-13.5365858,-0.0466621
850,-0.9477539,0.425293,-0.2915039,-7.9268293,5,-14.0243902,-0.0466621
851,-0.9467773,0.3764648,-0.2382812,-9.9390249,4.5731707,-15.2439032,-0.0486763
852,-0.9472656,0.3574219,-0.2167969,-9.5731707,4.390244,-15.4268293,-0.0480049
853,-0.9599609,0.3481445,-0.2011719,-6.5243902,3.8414636,-15,-0.0466621
854,-0.9838867,0.3701172,-0.2094727,-5.0609756,3.7804878,-14.8170738,-0.0459907
855,-0.9882812,0.3920898,-0.2089844,-1.6463414,2.9268293,-14.1463413,-0.0486763
856,-0.9887695,0.4165039,-0.2104492,-0.7317073,2.0731707,-13.9634151,-0.0439765
857,-0.9882812,0.4208984,-0.2143555,0,1.1585366,-14.1463413,-0.0406195
858,-0.984375,0.4165039,-0.2114258,-1.4634147,0.9756098,-14.2073174,-0.0412909
859,-0.9785156,0.4130859,-0.1938477,-1.8292683,0.7926829,-14.0243902,-0.0466621
860,-0.9711914,0.3911133,-0.1704102,-2.3170731,1.0365853,-14.0853662,-0.0459907
861,-0.9707031,0.3803711,-0.1708984,-1.9512196,1.4634147,-13.4756098,-0.0486763
862,-0.9848633,0.3725586,-0.1762695,-0.9146342,3.0487804,-12.4390249,-0.0500191
863,-0.9892578,0.3730469,-0.1889648,-0.3048781,3.5365853,-11.7073174,-0.0506905
864,-1.0029297,0.3862305,-0.2050781,-0.6707317,4.2682929,-10.9146347,-0.0513619
865,-1.0107422,0.371582,-0.184082,-1.0365853,4.6341462,-10.8536587,-0.0503548
866,-1.0068359,0.3603516,-0.1782227,-2.0731707,4.390244,-11.341464,-0.0503548
867,-0.9995117,0.3466797,-0.1748047,-2.3170731,4.3292685,-11.219512,-0.0486763
868,-0.9907227,0.34375,-0.144043,-2.6219513,5.1829271,-11.4634151,-0.0500191
869,-0.9790039,0.3320312,-0.1220703,-1.8292683,4.6951222,-12.0121956,-0.0480049
870,-0.9692383,0.3271484,-0.1318359,-0.7926829,5,-11.8902445,-0.0506905
871,-0.9643555,0.34375,-0.1665039,0.4268293,7.0731707,-10.7317076,-0.0500191
872,-0.9658203,0.3637695,-0.1928711,0.4268293,7.9878049,-9.7560978,-0.0473335
873,-0.9604492,0.3891602,-0.2421875,-1.9512196,9.5121956,-8.1707315,-0.0503548
874,-0.9604492,0.3862305,-0.2436523,-3.5975611,10.1829271,-7.4390244,-0.0486763
875,-0.9648438,0.3500977,-0.2382812,-7.0731707,12.0121956,-7.1951222,-0.0486763
876,-0.9682617,0.2978516,-0.2319336,-7.6829271,12.6219511,-7.1341467,-0.0476692
877,-0.987793,0.2900391,-0.2119141,-6.6463418,13.4146347,-6.7682929,-0.0500191
878,-1.0078125,0.300293,-0.1918945,-5.1219511,12.9878054,-6.0975609,-0.0476692
879,-1.0107422,0.3178711,-0.1977539,-2.0121951,10.9756098,-5.4878049,-0.0449836
880,-1.0048828,0.3476562,-0.2158203,-0.8536586,9.8170738,-5,-0.0419623
881,-0.9863281,0.3535156,-0.2177734,-0.6707317,9.2073174,-5,-0.0433051
882,-0.9404297,0.3608398,-0.1899414,0.4878049,7.2560978,-5.609756,-0.0379339
883,-0.921875,0.3725586,-0.1743164,1.2195122,6.7682929,-6.0975609,-0.0392767
884,-0.8691406,0.4145508,-0.1367188,1.7073171,5.7926831,-5.9756098,-0.0365911
885,-0.8227539,0.4619141,-0.1499023,1.7073171,4.9390244,-6.0365853,-0.0386053
886,-0.8017578,0.484375,-0.1474609,0.3048781,4.5731707,-5.609756,-0.0386053
887,-0.762207,0.4873047,-0.1264648,-0.2439024,4.9390244,-5,-0.0369268
888,-0.7583008,0.480957,-0.1323242,-1.1585366,7.0731707,-4.9390244,-0.035584
889,-0.7714844,0.4667969,-0.1586914,-2.195122,8.3536587,-4.3292685,-0.0352483
890,-0.7822266,0.4501953,-0.1518555,-4.9390244,10.8536587,-3.1707318,-0.0369268
891,-0.8129883,0.4125977,-0.125,-7.2560978,11.8902445,-3.2926829,-0.0369268
892,-0.828125,0.3964844,-0.1269531,-8.0487804,11.5243902,-3.5975611,-0.0379339
893,-0.862793,0.3701172,-0.1230469,-7.9268293,10.3048782,-3.6585367,-0.0359197
894,-0.8818359,0.3779297,-0.1396484,-6.4024391,9.3292685,-3.7195122,-0.0352483
895,-0.90625,0.4111328,-0.2255859,-4.5121951,7.6219516,-3.0487804,-0.0352483
896,-0.9072266,0.4350586,-0.2856445,-4.5731707,7.2560978,-2.7439024,-0.0419623
897,-0.9116211,0.4365234,-0.3066406,-5.8536587,6.5243902,-2.3780489,-0.0433051
898,-0.9243164,0.4174805,-0.3417969,-6.5853658,7.0121951,-2.195122,-0.0439765
899,-0.9306641,0.3935547,-0.3486328,-8.5365858,7.6219516,-1.2195122,-0.0426337
900,-0.9467773,0.3476562,-0.3300781,-9.2682924,8.1097565,-0.6097561,-0.0446479
901,-0.9526367,0.324707,-0.309082,-8.5975609,7.5609756,0.5487805,-0.0426337
902,-0.9594727,0.2944336,-0.2475586,-5.9146342,6.4024391,0.4878049,-0.0396124
903,-0.9624023,0.2929688,-0.2250977,-4.1463413,5.9146342,0.4878049,-0.0406195
904,-0.9667969,0.3041992,-0.1845703,-1.9512196,4.8780489,1.3414634,-0.0412909
905,-0.96875,0.3198242,-0.1738281,-1.3414634,4.5731707,1.8902439,-0.0419623
906,-0.9619141,0.34375,-0.1782227,-1.8902439,4.3292685,3.4756098,-0.0392767
907,-0.9477539,0.3618164,-0.1958008,-2.195122,4.390244,4.1463413,-0.0382696
908,-0.9458008,0.3642578,-0.2177734,-2.4390244,5.2439027,4.8780489,-0.0379339
909,-0.9501953,0.3613281,-0.2592773,-2.6219513,5.609756,5.0609756,-0.0365911
910,-0.9526367,0.3530273,-0.2631836,-2.9268293,6.0975609,6.6463418,-0.0386053
911,-0.9526367,0.3393555,-0.2675781,-3.0487804,6.4024391,7.2560978,-0.0392767
912,-0.9453125,0.3222656,-0.2504883,-2.6219513,6.7073174,8.3536587,-0.0406195
913,-0.9487305,0.309082,-0.2158203,-3.0487804,7.2560978,8.719512,-0.0419623
914,-0.956543,0.3105469,-0.2016602,-2.9878049,7.6829271,9.2073174,-0.0439765
915,-0.972168,0.3134766,-0.1855469,-3.9634147,8.1707315,10.5487804,-0.0436408
916,-0.9780273,0.3203125,-0.1806641,-4.0853658,8.5365858,11.1585369,-0.0409552
917,-0.9936523,0.3393555,-0.2041016,-4.2073174,8.0487804,12.3170738,-0.0412909
918,-0.9985352,0.3525391,-0.2426758,-4.5121951,7.5609756,12.6219511,-0.0433051
919,-0.9995117,0.362793,-0.2602539,-3.7195122,7.4390244,12.9878054,-0.0453193
920,-0.9946289,0.3852539,-0.2763672,-3.0487804,7.0121951,13.2926836,-0.0439765
921,-0.9833984,0.4008789,-0.2763672,-1.3414634,5.9756098,14.0243902,-0.0446479
922,-0.9545898,0.4233398,-0.2578125,-1.1585366,5.7317076,14.1463413,-0.0439765
923,-0.9472656,0.4248047,-0.237793,-1.8292683,5.7926831,14.3292685,-0.0433051
924,-0.9233398,0.4345703,-0.2084961,-3.5365853,6.6463418,14.7560978,-0.0419623
925,-0.9213867,0.4375,-0.2021484,-4.8170733,7.1341467,15.1829271,-0.0433051
926,-0.9189453,0.4331055,-0.1987305,-6.9512196,8.4756098,15.8536587,-0.0439765
927,-0.9189453,0.4272461,-0.2016602,-7.8048782,8.9024391,16.1585369,-0.0459907
928,-0.9282227,0.4189453,-0.2265625,-8.9024391,8.780488,16.7073174,-0.0473335
929,-0.9399414,0.4282227,-0.2509766,-9.6341467,8.4146347,17.1341476,-0.0486763
930,-0.9350586,0.4277344,-0.2539062,-10.3048782,7.9878049,18.0487804,-0.0453193
931,-0.9316406,0.4208984,-0.2783203,-10.6707315,7.3170733,18.4146347,-0.0466621
932,-0.9238281,0.4169922,-0.284668,-12.0731707,6.8292685,18.2926826,-0.0473335
933,-0.9130859,0.402832,-0.2954102,-13.1707315,6.6463418,18.780489,-0.0486763
934,-0.9077148,0.3916016,-0.2954102,-15,6.7073174,19.3292694,-0.0480049
935,-0.9150391,0.3920898,-0.2915039,-15.6097565,7.6219516,19.6951218,-0.0466621
936,-0.9204102,0.4003906,-0.2905273,-15.6097565,7.5,20,-0.0446479
937,-0.9296875,0.418457,-0.2866211,-15.6707325,7.2560978,19.8780499,-0.0449836
938,-0.9375,0.4228516,-0.2788086,-15.3048782,6.7682929,20.1219521,-0.0426337
939,-0.9506836,0.4355469,-0.2641602,-15.2439032,6.5243902,20.9146347,-0.0392767
940,-0.9516602,0.4335938,-0.2495117,-15.3048782,6.1585369,21.5853672,-0.0419623
941,-0.9467773,0.4208984,-0.2446289,-16.0365849,5.1219511,22.560976,-0.0419623
942,-0.9291992,0.4067383,-0.2490234,-16.5243912,4.9390244,22.8658543,-0.0406195
943,-0.9194336,0.409668,-0.253418,-17.9268303,4.0853658,23.0487804,-0.0426337
944,-0.9086914,0.4291992,-0.2612305,-18.7195129,3.3536587,22.6829281,-0.0392767
945,-0.909668,0.4399414,-0.2753906,-19.8170738,2.3780489,21.9512196,-0.0379339
946,-0.9077148,0.4658203,-0.2915039,-20.5487804,1.402439,22.2560978,-0.0352483
947,-0.9067383,0.4770508,-0.3364258,-21.8292694,1.402439,22.6219521,-0.0372625
948,-0.8984375,0.4838867,-0.3789062,-26.5853672,1.5853659,23.8414631,-0.0359197
949,-0.8881836,0.4716797,-0.3774414,-28.3536587,2.1341465,24.0243912,-0.0365911
950,-0.8833008,0.4355469,-0.3955078,-29.6341476,2.0731707,24.2682934,-0.0359197
951,-0.894043,0.4189453,-0.3706055,-29.6951218,2.5,24.5731716,-0.0365911
952,-0.9067383,0.4086914,-0.3486328,-28.780489,3.4146342,24.6341476,-0.0379339
953,-0.9165039,0.3930664,-0.3056641,-27.3780499,3.3536587,24.6341476,-0.0359197
954,-0.9199219,0.3930664,-0.2890625,-23.2926826,2.3170731,24.3292694,-0.0342412
955,-0.9189453,0.4243164,-0.2607422,-20.3658543,1.5853659,23.5975609,-0.0365911
956,-0.9194336,0.4433594,-0.2646484,-15.1219511,0.4878049,22.8048782,-0.0392767
957,-0.9145508,0.4760742,-0.3066406,-12.9268293,-1.097561,22.8048782,-0.0386053
958,-0.9047852,0.4853516,-0.3251953,-13.1097565,-1.5243902,23.2317085,-0.0365911
959,-0.8808594,0.4975586,-0.3427734,-14.5121956,-0.9146342,24.4512196,-0.0399481
960,-0.8657227,0.4902344,-0.3417969,-15.7926836,-0.8536586,24.6341476,-0.0392767
961,-0.84375,0.4731445,-0.3095703,-18.4756107,0.5487805,24.5731716,-0.0379339
962,-0.847168,0.4521484,-0.2670898,-19.2682934,1.2195122,24.1463413,-0.0399481
963,-0.862793,0.4438477,-0.2583008,-19.6951218,2.3780489,23.7195129,-0.0416266
964,-0.8955078,0.4501953,-0.246582,-19.3902435,2.0731707,23.4756107,-0.0436408
965,-0.9052734,0.453125,-0.2436523,-17.8048782,0.7317073,23.5365868,-0.0446479
966,-0.9072266,0.4667969,-0.2495117,-16.8902435,0,23.4756107,-0.0419623
967,-0.902832,0.4750977,-0.2592773,-14.9390249,-1.5853659,23.2926826,-0.0412909
968,-0.8876953,0.4916992,-0.2783203,-12.7439032,-3.5365853,22.560976,-0.0406195
969,-0.8745117,0.5014648,-0.2944336,-12.1341467,-4.390244,22.1951218,-0.0352483
970,-0.8393555,0.5078125,-0.3076172,-11.4634151,-4.6341462,21.2195129,-0.0379339
971,-0.8237305,0.5087891,-0.3017578,-10.8536587,-4.6341462,20.7926826,-0.0392767
972,-0.8017578,0.5166016,-0.3061523,-10.2439022,-4.6951222,20.060976,-0.0359197
973,-0.7973633,0.4975586,-0.2973633,-10.6707315,-3.6585367,19.8780499,-0.0399481
974,-0.8007812,0.4824219,-0.2807617,-12.3170738,-1.9512196,19.7560978,-0.0433051
975,-0.8305664,0.4472656,-0.2436523,-12.3780489,-1.0365853,20.060976,-0.0426337
976,-0.8481445,0.4482422,-0.2329102,-11.280488,-0.7317073,19.939024,-0.0406195
977,-0.8896484,0.4692383,-0.2250977,-10.6097565,-1.097561,19.4512196,-0.0433051
978,-0.9082031,0.4848633,-0.2358398,-9.9390249,-2.2560976,18.3536587,-0.0399481
979,-0.9418945,0.4926758,-0.2495117,-9.7560978,-3.9634147,18.0487804,-0.0439765
980,-0.9516602,0.4916992,-0.262207,-9.2073174,-5.0609756,17.8658543,-0.0439765
981,-0.9423828,0.4848633,-0.2910156,-7.8048782,-6.7682929,18.5975609,-0.0419623
982,-0.9316406,0.4790039,-0.2939453,-7.0121951,-7.6219516,18.7195129,-0.0409552
983,-0.9013672,0.4628906,-0.2836914,-5.8536587,-9.0243902,17.9878044,-0.0419623
984,-0.8686523,0.4375,-0.2587891,-5.670732,-9.7560978,17.0731716,-0.0419623
985,-0.8549805,0.425293,-0.2402344,-5.7317076,-9.5121956,16.5243912,-0.0439765
986,-0.8530273,0.4189453,-0.2026367,-5.3658538,-9.2682924,16.4634151,-0.0473335
987,-0.8520508,0.4204102,-0.1938477,-5,-9.3902445,16.0365849,-0.0466621
988,-0.855957,0.4145508,-0.1875,-5.0609756,-8.841464,15.9756098,-0.0433051
989,-0.862793,0.4101562,-0.1816406,-5.5487804,-9.0243902,16.0365849,-0.0446479
990,-0.8662109,0.3901367,-0.1748047,-6.0365853,-8.9024391,15.6707325,-0.0459907
991,-0.871582,0.3891602,-0.1831055,-6.0365853,-9.1463413,15.1829271,-0.0453193
992,-0.8930664,0.409668,-0.2075195,-6.0975609,-9.6341467,14.3902445,-0.0473335
993,-0.9091797,0.4277344,-0.215332,-6.3414636,-10.060976,13.780488,-0.0439765
994,-0.9301758,0.4609375,-0.2280273,-6.6463418,-11.4024391,12.7439032,-0.0446479
995,-0.9223633,0.456543,-0.230957,-7.2560978,-12.4390249,12.560976,-0.0453193
996,-0.9155273,0.4394531,-0.2236328,-7.1951222,-14.1463413,12.560976,-0.0419623
997,-0.8754883,0.4038086,-0.2089844,-6.7073174,-14.6951227,12.7439032,-0.0412909
998,-0.8525391,0.3935547,-0.2016602,-4.5731707,-15.1829271,12.3170738,-0.0419623
999,-0.8339844,0.3925781,-0.1850586,-3.6585367,-15.2439032,11.8292685,-0.0406195
1000,-0.8359375,0.4047852,-0.1811523,-2.6219513,-15.3048782,9.8170738,-0.0446479
1001,-0.8520508,0.4506836,-0.1962891,-2.5,-15.1829271,8.5365858,-0.0446479
1002,-0.8681641,0.480957,-0.2119141,-3.5365853,-15.060976,8.1097565,-0.0406195
1003,-0.8974609,0.5195312,-0.2304688,-6.5853658,-14.9390249,7.8048782,-0.0419623
1004,-0.9082031,0.527832,-0.2333984,-8.4146347,-15,8.1707315,-0.0446479
1005,-0.9199219,0.5244141,-0.2524414,-11.4024391,-14.6341467,8.719512,-0.0446479
1006,-0.9301758,0.5043945,-0.2915039,-12.5,-14.5731707,8.841464,-0.0486763
1007,-0.9335938,0.4936523,-0.3051758,-14.8170738,-13.9024391,8.841464,-0.0459907
1008,-0.9418945,0.4711914,-0.331543,-15.6097565,-13.7195129,9.0243902,-0.0473335
1009,-0.9404297,0.4785156,-0.3378906,-16.4024391,-14.0853662,9.0243902,-0.0433051
1010,-0.9389648,0.5205078,-0.3320312,-16.8292694,-15.6707325,8.1097565,-0.0446479
1011,-0.9248047,0.5415039,-0.3256836,-18.2317085,-17.0121956,7.0121951,-0.0459907
1012,-0.8891602,0.519043,-0.2861328,-22.0121956,-18.2926826,5.7926831,-0.0419623
1013,-0.8710938,0.4853516,-0.296875,-24.1463413,-17.6219521,5.4268293,-0.0406195
1014,-0.8310547,0.3901367,-0.3178711,-26.4024391,-16.0975609,7.3170733,-0.0433051
1015,-0.8105469,0.3588867,-0.3310547,-26.7073174,-15.5487804,8.3536587,-0.0433051
1016,-0.7832031,0.4023438,-0.3496094,-29.5731716,-15.4878054,7.7439027,-0.0419623
1017,-0.78125,0.4697266,-0.3564453,-32.9268303,-15.3048782,6.0975609,-0.0406195
1018,-0.7744141,0.46875,-0.3554688,-42.6219521,-15,2.7439024,-0.0399481
1019,-0.7587891,0.409668,-0.3564453,-47.2560997,-14.5121956,2.5,-0.0399481
1020,-0.7519531,0.3818359,-0.355957,-53.4756126,-12.8658543,3.2926829,-0.0406195
1021,-0.7270508,0.3427734,-0.3676758,-55.6097565,-11.7073174,3.9634147,-0.0433051
1022,-0.7124023,0.3251953,-0.3891602,-55.0609779,-11.5853662,3.3536587,-0.0433051
1023,-0.6899414,0.3388672,-0.4042969,-54.3902435,-12.0731707,0,-0.0392767
1024,-0.6860352,0.3691406,-0.425293,-54.5731735,-13.4756098,-2.0731707,-0.0406195
1025,-0.6889648,0.4511719,-0.4487305,-58.1707344,-16.1585369,-5.0609756,-0.038941
1026,-0.6923828,0.4970703,-0.440918,-61.0975609,-17.1951218,-5.2439027,-0.0426337
1027,-0.6704102,0.5717773,-0.3920898,-67.1341476,-18.0487804,-4.3292685,-0.0433051
1028,-0.6347656,0.5756836,-0.3500977,-70.0609741,-17.439024,-3.8414636,-0.0419623
1029,-0.6240234,0.5595703,-0.3256836,-76.646347,-13.2926836,-3.5365853,-0.0433051
1030,-0.6577148,0.5058594,-0.2924805,-80.18293,-10.5487804,-3.7195122,-0.0446479
1031,-0.7016602,0.4785156,-0.2954102,-86.3414688,-4.8170733,-4.0243902,-0.0463264
1032,-0.8168945,0.4438477,-0.3007812,-90.8536606,-0.9146342,-3.9634147,-0.0493477
1033,-0.8823242,0.4165039,-0.300293,-91.5853653,0.0609756,-3.4146342,-0.049012
1034,-0.9990234,0.3544922,-0.2807617,-90.3048782,-0.4268293,-2.5609756,-0.0486763
1035,-1.0429688,0.3251953,-0.2661133,-88.5365906,-1.7682927,-2.3780489,-0.049012
1036,-1.1064453,0.2861328,-0.2319336,-83.2317123,-5.7317076,-2.3170731,-0.0480049
1037,-1.1245117,0.2866211,-0.2124023,-80.6097565,-8.6585369,-2.5,-0.0503548
1038,-1.1318359,0.3105469,-0.1733398,-75.5487823,-13.1707315,-3.1097562,-0.0503548
1039,-1.1035156,0.3520508,-0.1435547,-73.0487823,-15.4878054,-2.5609756,-0.0513619
1040,-1.0795898,0.375,-0.1367188,-70,-19.0853672,-2.7439024,-0.0527047
1041,-1.0146484,0.4326172,-0.1523438,-69.2073212,-20.6097565,-2.7439024,-0.0553902
1042,-0.9824219,0.4570312,-0.1694336,-70.8536606,-20.9756107,-2.4390244,-0.0533761
1043,-0.9287109,0.4863281,-0.1904297,-73.8414688,-19.5121956,-1.3414634,-0.0500191
1044,-0.9033203,0.4897461,-0.1889648,-75.3658524,-18.2926826,-0.6097561,-0.0513619
1045,-0.8793945,0.4750977,-0.1835938,-77.9268341,-15.1829271,0.7926829,-0.0533761
1046,-0.8735352,0.4589844,-0.1806641,-78.9024429,-13.4146347,1.5853659,-0.0516976
1047,-0.8857422,0.4262695,-0.1811523,-80.4268341,-10.060976,3.0487804,-0.0527047
1048,-0.9003906,0.4174805,-0.1728516,-81.2804871,-9.1463413,3.2317073,-0.0513619
1049,-0.9438477,0.4003906,-0.1538086,-81.5243912,-7.9268293,3.7804878,-0.0513619
1050,-0.9902344,0.3999023,-0.1552734,-81.646347,-7.8048782,3.9634147,-0.0480049
1051,-1.0063477,0.4047852,-0.1503906,-81.1585388,-8.719512,4.390244,-0.0513619
1052,-1.0268555,0.4208984,-0.1625977,-80.7317123,-9.6951218,3.9634147,-0.0527047
1053,-1.0322266,0.4282227,-0.1762695,-79.0243912,-11.5243902,3.8414636,-0.0500191
1054,-1.019043,0.4467773,-0.2270508,-76.1585388,-13.0487804,3.9024391,-0.0513619
1055,-0.9990234,0.4614258,-0.2504883,-74.9390259,-14.0853662,4.2073174,-0.0513619
1056,-0.9580078,0.4824219,-0.2905273,-72.8658524,-14.8780489,4.6951222,-0.0513619
1057,-0.9355469,0.4912109,-0.2958984,-72.3780518,-14.7560978,4.7560978,-0.0527047
1058,-0.8876953,0.496582,-0.2734375,-73.3536606,-12.6829271,5,-0.0540475
1059,-0.8491211,0.5014648,-0.2148438,-73.7804871,-12.1341467,5,-0.0540475
1060,-0.8398438,0.5048828,-0.1923828,-74.3292694,-10.060976,4.5121951,-0.0513619
1061,-0.8369141,0.5209961,-0.1831055,-74.7560959,-9.3902445,4.5731707,-0.0530404
1062,-0.8374023,0.5249023,-0.1953125,-76.5243912,-8.2317076,5.0609756,-0.0543832
1063,-0.8432617,0.5463867,-0.2231445,-77.9268341,-7.6219516,5.670732,-0.0540475
1064,-0.8481445,0.5527344,-0.2329102,-80.5487823,-5.7317076,6.6463418,-0.0540475
1065,-0.8447266,0.534668,-0.2294922,-82.1341476,-4.4512196,7.3780489,-0.0540475
1066,-0.8427734,0.5205078,-0.2207031,-82.68293,-3.7195122,7.5609756,-0.0530404
1067,-0.8427734,0.4526367,-0.1635742,-81.5853653,-3.1707318,7.6219516,-0.0500191
1068,-0.8354492,0.3950195,-0.1660156,-79.9390259,-1.7682927,7.6829271,-0.0527047
1069,-0.8603516,0.3681641,-0.2387695,-78.1707306,0.3658537,7.7439027,-0.0530404
1070,-0.8857422,0.3916016,-0.1801758,-79.2073212,-1.6463414,8.5365858,-0.0513619
1071,-0.8652344,0.3657227,-0.0751953,-76.9512177,-7.8658538,6.4024391,-0.0503548
1072,-0.8720703,0.2768555,0.0136719,-71.8292694,-9.6341467,3.7804878,-0.0543832
1073,-0.8979492,0.2714844,-0.0556641,-60.3658562,-9.2073174,1.4634147,-0.0513619
1074,-0.9125977,0.3681641,-0.2226562,-57.9268303,-9.5731707,2.195122,-0.0466621
1075,-0.8959961,0.4345703,-0.2568359,-58.4146347,-13.1707315,4.3292685,-0.0459907
1076,-0.8305664,0.5136719,-0.2719727,-60.18293,-16.0975609,3.2926829,-0.0513619
1077,-0.8032227,0.519043,-0.2734375,-60.9146347,-16.280489,2.2560976,-0.0493477
1078,-0.7758789,0.4624023,-0.2304688,-61.7073174,-14.4512196,-0.3048781,-0.0486763
1079,-0.7641602,0.4038086,-0.1982422,-61.7682953,-13.5365858,-1.0365853,-0.0513619
1080,-0.7758789,0.3144531,-0.1533203,-59.9390259,-12.3170738,-1.5243902,-0.0540475
1081,-0.8129883,0.3032227,-0.1206055,-58.5975609,-11.7682934,-1.6463414,-0.0500191
1082,-0.8417969,0.3276367,-0.1181641,-55.1219521,-11.7073174,-2.6219513,-0.0473335
1083,-0.9116211,0.4042969,-0.1533203,-53.4146347,-12.560976,-3.5365853,-0.0459907
1084,-0.9448242,0.4365234,-0.1713867,-52.6219521,-15.3048782,-5.2439027,-0.0480049
1085,-1.0097656,0.4682617,-0.2006836,-52.0731735,-16.7073174,-5.1829271,-0.0466621
1086,-1.0302734,0.46875,-0.2133789,-50.4268303,-18.7195129,-4.6951222,-0.0433051
1087,-1.043457,0.4384766,-0.2216797,-47.4390259,-20.6707325,-2.7439024,-0.0436408
1088,-1.0341797,0.418457,-0.2192383,-46.1585388,-22.439024,-2.5609756,-0.0449836
1089,-0.9960938,0.3862305,-0.199707,-42.8048782,-25,-2.804878,-0.0446479
1090,-0.980957,0.375,-0.1889648,-41.2195129,-25.6097565,-3.3536587,-0.0426337
1091,-0.9526367,0.3857422,-0.1821289,-37.6219521,-27.2560978,-4.8780489,-0.0409552
1092,-0.9350586,0.4169922,-0.1967773,-36.4024391,-28.3536587,-5.609756,-0.0439765
1093,-0.9267578,0.4291992,-0.2026367,-35,-30.1219521,-5.9756098,-0.0439765
1094,-0.9082031,0.4414062,-0.2075195,-34.2682953,-30.5487804,-5.8536587,-0.0466621
1095,-0.9018555,0.4428711,-0.2016602,-34.5731697,-30,-4.9390244,-0.0406195
1096,-0.8867188,0.4355469,-0.1782227,-34.7560997,-29.7560978,-4.8170733,-0.0419623
1097,-0.8852539,0.4335938,-0.1762695,-34.4512215,-28.4146347,-4.6341462,-0.0446479
1098,-0.887207,0.4208984,-0.1645508,-35.0609779,-27.8658543,-4.9390244,-0.0439765
1099,-0.8935547,0.4033203,-0.1459961,-36.1585388,-26.9512196,-4.9390244,-0.0449836
1100,-0.9160156,0.3735352,-0.1000977,-36.2804871,-25.7926826,-5.670732,-0.0419623
1101,-0.9316406,0.3603516,-0.0864258,-36.0975609,-25.5487804,-5.7317076,-0.0433051
1102,-0.956543,0.3500977,-0.0649414,-35.5487823,-24.5731716,-5.4878049,-0.0446479
1103,-0.9736328,0.3344727,-0.0292969,-35.1219521,-24.2073174,-5.3048782,-0.0433051
1104,-0.9838867,0.3251953,0,-34.3902435,-22.9878063,-5.1829271,-0.0446479
1105,-0.9892578,0.2973633,0.0390625,-33.7804871,-22.2560978,-4.9390244,-0.0459907
1106,-0.9951172,0.2895508,0.043457,-31.2195129,-21.280489,-5,-0.0500191
1107,-1.0053711,0.2973633,0.0297852,-29.4512196,-20.6097565,-5.0609756,-0.0493477
1108,-1.0117188,0.3095703,0.0229492,-25.060976,-19.5731716,-4.5121951,-0.0493477
1109,-1.0136719,0.3364258,-0.0161133,-19.7560978,-19.3292694,-4.390244,-0.0500191
1110,-1.0087891,0.3447266,-0.0385742,-16.7073174,-18.9634151,-4.2682929,-0.0486763
1111,-0.9975586,0.3803711,-0.059082,-11.1585369,-18.4146347,-4.1463413,-0.0459907
1112,-0.9858398,0.3984375,-0.0556641,-8.3536587,-18.1097565,-4.2682929,-0.0459907
1113,-0.9599609,0.4257812,-0.0498047,-4.0853658,-17.439024,-4.8170733,-0.0446479
1114,-0.9438477,0.4404297,-0.0483398,-2.5609756,-16.7073174,-5.1829271,-0.0439765
1115,-0.9384766,0.4462891,-0.0537109,-1.5243902,-14.4512196,-4.390244,-0.0419623
1116,-0.9331055,0.4404297,-0.0668945,-1.2804878,-13.2926836,-3.8414636,-0.0412909
1117,-0.9345703,0.4331055,-0.0791016,-1.5243902,-11.280488,-2.4390244,-0.0419623
1118,-0.9389648,0.4125977,-0.0883789,-1.0365853,-10.2439022,-1.7073171,-0.0453193
1119,-0.9423828,0.4047852,-0.09375,0.6707317,-8.3536587,-0.6097561,-0.0446479
1120,-0.9648438,0.3935547,-0.0966797,3.7195122,-7.1341467,0.0609756,-0.0433051
1121,-0.9765625,0.4023438,-0.1000977,5.9146342,-6.5853658,0.4878049,-0.0449836
1122,-0.9892578,0.4306641,-0.1166992,10.1829271,-6.3414636,1.097561,-0.0439765
1123,-0.9907227,0.4443359,-0.1328125,11.8902445,-6.5243902,1.4634147,-0.0419623
1124,-0.9868164,0.4702148,-0.1816406,12.7439032,-6.1585369,2.5,-0.0459907
1125,-0.9775391,0.4584961,-0.2050781,12.6829271,-5.7926831,2.9268293,-0.0473335
1126,-0.9711914,0.4448242,-0.1904297,11.8292685,-4.8780489,3.8414636,-0.0466621
1127,-0.9589844,0.4145508,-0.1508789,12.1341467,-4.8170733,4.1463413,-0.0473335
1128,-0.956543,0.4033203,-0.1289062,13.9024391,-3.9024391,4.5731707,-0.0480049
1129,-0.9682617,0.40625,-0.0966797,15.7317076,-3.8414636,4.7560978,-0.0449836
1130,-0.9755859,0.4296875,-0.09375,20.1219521,-2.6829269,4.9390244,-0.0433051
1131,-1.0019531,0.4711914,-0.0776367,23.2926826,-2.6829269,5.670732,-0.0426337
1132,-1.0053711,0.4863281,-0.0742188,24.3902435,-3.1097562,6.0365853,-0.0466621
1133,-1.0009766,0.4990234,-0.0610352,24.9390259,-3.0487804,7.1341467,-0.0446479
1134,-0.9882812,0.4897461,-0.0615234,25.1219521,-3.0487804,7.4390244,-0.0399481
1135,-0.9521484,0.4580078,-0.0556641,25.060976,-2.195122,7.6219516,-0.0406195
1136,-0.9233398,0.4262695,-0.0698242,25.2439022,-2.1341465,7.7439027,-0.0419623
1137,-0.9145508,0.4296875,-0.090332,26.8292694,-0.4268293,7.8048782,-0.0406195
1138,-0.9160156,0.4467773,-0.1464844,27.0121956,0.1829268,8.0487804,-0.0439765
1139,-0.9155273,0.4516602,-0.1630859,25.9756107,1.7073171,8.1097565,-0.0419623
1140,-0.9345703,0.4575195,-0.190918,25.4878063,2.5,8.1097565,-0.0406195
1141,-0.9487305,0.4594727,-0.2001953,24.1463413,3.9024391,7.9268293,-0.0399481
1142,-0.9780273,0.4594727,-0.2324219,23.2317085,4.5121951,8.719512,-0.0399481
1143,-0.9907227,0.4584961,-0.2456055,22.6829281,4.390244,8.5975609,-0.0433051
1144,-1.0048828,0.4516602,-0.2397461,22.1951218,4.1463413,8.9634151,-0.0433051
1145,-1.003418,0.4477539,-0.2265625,22.2560978,3.7195122,8.9024391,-0.0396124
1146,-0.9868164,0.4213867,-0.2084961,23.4756107,2.5609756,8.0487804,-0.0409552
1147,-0.9726562,0.402832,-0.1948242,24.6341476,2.5,7.7439027,-0.0439765
1148,-0.9633789,0.3989258,-0.1923828,25.9756107,1.8902439,7.8048782,-0.0459907
1149,-0.9536133,0.4194336,-0.2001953,26.5243912,1.8902439,7.8658538,-0.0446479
1150,-0.9438477,0.4448242,-0.2099609,27.0121956,1.8292683,8.841464,-0.0446479
1151,-0.9399414,0.4780273,-0.2358398,26.4024391,1.8902439,8.6585369,-0.0473335
1152,-0.9423828,0.4941406,-0.2456055,25,2.1341465,8.6585369,-0.0473335
1153,-0.9511719,0.5180664,-0.2587891,21.9512196,3.1097562,8.780488,-0.0473335
1154,-0.9521484,0.5195312,-0.2626953,20.3658543,2.9268293,9.2073174,-0.0446479
1155,-0.9501953,0.503418,-0.2597656,16.5243912,2.9268293,9.6341467,-0.0459907
1156,-0.9423828,0.4873047,-0.2509766,15.4268293,2.5609756,9.7560978,-0.0446479
1157,-0.9360352,0.4521484,-0.2216797,14.5121956,2.2560976,10.060976,-0.0436408
1158,-0.9306641,0.4492188,-0.2055664,14.8170738,1.7682927,10.3658543,-0.0392767
1159,-0.9287109,0.4677734,-0.2055664,16.2195129,1.4634147,10.6097565,-0.0365911
1160,-0.9316406,0.5058594,-0.2177734,15.9756098,1.3414634,10.5487804,-0.0379339
1161,-0.9355469,0.5244141,-0.234375,14.1463413,0.7317073,10.4268293,-0.0379339
1162,-0.9345703,0.5380859,-0.265625,12.6829271,0.7317073,10.7926836,-0.0386053
1163,-0.9321289,0.534668,-0.2700195,9.0243902,0.8536586,11.7682934,-0.0412909
1164,-0.9111328,0.5053711,-0.2275391,6.0975609,0.2439024,11.7073174,-0.0419623
1165,-0.8955078,0.4824219,-0.2026367,5,0,11.341464,-0.0406195
1166,-0.8735352,0.4423828,-0.152832,4.0853658,0.2439024,10.7317076,-0.042298
1167,-0.8642578,0.4326172,-0.1289062,4.0853658,0.1829268,10.4878054,-0.0459907
1168,-0.8500977,0.4462891,-0.1318359,4.2073174,0.4268293,10.7317076,-0.0433051
1169,-0.8422852,0.4780273,-0.1523438,3.5975611,0.4268293,10.8536587,-0.0412909
1170,-0.8408203,0.4941406,-0.1591797,1.402439,0.6097561,11.219512,-0.0419623
1171,-0.8481445,0.512207,-0.1831055,0.4268293,0.8536586,11.0365858,-0.0433051
1172,-0.8569336,0.5068359,-0.1918945,-2.7439024,0.7317073,11.5853662,-0.0449836
1173,-0.8808594,0.5019531,-0.1738281,-4.390244,0.7926829,11.5243902,-0.0426337
1174,-0.8808594,0.487793,-0.1542969,-6.0365853,0.2439024,11.4634151,-0.0419623
1175,-0.8803711,0.4301758,-0.1342773,-5.670732,-0.4878049,10.1829271,-0.0433051
1176,-0.8818359,0.4023438,-0.1484375,-4.6341462,-0.8536586,9.7560978,-0.0419623
1177,-0.8813477,0.3886719,-0.1826172,-3.1097562,-2.1341465,9.5731707,-0.0412909
1178,-0.8725586,0.4052734,-0.1816406,-2.5609756,-2.6219513,9.2073174,-0.0426337
1179,-0.8330078,0.4521484,-0.1831055,-2.0731707,-4.8780489,8.2317076,-0.042298
1180,-0.8022461,0.5087891,-0.2119141,-2.4390244,-5.7926831,7.7439027,-0.0392767
1181,-0.7900391,0.5268555,-0.2270508,-5.4268293,-5.670732,7.5,-0.0412909
1182,-0.7866211,0.5395508,-0.253418,-7.6829271,-5.1219511,7.8048782,-0.0406195
1183,-0.7944336,0.5283203,-0.2480469,-12.0121956,-4.1463413,8.0487804,-0.0379339
1184,-0.8300781,0.4980469,-0.2250977,-13.7195129,-4.0853658,7.8048782,-0.0392767
1185,-0.8530273,0.4692383,-0.2070312,-16.280489,-4.5121951,7.1951222,-0.0379339
1186,-0.875,0.4125977,-0.1494141,-16.7682934,-5.9756098,6.7682929,-0.0392767
1187,-0.8842773,0.3798828,-0.1171875,-15.6707325,-6.8292685,6.5243902,-0.0365911
1188,-0.8876953,0.3618164,-0.0947266,-12.9878054,-8.719512,6.3414636,-0.0419623
1189,-0.8823242,0.3789062,-0.0996094,-12.3170738,-9.6951218,6.9512196,-0.0433051
1190,-0.8540039,0.4350586,-0.121582,-10.9146347,-10.9146347,6.9512196,-0.0433051
1191,-0.8237305,0.4970703,-0.1616211,-11.280488,-11.4024391,6.890244,-0.0409552
1192,-0.8105469,0.5224609,-0.1826172,-13.5975609,-11.4024391,6.890244,-0.0433051
1193,-0.7958984,0.5366211,-0.190918,-15.7317076,-11.0365858,6.7073174,-0.0419623
1194,-0.7919922,0.5258789,-0.1923828,-20.2439022,-10.6707315,6.0365853,-0.042298
1195,-0.7875977,0.4829102,-0.184082,-24.0853672,-10.2439022,5.609756,-0.0439765
1196,-0.7939453,0.4614258,-0.1801758,-25.1829281,-10.2439022,5.4878049,-0.0416266
1197,-0.8051758,0.4335938,-0.1757812,-26.5853672,-11.1585369,5.0609756,-0.0392767
1198,-0.809082,0.4208984,-0.1816406,-27.3780499,-11.341464,4.9390244,-0.0412909
1199,-0.8208008,0.4130859,-0.1889648,-28.3536587,-11.280488,4.8170733,-0.042298
1200,-0.828125,0.4165039,-0.1801758,-28.4756107,-11.1585369,4.6341462,-0.0433051
1201,-0.8466797,0.4394531,-0.1674805,-28.2926826,-11.9512196,3.1707318,-0.0406195
1202,-0.859375,0.4755859,-0.159668,-28.1097565,-12.0121956,2.7439024,-0.0396124
1203,-0.8632812,0.4931641,-0.1484375,-29.2682934,-12.1951218,1.8902439,-0.0392767
1204,-0.8681641,0.5092773,-0.1274414,-30.1829281,-12.3780489,2.2560976,-0.0406195
1205,-0.8598633,0.5078125,-0.1240234,-31.6463413,-12.8658543,2.3170731,-0.0412909
1206,-0.8574219,0.5,-0.1142578,-32.7439041,-12.7439032,3.1707318,-0.0433051
1207,-0.8583984,0.4887695,-0.1152344,-33.3536606,-12.560976,3.6585367,-0.0392767
1208,-0.8632812,0.4677734,-0.1083984,-34.6951218,-12.0731707,4.3292685,-0.0386053
1209,-0.8730469,0.4594727,-0.1030273,-34.8170738,-11.6463413,4.6341462,-0.0406195
1210,-0.9033203,0.4667969,-0.0986328,-34.6341476,-11.6463413,5.1219511,-0.0433051
1211,-0.9228516,0.4731445,-0.1069336,-34.3902435,-11.9512196,5.3658538,-0.0409552
1212,-0.9379883,0.4819336,-0.1318359,-34.5731697,-13.1097565,6.0365853,-0.0412909
1213,-0.9213867,0.4741211,-0.1157227,-35.3048782,-13.4146347,5.8536587,-0.0419623
1214,-0.9135742,0.4692383,-0.1015625,-34.6951218,-14.3292685,5.3658538,-0.0386053
1215,-0.8950195,0.4677734,-0.0927734,-34.2682953,-15.1829271,5.609756,-0.0386053
1216,-0.8837891,0.4780273,-0.0996094,-32.6219521,-16.280489,5.5487804,-0.0379339
1217,-0.8686523,0.5097656,-0.1171875,-32.2560997,-16.5853653,6.5243902,-0.0365911
1218,-0.8618164,0.5224609,-0.1303711,-32.8658562,-17.1341476,6.6463418,-0.0406195
1219,-0.8662109,0.53125,-0.152832,-34.6341476,-17.1341476,7.8658538,-0.0386053
1220,-0.8701172,0.5273438,-0.1621094,-35.4268303,-16.9512196,8.719512,-0.0386053
1221,-0.8955078,0.5087891,-0.1572266,-36.0975609,-16.9512196,9.5731707,-0.0386053
1222,-0.90625,0.4990234,-0.1445312,-35.4268303,-17.1951218,9.6341467,-0.0406195
1223,-0.9331055,0.4951172,-0.1025391,-33.1097565,-18.0487804,9.2682924,-0.0396124
1224,-0.9492188,0.503418,-0.0751953,-31.1585369,-19.1463413,8.9634151,-0.0433051
1225,-0.9511719,0.5102539,-0.0761719,-29.0853672,-21.280489,8.2926826,-0.0426337
1226,-0.934082,0.5327148,-0.0893555,-28.5365868,-22.0121956,8.4756098,-0.0406195
1227,-0.9199219,0.5361328,-0.1005859,-28.5365868,-22.6219521,9.3902445,-0.0443122
1228,-0.8964844,0.5307617,-0.1318359,-30.6097565,-22.2560978,10.5487804,-0.0453193
1229,-0.8925781,0.5244141,-0.140625,-31.8902454,-21.6463413,10.7317076,-0.0459907
1230,-0.9082031,0.4970703,-0.1420898,-34.3292694,-20.4878044,11.8292685,-0.0459907
1231,-0.9174805,0.4882812,-0.1298828,-35.3658562,-20,12.4390249,-0.0459907
1232,-0.9438477,0.4682617,-0.1181641,-35.3658562,-19.8170738,12.6219511,-0.0466621
1233,-0.9643555,0.465332,-0.1171875,-34.3902435,-19.6951218,12.8658543,-0.0453193
1234,-0.987793,0.4780273,-0.1162109,-31.4634151,-20.060976,13.2926836,-0.042298
1235,-0.9853516,0.4970703,-0.1196289,-30.1829281,-20.8536587,13.4756098,-0.0463264
1236,-0.9746094,0.5097656,-0.1235352,-27.1951218,-22.9268303,12.9878054,-0.0500191
1237,-0.9418945,0.5229492,-0.1259766,-26.4634151,-24.2073174,12.4390249,-0.0459907
1238,-0.9199219,0.5249023,-0.128418,-25.8536587,-24.9390259,11.7682934,-0.0433051
1239,-0.8769531,0.5288086,-0.1337891,-26.4024391,-24.0853672,11.8292685,-0.0433051
1240,-0.8579102,0.5288086,-0.1376953,-26.5243912,-23.9634151,12.3170738,-0.0453193
1241,-0.8300781,0.5205078,-0.121582,-28.5975609,-23.3536587,12.7439032,-0.0486763
1242,-0.8217773,0.5141602,-0.0986328,-29.6341476,-22.5,12.6829271,-0.049012
1243,-0.8168945,0.4887695,-0.0483398,-31.8292694,-20.1219521,13.1097565,-0.0480049
1244,-0.8334961,0.46875,-0.0327148,-31.8902454,-19.0853672,13.780488,-0.0486763
1245,-0.8378906,0.4560547,-0.0371094,-31.7073174,-17.0731716,14.8170738,-0.0493477
1246,-0.8476562,0.4472656,-0.0610352,-31.4634151,-16.0975609,15.5487804,-0.0486763
1247,-0.8442383,0.4458008,-0.0717773,-30.6707325,-15.7317076,15.9146347,-0.0513619
1248,-0.8442383,0.4609375,-0.0874023,-30.3048782,-15.8536587,15.3658543,-0.0540475
1249,-0.8442383,0.4677734,-0.0991211,-29.0853672,-15.4268293,14.3292685,-0.0557259
1250,-0.8452148,0.4882812,-0.1196289,-29.2073174,-14.5121956,13.5365858,-0.056733
1251,-0.8452148,0.4946289,-0.1166992,-29.3902454,-14.0853662,13.7195129,-0.0574044
1252,-0.8583984,0.5087891,-0.1118164,-30.4268303,-13.2317076,14.1463413,-0.0543832
1253,-0.8623047,0.519043,-0.121582,-30.6097565,-12.9878054,14.3292685,-0.0557259
1254,-0.8662109,0.5332031,-0.1318359,-33.2317085,-12.1341467,15.3658543,-0.0547189
1255,-0.8618164,0.5332031,-0.1367188,-34.9390259,-11.8902445,15.3658543,-0.0553902
1256,-0.8613281,0.5229492,-0.137207,-38.0487823,-11.4024391,15.7926836,-0.0543832
1257,-0.8662109,0.5073242,-0.144043,-39.1463432,-11.0975609,16.0975609,-0.0547189
1258,-0.8686523,0.5043945,-0.1430664,-40.1829262,-10.1219511,16.1585369,-0.0513619
1259,-0.8701172,0.4926758,-0.1337891,-39.7560997,-9.8780489,16.3414631,-0.0453193
1260,-0.8701172,0.4892578,-0.121582,-39.9390259,-10.6097565,15.5487804,-0.0453193
1261,-0.8461914,0.4882812,-0.1015625,-39.9390259,-11.1585369,14.3902445,-0.0459907
1262,-0.8408203,0.4833984,-0.0874023,-39.9390259,-11.280488,13.9024391,-0.0466621
1263,-0.8144531,0.4941406,-0.0791016,-38.9634171,-11.5243902,12.8658543,-0.0426337
1264,-0.8071289,0.5009766,-0.0913086,-38.9024391,-11.4634151,12.9878054,-0.0436408
1265,-0.8046875,0.5170898,-0.1337891,-38.4146347,-10.6707315,13.5975609,-0.0449836
1266,-0.8198242,0.5297852,-0.1762695,-38.7195129,-10.3048782,14.1463413,-0.0433051
1267,-0.8271484,0.5268555,-0.1826172,-39.5121956,-9.8780489,15.7317076,-0.0446479
1268,-0.8520508,0.512207,-0.1669922,-40.0609779,-9.9390249,16.4024391,-0.0446479
1269,-0.8666992,0.5024414,-0.1557617,-40.1829262,-10.6097565,17.2560978,-0.0406195
1270,-0.8891602,0.4780273,-0.1230469,-39.9390259,-11.0975609,17.3780499,-0.0392767
1271,-0.8989258,0.4726562,-0.1030273,-38.5975609,-11.9512196,17.5,-0.0365911
1272,-0.9086914,0.4716797,-0.0629883,-35.5487823,-12.6829271,16.7073174,-0.0379339
1273,-0.9111328,0.4741211,-0.0439453,-33.4756088,-13.4146347,16.0975609,-0.0392767
1274,-0.9106445,0.4868164,-0.0322266,-30.060976,-15,15.3048782,-0.0392767
1275,-0.9047852,0.4912109,-0.0341797,-29.0853672,-15.6097565,14.6341467,-0.0419623
1276,-0.8847656,0.5053711,-0.043457,-26.0975609,-15.9146347,14.5731707,-0.0459907
1277,-0.8564453,0.5302734,-0.0429688,-25.1219521,-16.2195129,14.5121956,-0.0473335
1278,-0.8398438,0.5380859,-0.0410156,-23.2926826,-16.3414631,14.4512196,-0.0466621
1279,-0.815918,0.5478516,-0.0351562,-23.2317085,-16.7073174,14.2073174,-0.0446479
1280,-0.8051758,0.546875,-0.043457,-24.0243912,-15.9146347,13.9024391,-0.0433051
1281,-0.7983398,0.5253906,-0.0537109,-24.5121956,-15.1219511,14.1463413,-0.0459907
1282,-0.7978516,0.5185547,-0.0561523,-25.1829281,-13.9634151,14.8170738,-0.0433051
1283,-0.8037109,0.5180664,-0.0654297,-23.780489,-13.1707315,15.3048782,-0.0412909
1284,-0.8081055,0.5283203,-0.0791016,-22.9268303,-12.8658543,14.8780489,-0.0433051
1285,-0.8178711,0.5478516,-0.0888672,-23.1097565,-12.9268293,13.7195129,-0.0466621
1286,-0.8242188,0.5571289,-0.0859375,-23.4146347,-12.8658543,13.0487804,-0.0486763
1287,-0.8378906,0.5585938,-0.0737305,-25.2439022,-12.5,11.9512196,-0.0520333
1288,-0.8505859,0.5571289,-0.0795898,-25.3658543,-12.6829271,11.5243902,-0.0473335
1289,-0.8588867,0.5498047,-0.0893555,-25.6707325,-12.8658543,12.3170738,-0.0446479
1290,-0.8500977,0.5400391,-0.09375,-26.0365868,-12.9878054,12.6219511,-0.0476692
1291,-0.8457031,0.5400391,-0.0874023,-26.6463413,-13.1097565,12.6829271,-0.0439765
1292,-0.8447266,0.534668,-0.0693359,-26.4634151,-12.9268293,12.6829271,-0.0459907
1293,-0.8505859,0.5302734,-0.0654297,-26.1585369,-12.8048782,11.7682934,-0.0459907
1294,-0.8608398,0.5332031,-0.0673828,-24.9390259,-12.8048782,11.0365858,-0.0466621
1295,-0.871582,0.5327148,-0.0654297,-24.5731716,-12.5,10.9146347,-0.0446479
1296,-0.8833008,0.5385742,-0.0703125,-23.8414631,-12.5,11.219512,-0.0433051
1297,-0.8862305,0.5361328,-0.0737305,-23.780489,-12.6219511,11.4024391,-0.0443122
1298,-0.8857422,0.5234375,-0.0810547,-24.8170738,-13.7195129,11.7682934,-0.0480049
1299,-0.8701172,0.4975586,-0.0708008,-26.0365868,-14.3292685,11.8292685,-0.0473335
1300,-0.8603516,0.4790039,-0.0634766,-27.1951218,-14.5121956,11.0365858,-0.0480049
1301,-0.8374023,0.4609375,-0.0498047,-27.3170738,-14.3292685,10.7926836,-0.0486763
1302,-0.8339844,0.4614258,-0.0424805,-25.1219521,-14.1463413,9.9390249,-0.0466621
1303,-0.8334961,0.480957,-0.0458984,-23.6585369,-13.5975609,9.6951218,-0.0459907
1304,-0.8344727,0.4946289,-0.0473633,-21.4634151,-13.3536587,9.2073174,-0.0459907
1305,-0.8505859,0.527832,-0.0449219,-20.7926826,-13.1707315,8.841464,-0.0459907
1306,-0.8549805,0.5385742,-0.0371094,-21.2195129,-13.2926836,9.0243902,-0.0446479
1307,-0.8618164,0.5380859,-0.0170898,-22.0731716,-14.2073174,8.9024391,-0.0513619
1308,-0.8583984,0.5297852,-0.0161133,-22.3780499,-14.8780489,9.2073174,-0.0506905
1309,-0.855957,0.5195312,-0.0234375,-21.7682934,-14.8780489,9.4512196,-0.0486763
1310,-0.8540039,0.5126953,-0.0302734,-20.8536587,-14.8170738,9.9390249,-0.0503548
1311,-0.8569336,0.5131836,-0.0385742,-18.9634151,-14.6951227,10.2439022,-0.0466621
1312,-0.871582,0.5058594,-0.0463867,-18.2317085,-14.6341467,9.8780489,-0.0459907
1313,-0.8745117,0.5063477,-0.0488281,-17.560976,-14.6341467,9.8170738,-0.049012
1314,-0.8759766,0.5078125,-0.0405273,-17.439024,-14.7560978,9.7560978,-0.0493477
1315,-0.8803711,0.5117188,-0.0449219,-16.8292694,-15.4878054,8.4146347,-0.0486763
1316,-0.8769531,0.5214844,-0.0605469,-16.1585369,-16.1585369,7.6219516,-0.0473335
1317,-0.8754883,0.5268555,-0.0678711,-16.1585369,-16.8292694,7.3170733,-0.0473335
1318,-0.8676758,0.5390625,-0.0820312,-15.3658543,-17.1951218,7.1341467,-0.0459907
1319,-0.8603516,0.5463867,-0.0898438,-15,-17.5,6.6463418,-0.0459907
1320,-0.8476562,0.5600586,-0.0800781,-14.5731707,-17.6829281,6.0975609,-0.0473335
1321,-0.8334961,0.5595703,-0.0478516,-14.9390249,-17.9878044,5.9146342,-0.0459907
1322,-0.8266602,0.5581055,-0.0307617,-15.6097565,-17.9268303,5.2439027,-0.0466621
1323,-0.8139648,0.5463867,-0.0102539,-16.280489,-18.1707325,5.3048782,-0.0473335
1324,-0.8129883,0.5390625,-0.0073242,-17.7439022,-17.560976,5.7926831,-0.0493477
1325,-0.8125,0.5283203,-0.0048828,-17.8658543,-17.0121956,6.0975609,-0.0459907
1326,-0.8139648,0.5253906,-0.0053711,-16.6463413,-15.4268293,6.8292685,-0.0439765
1327,-0.824707,0.5283203,-0.0195312,-15.9756098,-14.5121956,6.8292685,-0.0439765
1328,-0.8330078,0.5317383,-0.0185547,-16.0975609,-14.4512196,6.7073174,-0.0419623
1329,-0.8496094,0.5239258,0.0024414,-16.5243912,-14.3292685,6.4024391,-0.0449836
1330,-0.8540039,0.5258789,0.0161133,-16.6463413,-14.3292685,6.3414636,-0.0446479
1331,-0.8564453,0.5185547,0.0180664,-16.5853653,-14.3902445,6.2195125,-0.0466621
1332,-0.8505859,0.5107422,0.0107422,-16.2195129,-14.5121956,5.9756098,-0.0469978
1333,-0.8408203,0.515625,0.0126953,-14.2073174,-14.2073174,6.0975609,-0.0446479
1334,-0.8354492,0.5273438,0.0083008,-13.0487804,-14.0243902,5.7317076,-0.0500191
1335,-0.8271484,0.5361328,0.0024414,-11.8902445,-13.5975609,5.4878049,-0.0500191
1336,-0.8178711,0.5429688,-0.0053711,-12.1951218,-13.6585369,5.2439027,-0.0486763
1337,-0.8134766,0.5332031,0.0019531,-13.2926836,-13.6585369,5.1829271,-0.0459907
1338,-0.8041992,0.5102539,0.0239258,-14.8780489,-13.0487804,5.9146342,-0.0459907
1339,-0.7998047,0.4970703,0.0273438,-15.1219511,-12.3780489,6.4634147,-0.0473335
1340,-0.793457,0.4868164,0.03125,-15.3658543,-11.4024391,6.5853658,-0.0506905
1341,-0.7944336,0.4819336,0.0375977,-14.8170738,-10.8536587,6.4024391,-0.0500191
1342,-0.8056641,0.484375,0.0234375,-13.1097565,-10,5.9756098,-0.0473335
1343,-0.8198242,0.5063477,0.0004883,-12.1341467,-9.8170738,5.9756098,-0.0486763
1344,-0.8325195,0.5146484,-0.0141602,-10.2439022,-9.6341467,5.670732,-0.0466621
1345,-0.8461914,0.5336914,-0.0400391,-9.2682924,-9.3902445,5.8536587,-0.0459907
1346,-0.8452148,0.5405273,-0.0478516,-7.6219516,-9.2682924,5.9756098,-0.0469978
1347,-0.8432617,0.5512695,-0.0498047,-7.5609756,-9.8780489,5.9756098,-0.0453193
1348,-0.8383789,0.5522461,-0.0488281,-7.8658538,-10.7926836,6.1585369,-0.0433051
1349,-0.8198242,0.5458984,-0.0361328,-8.3536587,-10.7317076,5.7317076,-0.0409552
1350,-0.8134766,0.5380859,-0.0209961,-8.4146347,-10.3658543,5.4268293,-0.0392767
1351,-0.7963867,0.5317383,-0.0102539,-8.4146347,-9.3902445,5.2439027,-0.0409552
1352,-0.7973633,0.5307617,-0.0126953,-8.3536587,-9.1463413,5.2439027,-0.0396124
1353,-0.7973633,0.5317383,-0.0283203,-7.9268293,-8.4146347,5.0609756,-0.0379339
1354,-0.8081055,0.5395508,-0.0537109,-7.9268293,-8.3536587,5.1829271,-0.0409552
1355,-0.8120117,0.5410156,-0.0649414,-7.9878049,-7.9878049,5.3658538,-0.0433051
1356,-0.8291016,0.5493164,-0.0654297,-8.0487804,-7.8048782,5.7317076,-0.0419623
1357,-0.8359375,0.5576172,-0.0595703,-7.6829271,-8.1707315,5.1219511,-0.0419623
1358,-0.8505859,0.5610352,-0.0527344,-7.7439027,-9.0243902,4.7560978,-0.0406195
1359,-0.8466797,0.5546875,-0.0429688,-7.7439027,-10.3048782,3.5365853,-0.0426337
1360,-0.847168,0.5332031,-0.0229492,-6.3414636,-9.5121956,2.3780489,-0.0426337
1361,-0.8510742,0.5224609,-0.043457,-5.7317076,-8.841464,2.9878049,-0.0439765
1362,-0.8452148,0.5131836,-0.090332,-7.6219516,-7.9878049,5.1219511,-0.0433051
1363,-0.8374023,0.5097656,-0.0859375,-9.0853662,-7.8048782,5.8536587,-0.0446479
1364,-0.831543,0.5009766,-0.0400391,-9.3902445,-8.1707315,5.1829271,-0.0426337
1365,-0.84375,0.4902344,-0.027832,-8.1707315,-8.1707315,4.5731707,-0.0426337
1366,-0.8505859,0.4916992,-0.0454102,-5.3048782,-7.7439027,3.1097562,-0.0453193
1367,-0.8666992,0.4975586,-0.0727539,-4.5731707,-7.5,2.6219513,-0.0426337
1368,-0.8735352,0.5053711,-0.0717773,-4.0243902,-8.1097565,2.6829269,-0.0406195
1369,-0.8676758,0.5068359,-0.0561523,-4.1463413,-8.2926826,3.2926829,-0.0399481
1370,-0.8579102,0.5029297,-0.0444336,-4.2073174,-8.4146347,2.9268293,-0.0406195
1371,-0.8408203,0.4780273,-0.0444336,-4.390244,-8.1097565,2.6829269,-0.0396124
1372,-0.8300781,0.4658203,-0.0541992,-4.3292685,-8.0487804,2.3780489,-0.0365911
1373,-0.8081055,0.4643555,-0.0737305,-1.5853659,-7.8048782,2.195122,-0.0339055
1374,-0.7983398,0.4726562,-0.0820312,-0.1829268,-7.6219516,2.0731707,-0.0359197
1375,-0.7832031,0.5053711,-0.0893555,3.6585367,-7.0731707,1.2804878,-0.0386053
1376,-0.78125,0.5493164,-0.1020508,4.8780489,-6.9512196,0.4878049,-0.0392767
1377,-0.7763672,0.5644531,-0.1132812,5.7317076,-7.2560978,-0.1219512,-0.0386053
1378,-0.7788086,0.5869141,-0.1381836,5.5487804,-7.3170733,0.0609756,-0.0406195
1379,-0.7773438,0.59375,-0.1538086,4.3292685,-7.1341467,0.4268293,-0.035584
1380,-0.7753906,0.6030273,-0.1733398,1.4634147,-6.5243902,1.9512196,-0.0379339
1381,-0.78125,0.6030273,-0.1708984,0.0609756,-6.0975609,2.5,-0.0352483
1382,-0.7851562,0.5961914,-0.1464844,-3.1707318,-5.9146342,2.5609756,-0.038941
1383,-0.7915039,0.5908203,-0.1362305,-4.390244,-5.7926831,2.195122,-0.0406195
1384,-0.8066406,0.5654297,-0.1162109,-5.5487804,-6.4634147,1.5853659,-0.0396124
1385,-0.8178711,0.5566406,-0.1098633,-6.0365853,-6.7682929,1.3414634,-0.0382696
1386,-0.828125,0.5419922,-0.0917969,-5.0609756,-7.4390244,1.2195122,-0.0419623
1387,-0.8369141,0.5410156,-0.0849609,-4.2682929,-7.4390244,1.1585366,-0.0459907
1388,-0.8378906,0.546875,-0.0859375,-2.0731707,-7.8048782,0.7926829,-0.0433051
1389,-0.8442383,0.5644531,-0.0957031,-1.3414634,-7.7439027,0.5487805,-0.0433051
1390,-0.8496094,0.574707,-0.1118164,-0.8536586,-8.2926826,0.1219512,-0.0446479
1391,-0.8608398,0.5810547,-0.1289062,-2.195122,-8.3536587,0.0609756,-0.0466621
1392,-0.862793,0.5805664,-0.1245117,-2.7439024,-8.1097565,0.1219512,-0.0459907
1393,-0.8657227,0.5615234,-0.097168,-3.9634147,-8.4756098,0.4268293,-0.0419623
1394,-0.862793,0.5498047,-0.0854492,-3.9024391,-9.0853662,0.5487805,-0.0446479
1395,-0.8491211,0.5322266,-0.0625,-2.6219513,-9.6951218,0.4268293,-0.0426337
1396,-0.840332,0.5322266,-0.0527344,-1.7682927,-9.1463413,-0.1219512,-0.0436408
1397,-0.831543,0.5444336,-0.0419922,0.4268293,-8.9024391,-0.9146342,-0.0412909
1398,-0.8398438,0.5581055,-0.0371094,1.2804878,-8.4756098,-1.2195122,-0.0436408
1399,-0.8398438,0.5727539,-0.0375977,1.2804878,-8.1097565,-1.5853659,-0.0392767
1400,-0.8476562,0.5756836,-0.0463867,1.0365853,-7.9268293,-1.402439,-0.0379339
1401,-0.847168,0.5737305,-0.0532227,-0.5487805,-7.6829271,-1.1585366,-0.0386053
1402,-0.8461914,0.5605469,-0.0581055,-1.8292683,-7.5,-0.4268293,-0.0379339
1403,-0.84375,0.5605469,-0.0581055,-2.2560976,-7.4390244,-0.1829268,-0.0379339
1404,-0.8330078,0.5473633,-0.0605469,-2.5609756,-7.3780489,-0.1219512,-0.0379339
1405,-0.8251953,0.5405273,-0.0605469,-2.6219513,-7.1951222,-0.3048781,-0.0379339
1406,-0.8295898,0.527832,-0.0761719,-2.0121951,-6.9512196,-0.1219512,-0.0372625
1407,-0.8310547,0.5263672,-0.081543,-1.6463414,-6.890244,-0.1829268,-0.0379339
1408,-0.8388672,0.5336914,-0.0810547,0.1219512,-6.7073174,-0.1829268,-0.0399481
1409,-0.8510742,0.5522461,-0.0947266,0.9146342,-6.7073174,0.2439024,-0.0443122
1410,-0.8520508,0.5605469,-0.0927734,1.8902439,-7.2560978,-0.1829268,-0.0473335
1411,-0.855957,0.5708008,-0.0854492,1.6463414,-7.4390244,-0.3048781,-0.049012
1412,-0.8486328,0.5712891,-0.0839844,0.6707317,-8.2317076,-0.4268293,-0.0513619
1413,-0.840332,0.5629883,-0.0791016,-1.0365853,-8.2317076,-0.1219512,-0.0473335
1414,-0.8305664,0.5561523,-0.0737305,-2.2560976,-8.3536587,-0.0609756,-0.0473335
1415,-0.8066406,0.5410156,-0.0439453,-3.4146342,-7.9878049,0.2439024,-0.049012
1416,-0.7998047,0.5273438,-0.0371094,-3.9024391,-7.7439027,0.2439024,-0.049012
1417,-0.796875,0.5087891,-0.0380859,-4.4512196,-6.7682929,0.4268293,-0.0446479
1418,-0.8071289,0.4975586,-0.0551758,-4.0243902,-6.4634147,0.2439024,-0.0446479
1419,-0.8129883,0.496582,-0.074707,-2.6219513,-5.7926831,1.4634147,-0.0406195
1420,-0.8300781,0.503418,-0.0996094,-1.8902439,-5.4878049,1.7682927,-0.0406195
1421,-0.831543,0.5097656,-0.0991211,-0.6707317,-5.2439027,2.195122,-0.0406195
1422,-0.8378906,0.527832,-0.0854492,-0.4268293,-5.3658538,1.8902439,-0.0419623
1423,-0.8393555,0.5283203,-0.0771484,-0.5487805,-6.0365853,0.7926829,-0.0436408
1424,-0.8432617,0.5351562,-0.0634766,-0.7926829,-6.280488,0.3048781,-0.0459907
1425,-0.8500977,0.5395508,-0.0571289,-0.3658537,-6.0975609,0.2439024,-0.0433051
1426,-0.8510742,0.5483398,-0.0581055,0.2439024,-5.8536587,0.6707317,-0.0466621
1427,-0.8520508,0.5537109,-0.0571289,0.4878049,-5.9146342,0.9756098,-0.0473335
1428,-0.8447266,0.5561523,-0.0537109,-0.6097561,-5.9756098,1.7682927,-0.0433051
1429,-0.8344727,0.5522461,-0.0561523,-0.7317073,-5.9146342,1.9512196,-0.0419623
1430,-0.8330078,0.5478516,-0.0561523,-2.0731707,-5,2.0731707,-0.0419623
1431,-0.8339844,0.5380859,-0.0551758,-2.6219513,-4.5731707,1.8292683,-0.0379339
1432,-0.8334961,0.5322266,-0.0556641,-2.9878049,-4.3292685,2.2560976,-0.0406195
1433,-0.8378906,0.5317383,-0.0620117,-3.4146342,-4.4512196,2.3780489,-0.0406195
1434,-0.8378906,0.5307617,-0.0664062,-3.4756098,-4.1463413,2.3780489,-0.0396124
1435,-0.8388672,0.5415039,-0.0732422,-3.7195122,-4.1463413,2.0121951,-0.0406195
1436,-0.8374023,0.5463867,-0.0795898,-3.4756098,-3.8414636,1.9512196,-0.0392767
1437,-0.8466797,0.5668945,-0.0874023,-4.0853658,-3.7804878,1.6463414,-0.0379339
1438,-0.8491211,0.5727539,-0.0893555,-4.7560978,-3.6585367,1.7682927,-0.0379339
1439,-0.8476562,0.5869141,-0.0869141,-6.4024391,-3.7195122,1.9512196,-0.0386053
1440,-0.847168,0.5908203,-0.0878906,-7.1341467,-3.6585367,1.8292683,-0.0365911
1441,-0.8486328,0.590332,-0.0859375,-8.719512,-3.9024391,2.2560976,-0.0392767
1442,-0.8505859,0.5869141,-0.0898438,-9.1463413,-4.0853658,2.0121951,-0.0369268
1443,-0.8491211,0.5834961,-0.0922852,-10.4878054,-4.2682929,2.3780489,-0.0365911
1444,-0.8442383,0.5722656,-0.0761719,-11.1585369,-4.2073174,2.5,-0.0365911
1445,-0.8422852,0.5634766,-0.0708008,-12.8048782,-4.7560978,2.6829269,-0.0359197
1446,-0.8393555,0.5263672,-0.0571289,-14.2682934,-4.5121951,2.804878,-0.0392767
1447,-0.8398438,0.5107422,-0.0556641,-14.5731707,-4.6951222,2.7439024,-0.0406195
1448,-0.8344727,0.4897461,-0.0581055,-13.780488,-4.5731707,2.4390244,-0.0396124
1449,-0.8344727,0.4892578,-0.0683594,-13.1097565,-4.9390244,2.1341465,-0.0419623
1450,-0.8310547,0.5009766,-0.09375,-10.7317076,-5.0609756,1.7682927,-0.0379339
1451,-0.8325195,0.519043,-0.1142578,-9.5731707,-5.3048782,1.4634147,-0.0386053
1452,-0.8339844,0.5385742,-0.1191406,-7.6829271,-5.670732,1.0365853,-0.0439765
1453,-0.8393555,0.5678711,-0.1152344,-7.6829271,-5.9146342,0.7926829,-0.0466621
1454,-0.8393555,0.5786133,-0.112793,-9.1463413,-6.2195125,0.6097561,-0.0433051
1455,-0.8378906,0.581543,-0.0830078,-10.8536587,-6.2195125,0.7926829,-0.042298
1456,-0.8330078,0.5717773,-0.0629883,-14.4512196,-6.2195125,1.6463414,-0.0419623
1457,-0.8232422,0.5478516,-0.027832,-16.6463413,-6.5243902,1.6463414,-0.0406195
1458,-0.8208008,0.5332031,-0.0224609,-17.1951218,-6.4634147,1.7073171,-0.0412909
1459,-0.8232422,0.5185547,-0.0317383,-16.1585369,-5.9146342,1.402439,-0.0459907
1460,-0.828125,0.519043,-0.0454102,-15.6707325,-5.7926831,1.402439,-0.0473335
1461,-0.847168,0.5239258,-0.0629883,-14.0853662,-5.1219511,2.195122,-0.0473335
1462,-0.859375,0.5332031,-0.0668945,-13.841464,-5.1829271,2.3170731,-0.0473335
1463,-0.8632812,0.534668,-0.0620117,-13.4756098,-5.670732,1.8902439,-0.0459907
1464,-0.8530273,0.5332031,-0.0678711,-13.5365858,-6.4024391,1.2804878,-0.0503548
1465,-0.8496094,0.5361328,-0.0771484,-13.5975609,-7.1341467,0.0609756,-0.0520333
1466,-0.8452148,0.5361328,-0.1030273,-13.4756098,-7.8048782,-0.0609756,-0.0500191
1467,-0.8447266,0.5419922,-0.1142578,-13.0487804,-7.9268293,0.4268293,-0.0500191
1468,-0.8398438,0.5507812,-0.1176758,-12.5,-7.9878049,1.1585366,-0.0500191
1469,-0.8432617,0.5581055,-0.1206055,-12.3780489,-7.9878049,1.402439,-0.0527047
1470,-0.8476562,0.5595703,-0.1347656,-13.2926836,-7.8048782,1.402439,-0.0533761
1471,-0.8554688,0.5546875,-0.1367188,-14.6341467,-7.3780489,1.7682927,-0.0540475
1472,-0.8671875,0.5292969,-0.1005859,-17.2560978,-7.7439027,2.6829269,-0.0527047
1473,-0.8647461,0.4985352,-0.0488281,-17.8658543,-8.1707315,2.9268293,-0.0543832
1474,-0.8613281,0.4897461,-0.0283203,-16.7073174,-8.4146347,3.0487804,-0.0513619
1475,-0.8647461,0.484375,-0.0249023,-15.3048782,-8.2317076,2.5609756,-0.049012
1476,-0.8623047,0.4936523,-0.0258789,-12.8658543,-7.9268293,1.8292683,-0.0527047
1477,-0.8720703,0.5136719,-0.0253906,-11.8292685,-8.1707315,1.7682927,-0.0500191
1478,-0.8745117,0.5200195,-0.0253906,-11.7073174,-8.1097565,1.9512196,-0.0500191
1479,-0.8730469,0.527832,-0.0302734,-12.3170738,-7.9268293,2.3170731,-0.0513619
1480,-0.8706055,0.5253906,-0.0273438,-12.6219511,-7.8048782,2.6829269,-0.0500191
1481,-0.8623047,0.5214844,-0.0366211,-13.0487804,-7.5,3.2926829,-0.0533761
1482,-0.8574219,0.519043,-0.0405273,-13.3536587,-7.5609756,3.5365853,-0.0540475
1483,-0.8544922,0.519043,-0.0429688,-13.5975609,-7.1341467,3.1707318,-0.0527047
1484,-0.8491211,0.5263672,-0.059082,-13.4146347,-7.3170733,3.1097562,-0.0527047
1485,-0.8505859,0.5288086,-0.0751953,-14.3902445,-6.7682929,3.1097562,-0.0527047
1486,-0.8540039,0.5258789,-0.0825195,-14.5731707,-6.4634147,3.0487804,-0.0500191
1487,-0.8525391,0.5253906,-0.0791016,-14.9390249,-6.890244,3.4756098,-0.049012
1488,-0.8579102,0.5268555,-0.0869141,-14.5121956,-7.0731707,3.1707318,-0.0500191
1489,-0.8588867,0.5336914,-0.0913086,-13.0487804,-7.0731707,3.0487804,-0.0486763
1490,-0.8686523,0.5537109,-0.0952148,-11.8292685,-6.4634147,3.5975611,-0.0473335
1491,-0.8701172,0.5610352,-0.0996094,-12.1341467,-6.6463418,3.9024391,-0.0459907
1492,-0.8710938,0.5649414,-0.09375,-12.8048782,-7.0121951,4.5121951,-0.0486763
1493,-0.8671875,0.5585938,-0.0825195,-13.2926836,-7.0121951,4.8170733,-0.0493477
1494,-0.8574219,0.5371094,-0.0693359,-13.5365858,-7.3780489,5,-0.0473335
1495,-0.8476562,0.5126953,-0.0571289,-13.5975609,-7.1951222,5.3658538,-0.0446479
1496,-0.8413086,0.5048828,-0.0454102,-13.2926836,-6.6463418,6.0975609,-0.0459907
1497,-0.8359375,0.4970703,-0.0307617,-12.6219511,-6.280488,6.5243902,-0.0459907
1498,-0.8374023,0.5024414,-0.0322266,-11.0975609,-5.4878049,6.7073174,-0.0466621
1499,-0.8452148,0.5170898,-0.0419922,-10.3658543,-5,6.7073174,-0.0527047
1500,-0.8525391,0.5244141,-0.0400391,-9.3292685,-4.4512196,6.3414636,-0.0543832
1501,-0.8579102,0.546875,-0.0439453,-9.2682924,-4.4512196,5.9146342,-0.0527047
1502,-0.8613281,0.5561523,-0.0478516,-9.5121956,-4.1463413,6.0365853,-0.0543832
1503,-0.8588867,0.5556641,-0.0654297,-10.3048782,-4.2682929,6.0975609,-0.0540475
1504,-0.8481445,0.5517578,-0.0742188,-10.6707315,-3.8414636,6.3414636,-0.0574044
1505,-0.8393555,0.5439453,-0.0820312,-10.6707315,-3.9634147,6.6463418,-0.0574044
1506,-0.8305664,0.5483398,-0.0869141,-10.3658543,-3.5365853,6.7682929,-0.0580758
1507,-0.8305664,0.5512695,-0.0893555,-9.6341467,-2.8658538,6.890244,-0.0547189
1508,-0.8251953,0.5615234,-0.097168,-9.3292685,-2.4390244,6.890244,-0.0587472
1509,-0.8291016,0.5620117,-0.0996094,-10.060976,-1.8902439,6.6463418,-0.06009
1510,-0.8393555,0.5610352,-0.0986328,-10.9146347,-1.4634147,6.6463418,-0.06009
1511,-0.8417969,0.5600586,-0.0942383,-12.0121956,-0.6707317,7.4390244,-0.0580758
1512,-0.8452148,0.5556641,-0.0908203,-13.3536587,0,7.8658538,-0.0580758
1513,-0.8432617,0.5507812,-0.0917969,-14.2682934,-0.1219512,8.2926826,-0.0574044
1514,-0.8457031,0.5302734,-0.0898438,-15.3658543,0.4268293,8.4756098,-0.0540475
1515,-0.8476562,0.519043,-0.0986328,-15.1219511,0.1829268,8.719512,-0.0513619
1516,-0.8432617,0.5024414,-0.1074219,-13.6585369,0.4268293,8.9634151,-0.0527047
1517,-0.8398438,0.5083008,-0.1196289,-12.560976,0.4268293,9.2682924,-0.0506905
1518,-0.8432617,0.5161133,-0.1235352,-9.0853662,0.0609756,8.5975609,-0.0493477
1519,-0.8422852,0.5336914,-0.1396484,-7.8048782,-0.1219512,8.2926826,-0.0493477
1520,-0.840332,0.5449219,-0.1518555,-5.7926831,-0.6707317,8.1097565,-0.0547189
1521,-0.8349609,0.5683594,-0.1679688,-5.5487804,-0.4268293,8.2926826,-0.056733
1522,-0.8354492,0.574707,-0.1660156,-5.7317076,-0.6097561,9.0853662,-0.0553902
