Application:, Trigno Discover (1.6.5)
Date/Time:, 03/02/2025 11:08:06
Collection Length (seconds):, 40.7835
wrist (81457), , , , , , bicep (81139)
sensor mode: 609, , , , , , sensor mode: 40
ACC X (G), ACC Y (G), ACC Z (G), GYRO X (deg/s), GYRO Y (deg/s), GYRO Z (deg/s), EMG 1 (mV)
370.3704 Hz, 370.3704 Hz, 370.3704 Hz, 370.3704 Hz, 370.3704 Hz, 370.3704 Hz, 2148.1481 Hz
-1.0200195, 0.0229492, 0.0410156, -21.5853672, -2.6219513, 12.3780489, -0.0755322
-1.0014648, 0.0146484, 0.0478516, -22.3780499, -2.5, 12.4390249, -0.0788891
-0.996582, 0.015625, 0.0512695, -23.1707325, -2.4390244, 12.3170738, -0.0822461
-0.9941406, 0.0083008, 0.0532227, -23.4146347, -2.3170731, 12.560976, -0.0882887
-0.9873047, 0.0078125, 0.065918, -24.2682934, -1.9512196, 12.9878054, -0.1164874
-0.9863281, 0.0058594, 0.0717773, -24.6951218, -1.8292683, 13.2926836, -0.1376364
-0.9912109, -0.0004883, 0.0805664, -24.8170738, -1.3414634, 13.780488, -0.1473716
-0.9960938, -0.0009766, 0.0820312, -24.9390259, -0.5487805, 14.5731707, -0.1520714
-0.9921875, 0.0053711, 0.0810547, -24.8170738, -0.2439024, 14.7560978, -0.1527428
-0.9946289, 0.0102539, 0.0805664, -24.5121956, 0.3658537, 15.6707325, -0.1440146
-0.9970703, 0.015625, 0.0756836, -24.4512196, 0.3048781, 15.9756098, -0.1305867
-0.9951172, 0.0205078, 0.0683594, -24.4512196, 1.097561, 16.7073174, -0.1181659
-1.0014648, 0.0273438, 0.0541992, -24.6341476, 1.1585366, 16.8292694, -0.0869459
-1.0019531, 0.0302734, 0.0512695, -25.1219521, 1.5853659, 17.3780499, -0.0520333
-1.003418, 0.034668, 0.046875, -25.9146347, 1.5853659, 17.6219521, -0.0399481
-0.9970703, 0.0302734, 0.0375977, -26.5853672, 1.0365853, 17.6219521, -0.0433051
-0.9946289, 0.0273438, 0.0390625, -26.5853672, 0.9756098, 17.9878044, -0.056733
-0.9882812, 0.0180664, 0.0268555, -26.8902454, 0.7317073, 18.4146347, -0.073518
-0.9858398, 0.0214844, 0.0283203, -26.8902454, 0, 19.0243912, -0.0822461
-0.9829102, 0.0166016, 0.027832, -27.3170738, -0.1829268, 19.2682934, -0.0755322
-0.9775391, 0.015625, 0.0327148, -27.8048782, -0.3658537, 19.2682934, -0.063447
-0.9736328, 0.019043, 0.0351562, -27.9878063, -0.0609756, 19.2073174, -0.0392767
-0.9780273, 0.0195312, 0.0351562, -27.5, -0.1219512, 19.3292694, -0.003357
-0.9799805, 0.0336914, 0.0341797, -27.3780499, -0.2439024, 19.2682934, 0.0298772
-0.9799805, 0.0361328, 0.0341797, -27.2560978, -0.3658537, 19.0243912, 0.0614328
-0.9863281, 0.0522461, 0.0234375, -27.3780499, -0.6707317, 19.0853672, 0.0842603
-0.9936523, 0.0649414, 0.0200195, -27.7439022, -0.7926829, 18.9634151, 0.0909743
-0.9960938, 0.0683594, 0.0195312, -27.9878063, -0.6707317, 18.7195129, 0.0788891
-0.9912109, 0.0825195, 0.0258789, -29.0243912, -0.8536586, 18.3536587, 0.0641184
-0.9970703, 0.0849609, 0.0307617, -30.1219521, -0.6707317, 17.6219521, 0.0439765
-0.9926758, 0.0791016, 0.0371094, -30.3658543, -0.8536586, 17.1951218, 0.021149
-0.9975586, 0.0756836, 0.0395508, -31.5243912, -0.8536586, 16.8292694, 0.0063783
-0.9887695, 0.0766602, 0.0390625, -32.0731697, -0.9146342, 16.5853653, -0.0057069
-0.984375, 0.0708008, 0.0361328, -33.1097565, -0.7926829, 16.3414631, -0.0151064
-0.972168, 0.0693359, 0.0371094, -33.5975609, -0.6707317, 16.280489, -0.0224918
-0.9667969, 0.0673828, 0.0415039, -34.8780479, -0.5487805, 16.0365849, -0.03122
-0.956543, 0.0644531, 0.0424805, -35.1829262, -0.4268293, 16.0975609, -0.0365911
-0.9428711, 0.0664062, 0.0512695, -36.0975609, 0.0609756, 15.8536587, -0.0433051
-0.9379883, 0.0688477, 0.0527344, -36.5853653, 0.5487805, 15.6707325, -0.0520333
-0.934082, 0.0761719, 0.0522461, -37.6829262, 1.1585366, 15.3048782, -0.0560616
-0.9331055, 0.0756836, 0.0483398, -38.7195129, 1.8292683, 14.8780489, -0.0651255
-0.9238281, 0.0732422, 0.0356445, -39.5121956, 2.2560976, 14.5121956, -0.0782177
-0.9179688, 0.0693359, 0.0297852, -41.0365868, 2.5, 14.1463413, -0.081239
-0.9179688, 0.0551758, 0.0185547, -41.9512215, 2.7439024, 13.6585369, -0.0802319
-0.9174805, 0.0478516, 0.0146484, -44.0243912, 3.1097562, 13.780488, -0.0835889
-0.9208984, 0.0375977, 0.0102539, -44.6951218, 3.2926829, 13.780488, -0.094667
-0.9238281, 0.03125, 0.0078125, -46.8902435, 4.2073174, 13.9634151, -0.1010452
-0.9262695, 0.0170898, -0.0009766, -47.3170738, 5.0609756, 14.0243902, -0.102388
-0.925293, 0.0087891, -0.0068359, -48.7195129, 6.4024391, 14.3902445, -0.0970169
-0.9287109, 0.0024414, -0.0112305, -49.5731735, 7.1951222, 13.9634151, -0.0909743
-0.9370117, -0.0141602, -0.0268555, -50.1829262, 9.3902445, 13.780488, -0.0775463
-0.9428711, -0.0219727, -0.0307617, -51.9512215, 11.5243902, 13.4756098, -0.0688182
-0.9516602, -0.043457, -0.0483398, -52.7439041, 12.3780489, 13.5975609, -0.0594186
-0.9624023, -0.0522461, -0.0561523, -54.2682953, 14.5731707, 14.0853662, -0.0503548
-0.9677734, -0.0688477, -0.0620117, -55, 15.4268293, 14.4512196, -0.0409552
-0.9741211, -0.0742188, -0.0615234, -56.2804909, 17.0121956, 15.9756098, -0.03122
-0.9770508, -0.0791016, -0.0522461, -57.0731735, 17.9878044, 16.9512196, -0.027863
-0.972168, -0.0717773, -0.0385742, -57.0121956, 20.2439022, 19.0853672, -0.0258488
-0.9663086, -0.0668945, -0.0322266, -57.2560997, 21.0975609, 19.5731716, -0.0238346
-0.9521484, -0.0498047, -0.0253906, -56.5853653, 23.8414631, 20.4878044, -0.0265202
-0.9472656, -0.0366211, -0.0214844, -56.5243912, 25.060976, 20.7317085, -0.0271916
-0.9350586, -0.0092773, -0.0234375, -56.0975609, 27.9268303, 20.3658543, -0.0285344
-0.9321289, 0.0029297, -0.0283203, -55.9756126, 31.2195129, 19.2073174, -0.0271916
-0.9355469, 0.0327148, -0.0380859, -56.0365868, 33.0487823, 18.5365849, -0.0271916
-0.9355469, 0.0473633, -0.0444336, -56.4024391, 36.7073174, 17.1951218, -0.0271916
-0.9414062, 0.0722656, -0.0571289, -56.9512215, 38.7195129, 17.0121956, -0.0298772
-0.9477539, 0.0859375, -0.0625, -58.1097565, 41.4024391, 16.3414631, -0.0342412
-0.9594727, 0.105957, -0.0703125, -58.5975609, 42.3780479, 16.0365849, -0.0379339
-0.9643555, 0.1245117, -0.0688477, -59.8780518, 43.1097565, 15.3048782, -0.0433051
-0.9702148, 0.1313477, -0.0698242, -60.5487823, 43.2926826, 14.9390249, -0.0406195
-0.9824219, 0.1391602, -0.0732422, -61.2195129, 41.8292694, 13.3536587, -0.0419623
-0.9873047, 0.1381836, -0.078125, -61.1585388, 40.3658562, 12.7439032, -0.0486763
-0.9956055, 0.1318359, -0.0854492, -60.9756126, 36.5243912, 11.4634151, -0.0506905
-1.0024414, 0.1313477, -0.0893555, -60.7926826, 32.4390259, 10, -0.0500191
-1.0014648, 0.1210938, -0.1064453, -60.4878044, 30.5487804, 9.5731707, -0.0557259
-0.9985352, 0.1162109, -0.1210938, -60.5487823, 27.2560978, 9.0243902, -0.0594186
-0.9926758, 0.1064453, -0.1337891, -61.2195129, 26.0365868, 8.5365858, -0.06009
-0.9916992, 0.1005859, -0.1352539, -61.8292694, 24.0853672, 7.9878049, -0.0674754
-0.9848633, 0.0922852, -0.128418, -62.4390259, 22.9268303, 7.7439027, -0.0674754
-0.9824219, 0.0834961, -0.1225586, -62.8048782, 20.8536587, 6.9512196, -0.081239
-0.980957, 0.0839844, -0.1196289, -62.68293, 19.8780499, 6.6463418, -0.0956741
-0.9785156, 0.0810547, -0.1191406, -61.7682953, 18.6585369, 6.0975609, -0.1010452
-0.9785156, 0.0766602, -0.1206055, -60.8536606, 18.1707325, 5.5487804, -0.1104448
-0.980957, 0.0751953, -0.1201172, -60, 17.3170738, 5.0609756, -0.1037308
-0.9838867, 0.0771484, -0.1230469, -59.7560997, 17.1341476, 4.5121951, -0.0986954
-0.9907227, 0.0742188, -0.1225586, -59.9390259, 17.0731716, 3.7804878, -0.0842603
-0.9907227, 0.0776367, -0.1206055, -60.6707344, 17.0121956, 2.804878, -0.0762036
-0.9985352, 0.074707, -0.1240234, -60.9146347, 16.8292694, 2.6829269, -0.0748608
-1.0014648, 0.0727539, -0.1274414, -60.8536606, 16.4024391, 1.5853659, -0.0661326
-1.0029297, 0.0610352, -0.1362305, -60.6097565, 16.0365849, 1.7073171, -0.0547189
-1.0024414, 0.046875, -0.1484375, -61.4024391, 14.9390249, 1.2195122, -0.0399481
-1.0039062, 0.0410156, -0.1499023, -61.8902435, 14.3292685, 0.7926829, -0.027863
-0.9985352, 0.0249023, -0.1552734, -62.7439041, 13.5365858, 0.9146342, -0.0261845
-0.9970703, 0.0136719, -0.1533203, -63.1097565, 12.8658543, 0.9756098, -0.0325628
-0.9887695, -0.0048828, -0.1523438, -63.5365868, 11.7073174, 0.9756098, -0.0439765
-0.9858398, -0.0087891, -0.1503906, -63.0487823, 10.9756098, 1.5243902, -0.0580758
-0.9868164, -0.027832, -0.1591797, -62.7439041, 10.1829271, 1.5243902, -0.0882887
-0.9863281, -0.0317383, -0.1625977, -61.6463432, 8.719512, 1.402439, -0.1003738
-0.980957, -0.0429688, -0.1640625, -61.2195129, 8.2926826, 1.3414634, -0.0882887
-0.9819336, -0.0419922, -0.1665039, -60.4878044, 6.890244, 1.6463414, -0.0678111
-0.9907227, -0.0395508, -0.1704102, -60.2439041, 6.1585369, 1.8902439, -0.0540475
-0.9902344, -0.0317383, -0.1743164, -59.1463432, 5.0609756, 2.5, -0.0473335
-0.9907227, -0.0283203, -0.1733398, -58.7195129, 4.9390244, 2.8658538, -0.0486763
-0.9853516, -0.0112305, -0.1713867, -58.6585388, 4.2682929, 3.9634147, -0.0433051
-0.9799805, 0.0004883, -0.1694336, -58.5365868, 3.7195122, 4.390244, -0.035584
-0.9624023, 0.0136719, -0.1640625, -59.2073174, 2.3170731, 5.1829271, -0.0251774
-0.9487305, 0.0219727, -0.1577148, -60.6707344, 0.7926829, 5.3658538, -0.0167849
-0.9345703, 0.0356445, -0.1416016, -61.2195129, -0.0609756, 5, -0.0063783
-0.925293, 0.0410156, -0.1313477, -62.3780518, -1.3414634, 4.4512196, 0.0016785
-0.9106445, 0.0488281, -0.112793, -62.6219521, -1.5853659, 4.2682929, 0.0070497
-0.9042969, 0.0517578, -0.1103516, -63.7804909, -1.7073171, 3.5975611, -0.0003357
-0.8999023, 0.0405273, -0.1035156, -64.0853653, -1.6463414, 3.1097562, -0.0003357
-0.9047852, 0.0258789, -0.1010742, -64.1463394, -1.8292683, 2.2560976, -0.0050355
-0.9047852, 0.015625, -0.1005859, -63.9634171, -2.0731707, 1.7073171, -0.0171206
-0.9223633, 0.0014648, -0.1049805, -62.6219521, -2.3170731, 1.5853659, -0.0258488
-0.9389648, -0.0083008, -0.1030273, -62.3780518, -2.195122, 1.6463414, -0.03122
-0.9614258, -0.0161133, -0.1030273, -61.1585388, -2.195122, 2.195122, -0.03122
-0.972168, -0.019043, -0.0952148, -59.3292694, -1.2804878, 3.3536587, -0.0332341
-0.996582, -0.0200195, -0.0932617, -58.2926826, -0.9146342, 3.5365853, -0.0315557
-1.0112305, -0.0166016, -0.0932617, -56.4024391, -0.2439024, 3.5365853, -0.0292058
-1.0283203, -0.0078125, -0.0957031, -55.1219521, 0, 3.5365853, -0.0339055
-1.0317383, 0.0019531, -0.0976562, -52.9268303, 0.7317073, 3.2317073, -0.0345769
-1.0473633, 0.0136719, -0.1030273, -52.3780518, 0.7926829, 2.8658538, -0.0466621
-1.0537109, 0.0263672, -0.105957, -51.0975609, 1.097561, 2.3780489, -0.0614328
-1.0512695, 0.0332031, -0.1123047, -50.6707344, 1.402439, 2.5609756, -0.0755322
-1.0478516, 0.0424805, -0.1162109, -50.1829262, 2.0121951, 2.6219513, -0.0822461
-1.0371094, 0.0429688, -0.1162109, -50.1829262, 2.5, 2.804878, -0.0785534
-1.0209961, 0.0517578, -0.1132812, -50.1829262, 3.1707318, 2.6219513, -0.076875
-1.0195312, 0.0541992, -0.105957, -50.8536606, 3.5975611, 2.6219513, -0.0728466
-1.0014648, 0.0600586, -0.0961914, -50.9756126, 4.3292685, 2.2560976, -0.0621042
-0.9985352, 0.0629883, -0.0917969, -50.6707344, 4.6341462, 1.402439, -0.0527047
-0.9892578, 0.0581055, -0.0898438, -50.1829262, 4.9390244, 1.2804878, -0.0379339
-0.9858398, 0.0585938, -0.0908203, -49.5731735, 6.0365853, 0.3048781, -0.0231632
-0.9819336, 0.0566406, -0.0908203, -49.1463432, 6.3414636, -0.0609756, -0.024506
-0.9785156, 0.0498047, -0.09375, -48.6585388, 7.0731707, -0.9146342, -0.0292058
-0.9814453, 0.0532227, -0.0976562, -48.7804871, 7.5, -1.402439, -0.0332341
-0.9858398, 0.0473633, -0.090332, -48.9024391, 7.9878049, -2.195122, -0.0412909
-0.9887695, 0.0458984, -0.0854492, -49.2073174, 8.2317076, -2.3780489, -0.0503548
-0.9960938, 0.0341797, -0.0737305, -48.9024391, 9.0853662, -3.1097562, -0.0574044
-0.9931641, 0.0356445, -0.0703125, -47.7439041, 10.9756098, -3.4146342, -0.0624399
-1, 0.0327148, -0.0727539, -47.1951218, 11.8902445, -3.7195122, -0.0741894
-1, 0.03125, -0.0737305, -45.9756126, 13.3536587, -3.9634147, -0.0835889
-1.0102539, 0.0214844, -0.0751953, -45.7317085, 13.780488, -4.390244, -0.0849317
-1.0112305, 0.0170898, -0.0834961, -45.2439041, 14.9390249, -4.9390244, -0.0788891
-1.012207, 0.0097656, -0.0927734, -45, 15.5487804, -5.3048782, -0.0755322
-1.0200195, 0.0043945, -0.0961914, -44.2073174, 16.4024391, -5.3048782, -0.0728466
-1.0170898, 0, -0.0966797, -44.2073174, 16.7682934, -5, -0.0627756
-1.0117188, 0.0004883, -0.0869141, -43.0487823, 17.7439022, -4.9390244, -0.0486763
-1.0107422, 0.0014648, -0.0786133, -41.8902435, 18.7195129, -5.0609756, -0.0379339
-1.0048828, -0.0092773, -0.0620117, -41.2195129, 18.780489, -5, -0.0271916
-1.0048828, -0.0117188, -0.0537109, -39.3292694, 20.2439022, -5.1219511, -0.0174563
-0.9946289, -0.0092773, -0.0576172, -37.8048782, 21.2195129, -5.0609756, -0.011078
-0.9951172, -0.0107422, -0.0644531, -34.8780479, 22.7439022, -5.8536587, -0.0040284
-1.0014648, -0.0078125, -0.0820312, -33.5365868, 23.1097565, -5.4268293, -0.0020142
-1.0014648, -0.0068359, -0.0888672, -32.0121956, 22.9878063, -5.3658538, -0.0013428
-0.9936523, 0.0048828, -0.09375, -31.9512196, 22.9878063, -5.609756, -0.0083925
-0.9956055, 0.0170898, -0.097168, -32.3170738, 22.9268303, -5.3658538, -0.0137636
-0.9946289, 0.027832, -0.0942383, -32.5609779, 22.9878063, -5.5487804, -0.0083925
-0.9956055, 0.0332031, -0.0869141, -33.1707306, 23.2926826, -5.4878049, -0.0090639
-0.9995117, 0.0410156, -0.0888672, -32.9268303, 23.4146347, -6.4634147, -0.0151064
-1.0102539, 0.0444336, -0.0947266, -33.1097565, 23.6585369, -6.8292685, -0.024506
-1.0175781, 0.0380859, -0.1069336, -33.2926826, 23.2926826, -7.6829271, -0.0359197
-1.0244141, 0.019043, -0.1176758, -33.9024391, 22.9268303, -7.9268293, -0.0473335
-1.0297852, 0.0043945, -0.1220703, -34.3902435, 21.9512196, -7.9878049, -0.0486763
-1.0429688, -0.0244141, -0.1176758, -34.9390259, 21.280489, -7.7439027, -0.0480049
-1.0405273, -0.0332031, -0.1137695, -34.1463432, 20.3048782, -7.0731707, -0.0439765
-1.0463867, -0.0532227, -0.1064453, -33.9024391, 19.939024, -6.890244, -0.0372625
-1.050293, -0.0678711, -0.0952148, -31.9512196, 19.0853672, -6.3414636, -0.0271916
-1.0488281, -0.0678711, -0.0927734, -30.4268303, 18.5975609, -5.7317076, -0.0224918
-1.0444336, -0.0688477, -0.0849609, -27.7439022, 17.560976, -5.3048782, -0.0218204
-1.0415039, -0.0668945, -0.0839844, -25.3658543, 16.6463413, -4.5731707, -0.017792
-1.0375977, -0.0546875, -0.0839844, -24.1463413, 15.9756098, -4.4512196, -0.0191348
-1.0356445, -0.046875, -0.0791016, -21.9512196, 15.4268293, -4.2073174, -0.0181277
-1.0234375, -0.0297852, -0.0795898, -21.280489, 15.1219511, -4.390244, -0.0218204
-1.0273438, -0.0244141, -0.0820312, -19.3902435, 14.6341467, -4.4512196, -0.0231632
-1.0219727, -0.0029297, -0.0922852, -18.8414631, 14.5121956, -4.5731707, -0.0198062
-1.0249023, 0.0039062, -0.1000977, -18.3536587, 13.6585369, -4.7560978, -0.0231632
-1.0258789, 0.0161133, -0.1162109, -18.4146347, 13.0487804, -5.3658538, -0.0258488
-1.0302734, 0.0268555, -0.1245117, -19.5121956, 11.4634151, -5.2439027, -0.0258488
-1.0292969, 0.0249023, -0.121582, -20.1829281, 10.4268293, -5.2439027, -0.0308843
-1.0332031, 0.0195312, -0.1123047, -21.7682934, 8.719512, -4.8170733, -0.0339055
-1.0297852, 0.0161133, -0.0961914, -22.7439022, 7.0121951, -4.8780489, -0.0345769
-1.03125, 0.0048828, -0.078125, -22.2560978, 5.9756098, -5.0609756, -0.035584
-1.0322266, 0, -0.0708008, -21.8292694, 4.2073174, -5.3048782, -0.0392767
-1.0351562, -0.0200195, -0.0507812, -21.280489, 3.5365853, -5.609756, -0.0298772
-1.0419922, -0.0288086, -0.0444336, -19.4512196, 2.195122, -5.4268293, -0.0265202
-1.0458984, -0.0366211, -0.0317383, -18.2926826, 1.8292683, -5.8536587, -0.0248417
-1.050293, -0.0395508, -0.0253906, -16.1585369, 1.5243902, -5.7317076, -0.0288701
-1.0585938, -0.0390625, -0.03125, -14.8170738, 0.9756098, -5.670732, -0.027863
-1.0644531, -0.0244141, -0.0356445, -12.560976, 0.0609756, -5.1829271, -0.0305486
-1.0693359, -0.0229492, -0.0395508, -11.219512, -0.4268293, -5.2439027, -0.0365911
-1.0830078, -0.0014648, -0.050293, -9.6951218, -1.5243902, -4.8780489, -0.0399481
-1.0854492, 0.0058594, -0.0537109, -9.0853662, -2.3780489, -4.5731707, -0.0433051
-1.0844727, 0.0268555, -0.0541992, -9.2682924, -2.9878049, -4.5121951, -0.0466621
-1.0854492, 0.0371094, -0.0527344, -9.3292685, -4.6341462, -4.390244, -0.0473335
-1.0786133, 0.0493164, -0.0566406, -9.5731707, -5.3048782, -4.5731707, -0.0463264
-1.0737305, 0.0507812, -0.0600586, -10, -6.280488, -4.9390244, -0.0496834
-1.0654297, 0.0527344, -0.0620117, -10.1219511, -7.1341467, -5, -0.0513619
-1.0620117, 0.0488281, -0.0629883, -10.9756098, -8.6585369, -5.0609756, -0.0486763
-1.0522461, 0.0327148, -0.0566406, -11.7073174, -9.2682924, -5.0609756, -0.0473335
-1.0478516, 0.0224609, -0.0551758, -12.0121956, -10.1829271, -5.2439027, -0.0466621
-1.0458984, 0.0151367, -0.0512695, -11.5853662, -10.9146347, -5.5487804, -0.0500191
-1.0439453, 0.0019531, -0.0454102, -11.1585369, -11.341464, -5.3048782, -0.0681468
-1.0424805, -0.0039062, -0.0415039, -10.1219511, -12.3170738, -5.609756, -0.0755322
-1.0371094, -0.0019531, -0.0410156, -9.4512196, -12.8048782, -5.4268293, -0.0728466
-1.0336914, -0.0004883, -0.043457, -8.2926826, -13.4146347, -5.1219511, -0.0694896
-1.034668, 0, -0.0405273, -7.6219516, -13.6585369, -4.7560978, -0.0614328
-1.0351562, 0.0073242, -0.0478516, -6.3414636, -13.9024391, -4.390244, -0.0493477
-1.0322266, 0.0170898, -0.0566406, -6.0975609, -14.2682934, -4.390244, -0.0503548
-1.03125, 0.027832, -0.0639648, -5.7317076, -14.8170738, -4.5731707, -0.0547189
-1.0292969, 0.0317383, -0.0629883, -5.7317076, -15.1219511, -4.6341462, -0.0560616
-1.0297852, 0.0351562, -0.0581055, -6.7073174, -15.4878054, -5, -0.0574044
-1.0322266, 0.0390625, -0.0517578, -7.5609756, -15.6707325, -5.0609756, -0.066804
-1.0322266, 0.0327148, -0.0375977, -7.8658538, -15.7926836, -4.7560978, -0.0798962
-1.0336914, 0.0297852, -0.0322266, -8.5365858, -16.5243912, -4.5121951, -0.0909743
-1.0297852, 0.0166016, -0.0288086, -8.3536587, -16.5243912, -4.2682929, -0.1044022
-1.0268555, 0.0083008, -0.0283203, -7.9268293, -16.4634151, -3.8414636, -0.1077592
-1.015625, -0.0009766, -0.0351562, -7.6829271, -17.0121956, -3.3536587, -0.1084306
-1.0112305, -0.0063477, -0.034668, -7.2560978, -17.2560978, -3.0487804, -0.1010452
-0.9995117, -0.019043, -0.0380859, -7.0121951, -17.1951218, -2.804878, -0.0809033
-0.9951172, -0.0229492, -0.0473633, -6.2195125, -17.1951218, -2.2560976, -0.0486763
-0.9936523, -0.0249023, -0.0507812, -5.4878049, -17.2560978, -2.195122, -0.0093996
-0.9868164, -0.0268555, -0.0600586, -4.2682929, -17.560976, -1.5853659, 0.0241703
-0.9882812, -0.0234375, -0.065918, -3.5975611, -17.560976, -1.3414634, 0.0419623
-0.996582, -0.0195312, -0.0786133, -3.0487804, -17.9268303, -1.2804878, 0.0433051
-1.0014648, -0.0195312, -0.0830078, -2.3170731, -18.0487804, -0.7926829, 0.0365911
-1.012207, -0.0146484, -0.0952148, -2.3170731, -17.9878044, -0.9146342, 0.0251774
-1.0175781, -0.0131836, -0.0961914, -1.402439, -18.5365849, -0.6097561, 0.0090639
-1.0332031, -0.0136719, -0.1025391, -0.8536586, -18.8414631, -0.5487805, -0.0063783
-1.0415039, -0.0141602, -0.1049805, -0.1219512, -19.6341476, -0.7317073, -0.0137636
-1.0483398, -0.012207, -0.1030273, -0.1829268, -20, -0.1829268, -0.0234989
-1.050293, -0.0043945, -0.0966797, 0.6097561, -20.7317085, 0.1829268, -0.0288701
-1.0493164, -0.0009766, -0.0961914, 0.7926829, -21.0365868, 0.6097561, -0.0328985
-1.0473633, 0.0078125, -0.0834961, 1.5243902, -21.4634151, 1.097561, -0.0352483
-1.0444336, 0.0175781, -0.0786133, 1.8902439, -21.5243912, 1.097561, -0.0365911
-1.0336914, 0.034668, -0.0776367, 2.6829269, -21.4024391, 1.2804878, -0.0386053
-1.0288086, 0.0410156, -0.0737305, 2.804878, -21.1585369, 0.9756098, -0.0419623
-1.015625, 0.0551758, -0.0791016, 2.804878, -20.9756107, 0.7926829, -0.0419623
-1.0078125, 0.0625, -0.0859375, 2.3170731, -20.9146347, 0.1219512, -0.0379339
-0.9912109, 0.0683594, -0.0927734, 1.7073171, -20.6097565, -0.0609756, -0.0392767
-0.9833984, 0.0698242, -0.0947266, 0.4878049, -20.4268303, -0.0609756, -0.0359197
-0.9755859, 0.0742188, -0.097168, -0.5487805, -20.3658543, -0.3048781, -0.0352483
-0.9746094, 0.0771484, -0.09375, -2.9268293, -19.6951218, -0.4268293, -0.0352483
-0.9731445, 0.0751953, -0.09375, -3.8414636, -19.0243912, -0.4878049, -0.0339055
-0.972168, 0.0688477, -0.0888672, -5.7317076, -18.1097565, -0.8536586, -0.0339055
-0.9711914, 0.0639648, -0.0844727, -6.8292685, -17.6829281, -1.2804878, -0.0396124
-0.9760742, 0.0458984, -0.0742188, -8.9634151, -17.2560978, -2.3780489, -0.0426337
-0.9780273, 0.0336914, -0.0654297, -10.2439022, -16.8902435, -2.9268293, -0.0453193
-0.9907227, 0.0126953, -0.0605469, -10.6097565, -16.7073174, -2.9878049, -0.0446479
-0.996582, 0.0029297, -0.0546875, -10.4878054, -15.6097565, -3.4146342, -0.0449836
-1.0029297, -0.0166016, -0.0498047, -9.9390249, -14.4512196, -3.4756098, -0.0530404
-1.0092773, -0.0175781, -0.0522461, -8.9634151, -13.2317076, -2.7439024, -0.0560616
-1.0126953, -0.0263672, -0.0585938, -8.5975609, -12.7439032, -2.195122, -0.0527047
-1.0161133, -0.0249023, -0.0649414, -7.9268293, -11.6463413, -1.3414634, -0.0540475
-1.0131836, -0.0283203, -0.0649414, -7.3170733, -11.280488, -0.9756098, -0.0550546
-1.0053711, -0.0229492, -0.0668945, -6.9512196, -10.3048782, -0.2439024, -0.0547189
-1.0043945, -0.0244141, -0.0620117, -6.7073174, -10.1829271, -0.3048781, -0.0527047
-0.9995117, -0.0195312, -0.059082, -5.9146342, -9.0853662, 0.1219512, -0.0486763
-0.9980469, -0.019043, -0.0605469, -5.2439027, -8.2926826, 0.1219512, -0.0486763
-0.9990234, -0.0170898, -0.0639648, -4.9390244, -8.0487804, 0, -0.0516976
-0.9975586, -0.0136719, -0.0712891, -3.9634147, -7.0731707, 0, -0.0607614
-1.0014648, -0.0117188, -0.0810547, -3.3536587, -6.9512196, -0.2439024, -0.0715038
-1.0039062, -0.0073242, -0.0864258, -2.6219513, -6.4634147, 0.0609756, -0.0762036
-1.0024414, -0.0053711, -0.0888672, -2.4390244, -6.2195125, 0.3658537, -0.0822461
-1.0078125, -0.0063477, -0.0942383, -2.1341465, -5.609756, 0.5487805, -0.0876173
-1.0151367, -0.0043945, -0.0952148, -2.1341465, -5.1219511, 0.4268293, -0.0923171
-1.0175781, 0.0024414, -0.0908203, -1.8292683, -4.7560978, 0.9756098, -0.0889601
-1.0209961, 0.0014648, -0.0898438, -1.5853659, -4.6341462, 0.7317073, -0.0862745
-1.027832, 0.0048828, -0.0844727, -1.6463414, -3.7804878, 0.7926829, -0.0869459
-1.0268555, 0.0097656, -0.0834961, -1.3414634, -2.804878, 0.3658537, -0.0889601
-1.03125, 0.0112305, -0.0922852, -1.097561, -2.6219513, 0.2439024, -0.0762036
-1.027832, 0.0126953, -0.0996094, -1.2195122, -2.4390244, 0.0609756, -0.0647898
-1.0219727, 0.0239258, -0.1176758, -1.1585366, -2.195122, 0.1219512, -0.0540475
-1.0224609, 0.0288086, -0.1259766, -2.0731707, -1.402439, 0.3048781, -0.0419623
-1.0175781, 0.0302734, -0.1386719, -2.5609756, -1.0365853, 0.1219512, -0.0365911
-1.0092773, 0.034668, -0.1357422, -4.7560978, -0.1829268, -0.1219512, -0.0325628
-1.0092773, 0.0366211, -0.1342773, -6.0365853, -0.0609756, -0.4268293, -0.0339055
-1.0048828, 0.0288086, -0.1254883, -8.719512, 0.5487805, -0.5487805, -0.0325628
-1.0004883, 0.027832, -0.1181641, -9.3292685, 0.9146342, -0.9146342, -0.0352483
-0.996582, 0.0214844, -0.109375, -10.8536587, 0.4878049, -1.2804878, -0.0379339
-0.9931641, 0.0102539, -0.1049805, -11.5853662, 1.0365853, -1.2195122, -0.0379339
-0.9902344, -0.0009766, -0.1000977, -11.9512196, 1.1585366, -1.0365853, -0.0365911
-0.9916992, -0.003418, -0.1025391, -12.3170738, 1.5243902, -1.2195122, -0.0332341
-0.9785156, -0.015625, -0.0976562, -12.1951218, 1.5243902, -1.2195122, -0.0271916
-0.9765625, -0.0209961, -0.097168, -12.6219511, 1.5853659, -1.402439, -0.024506
-0.9731445, -0.0161133, -0.0878906, -12.6829271, 2.0121951, -1.5243902, -0.024506
-0.9707031, -0.0131836, -0.0761719, -12.1341467, 2.804878, -1.8292683, -0.0231632
-0.9707031, -0.0136719, -0.0751953, -12.1341467, 3.2317073, -2.2560976, -0.0164492
-0.9746094, -0.0078125, -0.0810547, -10.7926836, 4.2682929, -2.195122, -0.0083925
-0.9765625, -0.0043945, -0.081543, -10.060976, 4.6341462, -2.3170731, 0.0023499
-0.9790039, -0.0009766, -0.0893555, -9.8170738, 4.7560978, -2.4390244, 0.0124208
-0.9755859, 0.0043945, -0.0932617, -10.1829271, 5.0609756, -2.5, 0.0157778
-0.9833984, 0.0024414, -0.0883789, -10.1829271, 5.4268293, -2.7439024, 0.0198062
-0.9863281, 0.0009766, -0.0878906, -10.2439022, 5.7926831, -2.6829269, 0.0164492
-0.9892578, 0.0014648, -0.0893555, -10, 6.0975609, -3.1707318, 0.0157778
-0.9907227, 0.0029297, -0.0927734, -9.5121956, 7.0121951, -3.5365853, 0.0036927
-0.9863281, 0.0092773, -0.1044922, -9.3292685, 7.1951222, -3.7804878, -0.0010071
-0.9897461, 0.0029297, -0.1074219, -9.1463413, 7.3170733, -4.4512196, -0.0050355
-0.9882812, 0.0083008, -0.1108398, -9.3902445, 7.4390244, -4.6341462, -0.0124208
-0.9916992, 0.0112305, -0.1240234, -10, 7.8658538, -5.0609756, -0.0204776
-0.9946289, 0.0151367, -0.1259766, -9.8780489, 8.0487804, -5.1219511, -0.0271916
-0.9951172, 0.0239258, -0.128418, -9.6341467, 7.9878049, -5, -0.0325628
-0.9980469, 0.0229492, -0.1269531, -9.3292685, 8.4146347, -5.4878049, -0.0365911
-1.0029297, 0.0234375, -0.1357422, -9.0853662, 8.6585369, -5.670732, -0.0396124
-1.003418, 0.0209961, -0.1435547, -8.9634151, 9.2682924, -6.280488, -0.0453193
-1.0087891, 0.019043, -0.1601562, -8.9024391, 9.7560978, -6.9512196, -0.0486763
-1.0107422, 0.0195312, -0.1708984, -8.5975609, 9.4512196, -7.5, -0.0500191
-1.0175781, 0.0239258, -0.1835938, -9.0243902, 9.1463413, -7.8658538, -0.0473335
-1.0234375, 0.0253906, -0.1933594, -9.5731707, 8.780488, -8.5365858, -0.0446479
-1.0239258, 0.0263672, -0.1943359, -9.9390249, 8.2926826, -8.780488, -0.0513619
-1.0200195, 0.0273438, -0.1933594, -10.6097565, 7.8658538, -8.719512, -0.0540475
-1.0209961, 0.0361328, -0.1904297, -11.0365858, 7.3780489, -8.6585369, -0.0493477
-1.0083008, 0.0375977, -0.1889648, -11.280488, 6.890244, -8.6585369, -0.0486763
-1.0024414, 0.0375977, -0.190918, -11.219512, 6.2195125, -9.2073174, -0.0439765
-0.9931641, 0.0361328, -0.2011719, -11.1585369, 5.8536587, -9.5121956, -0.0379339
-0.9892578, 0.0327148, -0.2050781, -11.5853662, 4.9390244, -10.5487804, -0.0392767
-0.9897461, 0.0263672, -0.2104492, -12.0121956, 4.9390244, -10.5487804, -0.0446479
-0.9897461, 0.0209961, -0.2148438, -12.5, 4.3292685, -11.219512, -0.0486763
-0.9985352, 0.0092773, -0.2133789, -12.7439032, 3.4756098, -11.219512, -0.0527047
-1.0112305, -0.0102539, -0.2138672, -13.1707315, 2.1341465, -11.4634151, -0.0540475
-1.0170898, -0.019043, -0.2099609, -13.1097565, 1.2804878, -11.1585369, -0.0547189
-1.03125, -0.0375977, -0.2089844, -12.3170738, -0.3048781, -10.6707315, -0.0513619
-1.0341797, -0.0463867, -0.2119141, -11.4024391, -1.7073171, -9.9390249, -0.0547189
-1.0380859, -0.0600586, -0.2109375, -11.0975609, -2.0731707, -9.5121956, -0.0540475
-1.034668, -0.0664062, -0.206543, -10.8536587, -2.9878049, -8.4756098, -0.0547189
-1.0366211, -0.0737305, -0.1958008, -10.2439022, -3.5975611, -8.1707315, -0.0661326
-1.0327148, -0.0766602, -0.1914062, -9.8170738, -4.390244, -7.5, -0.0748608
-1.0239258, -0.0810547, -0.1821289, -9.5731707, -4.7560978, -7.3170733, -0.0762036
-1.0234375, -0.0844727, -0.1801758, -8.5975609, -5.3048782, -6.4634147, -0.0809033
-1.0146484, -0.0883789, -0.1738281, -8.4756098, -5.7926831, -6.1585369, -0.0748608
-1.0043945, -0.0986328, -0.1616211, -7.6219516, -6.5853658, -4.9390244, -0.0715038
-0.9985352, -0.1025391, -0.159668, -7.8048782, -7.0731707, -4.0853658, -0.0637827
-0.9873047, -0.1176758, -0.1474609, -7.5609756, -8.1707315, -3.5365853, -0.0513619
-0.9829102, -0.1245117, -0.1411133, -7.2560978, -8.5975609, -2.5609756, -0.0446479
-0.9750977, -0.1328125, -0.1274414, -6.890244, -8.4756098, -2.1341465, -0.0433051
-0.9780273, -0.1386719, -0.1245117, -5.1829271, -8.5365858, -0.7317073, -0.0352483
-0.9873047, -0.1513672, -0.1103516, -3.9634147, -8.4146347, 0.0609756, -0.0332341
-0.9873047, -0.1567383, -0.1079102, -1.1585366, -7.9268293, 1.5853659, -0.0372625
-1.0024414, -0.1601562, -0.105957, 0.6707317, -7.5609756, 2.2560976, -0.0352483
-1.0068359, -0.1586914, -0.1064453, 3.6585367, -7.3170733, 3.3536587, -0.0339055
-1.0263672, -0.1577148, -0.1123047, 5.1219511, -6.890244, 3.9024391, -0.0372625
-1.0439453, -0.1455078, -0.1196289, 7.9268293, -6.1585369, 4.8170733, -0.0379339
-1.059082, -0.1367188, -0.1279297, 9.3902445, -6.0365853, 5.2439027, -0.0406195
-1.0751953, -0.1103516, -0.1425781, 11.8902445, -5.3048782, 6.3414636, -0.0406195
-1.0800781, -0.0966797, -0.1489258, 13.4146347, -4.6951222, 7.5, -0.0433051
-1.0859375, -0.0664062, -0.1630859, 13.9024391, -4.6341462, 7.9268293, -0.0433051
-1.0825195, -0.0585938, -0.1713867, 13.7195129, -4.5121951, 8.9634151, -0.0446479
-1.0698242, -0.0380859, -0.1865234, 13.780488, -4.9390244, 8.9634151, -0.0446479
-1.0615234, -0.0332031, -0.1879883, 13.1097565, -5.2439027, 8.5975609, -0.0446479
-1.0585938, -0.0244141, -0.1904297, 12.6829271, -5.670732, 8.3536587, -0.0480049
-1.0532227, -0.0244141, -0.1914062, 11.8292685, -5.4268293, 7.6829271, -0.0480049
-1.0512695, -0.0224609, -0.1914062, 11.219512, -5.609756, 7.7439027, -0.0500191
-1.0439453, -0.0200195, -0.1850586, 10.6097565, -5.7926831, 7.2560978, -0.0520333
-1.0405273, -0.0161133, -0.1816406, 10.5487804, -6.0365853, 7.1951222, -0.0540475
-1.0405273, -0.0068359, -0.1777344, 9.9390249, -5.9146342, 7.3780489, -0.0547189
-1.0336914, -0.0058594, -0.1811523, 9.3292685, -5.7926831, 7.0121951, -0.0540475
-1.0332031, -0.003418, -0.1845703, 9.3292685, -5.8536587, 6.890244, -0.056733
-1.0366211, -0.0029297, -0.1894531, 8.841464, -5.7926831, 6.1585369, -0.0594186
-1.0419922, 0, -0.1884766, 8.3536587, -5.8536587, 5.670732, -0.0594186
-1.0478516, 0.0004883, -0.1889648, 7.1341467, -5.670732, 5, -0.056733
-1.0507812, 0.0019531, -0.1826172, 6.4024391, -5.7926831, 4.7560978, -0.056733
-1.0532227, 0.0048828, -0.1689453, 5, -5.4878049, 4.0243902, -0.0553902
-1.0537109, 0.0078125, -0.1625977, 4.0853658, -5.3048782, 3.9634147, -0.0516976
-1.050293, 0.0087891, -0.1464844, 2.5609756, -5, 3.4756098, -0.0473335
-1.0424805, 0.0087891, -0.1430664, 1.6463414, -4.6951222, 3.5365853, -0.0453193
-1.0336914, 0.0019531, -0.137207, 0.6707317, -4.7560978, 3.5365853, -0.0433051
-1.0239258, -0.0039062, -0.1376953, -0.4878049, -4.390244, 2.9878049, -0.0359197
-1.0078125, -0.0151367, -0.1342773, -0.9146342, -3.9634147, 2.6219513, -0.0359197
-1.0063477, -0.0234375, -0.1303711, -1.7073171, -3.5365853, 2.0121951, -0.0365911
-0.9921875, -0.0395508, -0.1323242, -1.6463414, -3.1097562, 2.0121951, -0.0379339
-0.9882812, -0.0478516, -0.1313477, -1.3414634, -2.0731707, 1.6463414, -0.0352483
-0.9931641, -0.0600586, -0.1362305, -0.8536586, -1.2804878, 1.7073171, -0.0325628
-0.9946289, -0.0629883, -0.1455078, 0.0609756, -0.8536586, 1.7073171, -0.0406195
-1.0019531, -0.0639648, -0.1474609, 0.5487805, -0.5487805, 1.4634147, -0.0540475
-1.0068359, -0.0649414, -0.1572266, 0.6097561, 0.0609756, 1.5853659, -0.0621042
-1.0083008, -0.0600586, -0.1621094, 0.3658537, 0.3048781, 1.4634147, -0.0641184
-1.0087891, -0.0551758, -0.168457, 0.4878049, 0.2439024, 1.5853659, -0.0574044
-1.0131836, -0.0556641, -0.1699219, -0.1219512, -0.1219512, 1.6463414, -0.0520333
-1.0180664, -0.046875, -0.1713867, -0.3048781, -0.1829268, 1.7073171, -0.0466621
-1.0136719, -0.0463867, -0.1694336, -0.7317073, -1.0365853, 1.7073171, -0.0419623
-1.0146484, -0.0424805, -0.1674805, -0.9146342, -1.097561, 1.6463414, -0.0325628
-1.012207, -0.0400391, -0.1611328, -1.4634147, -1.097561, 1.6463414, -0.03122
-1.0068359, -0.0351562, -0.1591797, -1.5853659, -1.097561, 1.7073171, -0.0271916
-1.0039062, -0.0375977, -0.152832, -1.8292683, -1.402439, 1.5853659, -0.0261845
-1.0029297, -0.0371094, -0.1547852, -2.2560976, -1.5853659, 1.6463414, -0.03122
-1.0029297, -0.0307617, -0.1503906, -2.1341465, -2.1341465, 1.5853659, -0.0345769
-1.0019531, -0.0307617, -0.1499023, -2.4390244, -2.195122, 1.402439, -0.0372625
-1, -0.0356445, -0.15625, -3.1707318, -2.3170731, 1.6463414, -0.035584
-0.9985352, -0.0361328, -0.15625, -3.7804878, -2.7439024, 1.5853659, -0.0406195
-1, -0.0400391, -0.1582031, -3.9024391, -2.5609756, 1.4634147, -0.0466621
-0.9985352, -0.0463867, -0.1601562, -4.2073174, -2.9878049, 1.1585366, -0.049012
-0.9970703, -0.0493164, -0.1591797, -4.5121951, -3.1707318, 1.2195122, -0.0473335
-0.9980469, -0.0512695, -0.1621094, -4.8170733, -3.2926829, 1.6463414, -0.0493477
-1.0019531, -0.0615234, -0.1572266, -4.6951222, -3.5365853, 1.2804878, -0.0496834
-1.0083008, -0.0664062, -0.1474609, -4.6951222, -4.0243902, 1.2804878, -0.0473335
-1.0048828, -0.0644531, -0.1484375, -4.5121951, -3.7804878, 1.3414634, -0.0500191
-1.0087891, -0.0649414, -0.1445312, -4.1463413, -3.9024391, 1.1585366, -0.0520333
-1.0068359, -0.0629883, -0.144043, -3.7804878, -3.9634147, 1.1585366, -0.0513619
-1.0117188, -0.0629883, -0.1445312, -3.2926829, -3.5975611, 1.4634147, -0.0459907
-1.0092773, -0.0620117, -0.1464844, -2.6829269, -3.9634147, 1.7682927, -0.0436408
-1.0048828, -0.0512695, -0.1430664, -2.6219513, -4.390244, 2.0731707, -0.0419623
-1, -0.0507812, -0.1391602, -2.9878049, -4.5121951, 2.0731707, -0.0409552
-0.9941406, -0.0395508, -0.1391602, -3.2317073, -4.8170733, 1.9512196, -0.0386053
-0.9897461, -0.0395508, -0.1357422, -3.5975611, -5.1219511, 2.0121951, -0.0396124
-0.9873047, -0.0395508, -0.1303711, -3.5365853, -5.3658538, 2.0121951, -0.0382696
-0.9887695, -0.0410156, -0.1367188, -3.4756098, -5.0609756, 2.2560976, -0.0379339
-0.984375, -0.0390625, -0.1420898, -3.2926829, -5.3658538, 2.195122, -0.0379339
-0.9873047, -0.043457, -0.1494141, -3.5365853, -5.609756, 1.8292683, -0.0375982
-0.987793, -0.0493164, -0.1542969, -3.4756098, -5.609756, 1.6463414, -0.0369268
-1.0019531, -0.0498047, -0.1577148, -3.7195122, -5.670732, 1.097561, -0.0382696
-1.0097656, -0.0527344, -0.1591797, -3.5365853, -6.2195125, 1.097561, -0.0365911
-1.0253906, -0.0463867, -0.1547852, -3.9024391, -6.3414636, 1.4634147, -0.0352483
-1.0307617, -0.0419922, -0.1542969, -3.8414636, -6.5853658, 1.6463414, -0.0406195
-1.0395508, -0.0297852, -0.1489258, -3.4146342, -6.7073174, 1.8902439, -0.0473335
-1.0419922, -0.0288086, -0.1469727, -3.1097562, -6.7682929, 2.0731707, -0.06009
-1.0488281, -0.0180664, -0.1494141, -2.804878, -6.9512196, 1.6463414, -0.0903029
-1.0493164, -0.0102539, -0.1533203, -2.9878049, -7.3780489, 1.5243902, -0.105745
-1.0507812, -0.0009766, -0.1567383, -3.2317073, -7.1341467, 1.0365853, -0.109102
-1.0507812, 0.0063477, -0.1582031, -4.4512196, -7.5, 0.7317073, -0.1010452
-1.0483398, 0.0117188, -0.1601562, -5.1219511, -7.3170733, 0.5487805, -0.0849317
-1.0380859, 0.0102539, -0.1586914, -6.3414636, -7.2560978, 0.3658537, -0.0647898
-1.0322266, 0.012207, -0.1557617, -7.5, -8.4146347, -0.4878049, -0.0453193
-1.0273438, 0.0083008, -0.1499023, -8.2317076, -8.6585369, -0.5487805, -0.0271916
-1.0244141, 0.0039062, -0.1474609, -9.5731707, -9.1463413, -0.7926829, -0.0151064
-1.0195312, -0.0019531, -0.1416016, -9.6951218, -8.9634151, -1.2195122, -0.0083925
-1.0185547, -0.0063477, -0.1420898, -9.5121956, -8.9024391, -1.5853659, -0.0087282
-1.0161133, -0.0102539, -0.1416016, -9.2682924, -8.9634151, -1.5243902, -0.0070497
-1.0273438, -0.0175781, -0.1450195, -8.780488, -8.9024391, -1.8292683, -0.0070497
-1.0307617, -0.0185547, -0.1455078, -8.719512, -8.9634151, -2.0121951, -0.0124208
-1.0375977, -0.0214844, -0.1425781, -8.9024391, -8.719512, -2.195122, -0.0157778
-1.0410156, -0.0185547, -0.1391602, -9.0853662, -8.780488, -2.3780489, -0.0191348
-1.0498047, -0.0117188, -0.1303711, -9.4512196, -8.4146347, -2.3780489, -0.024506
-1.0488281, -0.0058594, -0.1235352, -10.2439022, -8.1097565, -2.1341465, -0.0248417
-1.046875, -0.0043945, -0.1206055, -10.3048782, -8.1707315, -2.2560976, -0.03122
-1.0405273, -0.0029297, -0.1191406, -10.3658543, -8.1097565, -1.8902439, -0.0352483
-1.0288086, -0.0024414, -0.1220703, -10.5487804, -8.2926826, -2.0731707, -0.035584
-1.0224609, -0.0073242, -0.1274414, -11.341464, -8.4756098, -2.195122, -0.0399481
-1.0083008, -0.0112305, -0.1318359, -11.6463413, -8.5975609, -2.1341465, -0.0406195
-0.9990234, -0.0224609, -0.1259766, -12.3780489, -8.719512, -2.2560976, -0.0436408
-0.9970703, -0.027832, -0.1225586, -12.4390249, -8.9634151, -2.4390244, -0.0433051
-0.9892578, -0.0341797, -0.1240234, -12.3780489, -9.0853662, -2.3780489, -0.0392767
-0.9921875, -0.0366211, -0.1196289, -11.7682934, -8.841464, -2.4390244, -0.0352483
-1.0019531, -0.0410156, -0.1225586, -10.9756098, -8.6585369, -2.3780489, -0.0352483
-1.0073242, -0.0429688, -0.1191406, -9.6341467, -7.9878049, -2.1341465, -0.0352483
-1.0229492, -0.0390625, -0.1245117, -9.3902445, -7.9268293, -2.2560976, -0.0305486
-1.0292969, -0.03125, -0.125, -8.841464, -7.5609756, -2.0731707, -0.03122
-1.0458984, -0.0239258, -0.1386719, -8.5365858, -7.5, -1.8292683, -0.0285344
-1.0473633, -0.0195312, -0.1455078, -8.4146347, -7.3170733, -1.6463414, -0.0315557
-1.0556641, -0.0043945, -0.1523438, -8.1707315, -7.2560978, -1.5243902, -0.0325628
-1.0458984, -0.0004883, -0.159668, -9.0243902, -7.9878049, -1.5853659, -0.0379339
-1.0385742, 0.003418, -0.159668, -9.6951218, -8.4146347, -1.5853659, -0.0392767
-1.0219727, -0.0014648, -0.1542969, -11.0975609, -9.4512196, -1.4634147, -0.0463264
-1.0151367, -0.003418, -0.1538086, -12.6829271, -10.2439022, -1.6463414, -0.0486763
-1.0014648, -0.0126953, -0.1455078, -12.9878054, -10.4878054, -1.5853659, -0.0513619
-0.9960938, -0.0166016, -0.1396484, -13.4756098, -11.1585369, -1.6463414, -0.0520333
-0.9863281, -0.0249023, -0.1333008, -13.6585369, -10.9146347, -1.402439, -0.0543832
-0.9863281, -0.0273438, -0.1308594, -13.2926836, -10.7317076, -1.2804878, -0.0681468
-0.9770508, -0.0449219, -0.1313477, -12.7439032, -10.8536587, -1.097561, -0.0782177
-0.9819336, -0.0463867, -0.1391602, -12.3780489, -10.5487804, -0.8536586, -0.0775463
-0.9951172, -0.0556641, -0.144043, -12.3170738, -10.4878054, -0.7317073, -0.0741894
-1.0039062, -0.0585938, -0.1420898, -12.2560978, -10.5487804, -0.6707317, -0.0654612
-1.0102539, -0.0595703, -0.1445312, -11.8902445, -10.4268293, -0.3048781, -0.0584115
-1.0185547, -0.0561523, -0.1416016, -11.0975609, -10.4268293, 0.5487805, -0.0513619
-1.0224609, -0.0566406, -0.137207, -10.4268293, -11.0365858, 1.2804878, -0.0439765
-1.0170898, -0.0463867, -0.1347656, -10.1829271, -11.5243902, 2.0121951, -0.0382696
-1.0161133, -0.0405273, -0.1298828, -10.3658543, -12.1341467, 2.6829269, -0.0305486
-1.0078125, -0.0415039, -0.128418, -10.4878054, -12.2560978, 2.6829269, -0.0325628
-1.0024414, -0.0400391, -0.1274414, -10.1829271, -12.2560978, 2.6829269, -0.0339055
-0.9956055, -0.0410156, -0.1337891, -9.6341467, -12.3170738, 2.7439024, -0.0365911
-0.9902344, -0.0380859, -0.137207, -8.841464, -12.5, 2.6219513, -0.0369268
-0.980957, -0.0415039, -0.1464844, -8.6585369, -12.8048782, 2.804878, -0.0392767
-0.9819336, -0.0395508, -0.1464844, -8.719512, -13.0487804, 3.1707318, -0.0372625
-0.9916992, -0.0385742, -0.1484375, -8.841464, -12.9268293, 3.2317073, -0.0399481
-0.9985352, -0.0317383, -0.1401367, -9.3292685, -12.8658543, 3.7804878, -0.0359197
-1.0043945, -0.0297852, -0.1352539, -8.5365858, -12.6829271, 4.3292685, -0.0392767
-1.0141602, -0.0234375, -0.1367188, -8.1707315, -12.8658543, 4.4512196, -0.0332341
-1.0219727, -0.0175781, -0.137207, -7.5, -12.8048782, 4.4512196, -0.0318914
-1.0307617, -0.0146484, -0.1416016, -7.5609756, -12.8658543, 4.7560978, -0.0261845
-1.0327148, -0.0126953, -0.1450195, -8.0487804, -13.2317076, 4.7560978, -0.024506
-1.0258789, -0.0009766, -0.1474609, -8.1707315, -13.5365858, 4.6951222, -0.0285344
-1.0263672, -0.003418, -0.1489258, -8.9024391, -14.0853662, 4.6951222, -0.0318914
-1.0258789, 0, -0.1523438, -8.780488, -14.3292685, 4.6341462, -0.0328985
-1.0141602, -0.0004883, -0.1523438, -8.841464, -14.6341467, 4.6951222, -0.0426337
-1.0087891, -0.0019531, -0.1552734, -8.9024391, -14.8780489, 4.7560978, -0.056733
-1.0039062, -0.0073242, -0.15625, -9.8780489, -15.4878054, 4.5121951, -0.06009
-1.0029297, -0.0083008, -0.1518555, -10.3048782, -15.3048782, 4.6951222, -0.0597543
-1.0004883, -0.0112305, -0.1416016, -10.4268293, -15.7317076, 4.8170733, -0.056733
-1.0029297, -0.0112305, -0.1342773, -10.6097565, -15.4878054, 4.8780489, -0.0459907
-1, -0.0107422, -0.128418, -10.4878054, -15.4878054, 4.8780489, -0.0379339
-1.0053711, -0.0131836, -0.1206055, -9.9390249, -15, 4.8780489, -0.0365911
-1.0087891, -0.0195312, -0.1196289, -10.1219511, -14.5731707, 4.9390244, -0.0386053
-1.0058594, -0.0180664, -0.1157227, -9.8170738, -14.4512196, 4.7560978, -0.0506905
-1.0107422, -0.0170898, -0.1108398, -9.8170738, -14.2682934, 4.9390244, -0.0674754
-1.0102539, -0.0151367, -0.1083984, -9.6341467, -13.9634151, 5, -0.0849317
-1.0058594, -0.0170898, -0.1142578, -9.7560978, -13.780488, 5, -0.0970169
-0.9946289, -0.0141602, -0.1152344, -10.1829271, -13.841464, 4.6951222, -0.1010452
-0.996582, -0.0185547, -0.1171875, -10.6097565, -13.6585369, 4.5121951, -0.0889601
-0.9907227, -0.0209961, -0.1186523, -10.3048782, -13.5365858, 4.7560978, -0.0533761
-0.9863281, -0.0200195, -0.1166992, -10.3048782, -13.0487804, 4.8780489, -0.0151064
-0.980957, -0.019043, -0.1196289, -10.3048782, -12.6219511, 5.0609756, 0.0124208
-0.9838867, -0.0229492, -0.121582, -10.5487804, -12.6829271, 5.1829271, 0.0305486
-0.9882812, -0.0175781, -0.1293945, -10.7317076, -12.6829271, 5.2439027, 0.0318914
-0.9931641, -0.0185547, -0.1308594, -11.0365858, -12.8658543, 5.3048782, 0.0265202
-0.9916992, -0.0180664, -0.1367188, -11.0975609, -12.9878054, 5.2439027, 0.0104067
-0.9956055, -0.0224609, -0.1357422, -10.6707315, -13.3536587, 5.1829271, -0.003357
-1.0014648, -0.0234375, -0.1298828, -11.0365858, -13.2926836, 5.609756, -0.0137636
-1.0019531, -0.0288086, -0.1230469, -10.8536587, -13.2926836, 5.609756, -0.0231632
-1.0087891, -0.0283203, -0.1245117, -10.4268293, -13.2317076, 5.609756, -0.0265202
-1.0131836, -0.0297852, -0.1240234, -10.060976, -12.9878054, 6.1585369, -0.0332341
-1.015625, -0.0307617, -0.1274414, -9.0243902, -12.8658543, 6.0365853, -0.0386053
-1.0224609, -0.0283203, -0.1396484, -8.6585369, -13.1097565, 6.280488, -0.0433051
-1.0244141, -0.03125, -0.1425781, -7.8048782, -13.1707315, 6.280488, -0.0466621
-1.0200195, -0.0263672, -0.1552734, -7.9268293, -13.0487804, 6.2195125, -0.0473335
-1.0273438, -0.0239258, -0.1611328, -7.4390244, -13.1707315, 6.2195125, -0.0513619
-1.0253906, -0.0200195, -0.1660156, -7.5, -13.3536587, 6.1585369, -0.0540475
-1.027832, -0.019043, -0.1738281, -7.0731707, -13.780488, 7.0121951, -0.0530404
-1.0239258, -0.0166016, -0.1855469, -6.9512196, -13.5365858, 6.7682929, -0.0540475
-1.0249023, -0.0141602, -0.1894531, -7.1341467, -13.9024391, 6.890244, -0.0587472
-1.0249023, -0.0151367, -0.1904297, -8.1707315, -14.7560978, 6.4024391, -0.0553902
-1.0283203, -0.0175781, -0.1884766, -8.719512, -15.1829271, 6.2195125, -0.0547189
-1.0268555, -0.0161133, -0.1806641, -8.9634151, -15.9756098, 6.7682929, -0.0540475
-1.0253906, -0.019043, -0.1791992, -9.1463413, -16.2195129, 6.9512196, -0.056733
-1.0200195, -0.0175781, -0.1791992, -9.0853662, -16.6463413, 7.3780489, -0.056733
-1.0117188, -0.0214844, -0.171875, -8.9634151, -16.8902435, 7.5609756, -0.0607614
-1.0068359, -0.0234375, -0.1738281, -9.0243902, -17.3170738, 7.5609756, -0.0607614
-1.0083008, -0.0239258, -0.1728516, -9.5731707, -17.439024, 7.3780489, -0.0574044
-1.0097656, -0.0307617, -0.1640625, -9.8170738, -17.2560978, 7.0121951, -0.0587472
-1.0107422, -0.0292969, -0.1650391, -9.4512196, -17.5, 7.1951222, -0.0553902
-1.0151367, -0.0341797, -0.1586914, -9.0853662, -17.7439022, 7.3170733, -0.0540475
-1.019043, -0.0297852, -0.1625977, -8.6585369, -17.560976, 7.1951222, -0.0594186
-1.0234375, -0.0234375, -0.159668, -8.4146347, -17.1341476, 7.2560978, -0.0654612
-1.0239258, -0.0209961, -0.1640625, -8.2926826, -16.6463413, 7.4390244, -0.0674754
-1.027832, -0.015625, -0.1679688, -8.2317076, -16.8292694, 7.5609756, -0.0664683
-1.0258789, -0.0131836, -0.1728516, -9.3292685, -17.2560978, 7.1951222, -0.0553902
-1.0214844, -0.0117188, -0.1767578, -9.0243902, -17.2560978, 7.2560978, -0.0473335
-1.0175781, -0.0151367, -0.1630859, -9.6341467, -17.6829281, 7.6219516, -0.0426337
-1.0126953, -0.0112305, -0.1577148, -10.3048782, -17.9268303, 7.8048782, -0.0426337
-1.0014648, -0.0185547, -0.1469727, -10.9756098, -17.8048782, 8.1097565, -0.0473335
-0.9960938, -0.0200195, -0.1391602, -11.0975609, -18.0487804, 8.1707315, -0.0527047
-0.984375, -0.0229492, -0.1264648, -11.0975609, -17.439024, 8.0487804, -0.0533761
-0.984375, -0.0268555, -0.1235352, -11.0365858, -16.7682934, 7.6829271, -0.0527047
-0.9765625, -0.0366211, -0.1240234, -10.5487804, -16.4024391, 7.7439027, -0.0614328
-0.9794922, -0.0395508, -0.1245117, -10.3658543, -15.6707325, 7.6219516, -0.0651255
-0.9868164, -0.0473633, -0.1347656, -10.2439022, -15.3658543, 7.4390244, -0.0627756
-0.9956055, -0.0532227, -0.1386719, -10.7317076, -15.3658543, 7.8048782, -0.0651255
-0.9980469, -0.0634766, -0.140625, -10.6097565, -15.3658543, 8.0487804, -0.0708324
-1.0087891, -0.0712891, -0.1445312, -10.1219511, -15.4268293, 8.5365858, -0.0728466
-1.012207, -0.0678711, -0.1450195, -9.7560978, -15.3658543, 8.719512, -0.0718395
-1.0112305, -0.065918, -0.1474609, -8.4146347, -15.2439032, 9.6341467, -0.0708324
-1.0141602, -0.0585938, -0.1474609, -7.9268293, -15.3658543, 9.5731707, -0.066804
-1.0180664, -0.0498047, -0.1484375, -7.1951222, -15.060976, 9.5121956, -0.0708324
-1.0195312, -0.043457, -0.1508789, -6.890244, -14.6341467, 9.3902445, -0.070161
-1.0205078, -0.0292969, -0.1567383, -6.5853658, -14.5121956, 9.2073174, -0.0674754
-1.0239258, -0.0214844, -0.1616211, -5.9756098, -14.2073174, 9.3292685, -0.0688182
-1.0263672, -0.0087891, -0.1689453, -5.8536587, -14.0853662, 9.2682924, -0.0651255
-1.0219727, -0.0004883, -0.1704102, -5.7926831, -14.5731707, 9.7560978, -0.056733
-1.0126953, 0.012207, -0.1733398, -6.4634147, -14.8780489, 9.8780489, -0.0516976
-1.0024414, 0.015625, -0.1679688, -8.2317076, -15.1829271, 9.4512196, -0.0466621
-1.0024414, 0.0136719, -0.1606445, -9.2682924, -15.2439032, 9.1463413, -0.0446479
-1.0004883, 0.0068359, -0.1474609, -10.6097565, -15, 8.841464, -0.0379339
-1.0004883, 0.0053711, -0.1435547, -10.6097565, -14.9390249, 8.780488, -0.0339055
-1.0004883, 0.0053711, -0.1391602, -10.7317076, -14.5121956, 8.5975609, -0.0251774
-0.996582, 0.0039062, -0.1367188, -10.9146347, -13.841464, 8.4146347, -0.0171206
-0.996582, -0.0058594, -0.1367188, -11.280488, -13.9634151, 8.3536587, -0.0070497
-0.9941406, -0.0107422, -0.1328125, -11.4634151, -13.6585369, 8.2926826, -0.0016785
-0.9897461, -0.0117188, -0.1230469, -11.5853662, -13.4756098, 8.4146347, 0.0006714
-0.9912109, -0.0166016, -0.1210938, -11.1585369, -12.6219511, 7.9878049, 0.0003357
-0.9868164, -0.0161133, -0.1201172, -10.6707315, -12.4390249, 7.8658538, -0.0043641
-0.9897461, -0.019043, -0.1254883, -10.060976, -11.0975609, 7.5, -0.0070497
-0.9897461, -0.0136719, -0.128418, -9.3902445, -10.8536587, 7.3170733, -0.0164492
-0.9990234, -0.0083008, -0.1411133, -8.9024391, -10, 7.1951222, -0.0191348
-0.9990234, -0.0097656, -0.1445312, -8.780488, -10.060976, 7.5, -0.021149
-0.9960938, -0.012207, -0.152832, -9.2073174, -10.060976, 7.7439027, -0.0208133
-0.9970703, -0.0131836, -0.1489258, -9.7560978, -10.7926836, 8.0487804, -0.0251774
-1, -0.0239258, -0.1508789, -10, -10.9756098, 8.1097565, -0.0298772
-0.9931641, -0.0253906, -0.1435547, -10.1829271, -11.1585369, 7.9878049, -0.0285344
-0.9926758, -0.0332031, -0.1386719, -9.6341467, -11.0975609, 8.1707315, -0.0285344
-0.9931641, -0.0380859, -0.1342773, -9.3902445, -11.219512, 8.3536587, -0.0325628
-0.9946289, -0.0400391, -0.1308594, -9.0243902, -11.1585369, 8.4756098, -0.0386053
-0.9941406, -0.0371094, -0.1293945, -8.5365858, -10.7317076, 8.5365858, -0.056733
-0.9926758, -0.0351562, -0.1264648, -8.4756098, -10.8536587, 8.5365858, -0.0674754
-0.9921875, -0.0297852, -0.1210938, -7.8658538, -10.4268293, 8.6585369, -0.0688182
-0.9931641, -0.0302734, -0.1171875, -8.0487804, -10.3658543, 8.5975609, -0.0674754
-0.9912109, -0.0253906, -0.1137695, -7.6829271, -9.8780489, 8.3536587, -0.0624399
-0.9926758, -0.0244141, -0.112793, -7.0731707, -9.2682924, 8.2317076, -0.0533761
-0.9941406, -0.0161133, -0.1083984, -6.890244, -9.1463413, 8.719512, -0.0453193
-0.9897461, -0.0083008, -0.1079102, -6.5853658, -9.0853662, 8.4146347, -0.0372625
-0.9912109, -0.0019531, -0.1147461, -6.6463418, -8.719512, 8.5975609, -0.0332341
-0.9873047, -0.0024414, -0.121582, -6.7682929, -8.1707315, 8.4756098, -0.0292058
-0.9814453, 0.0107422, -0.1206055, -6.890244, -8.1097565, 8.1097565, -0.0305486
-0.987793, 0.0170898, -0.1293945, -7.5609756, -8.1097565, 7.6219516, -0.0352483
-0.9838867, 0.0200195, -0.1323242, -7.9878049, -8.1097565, 7.4390244, -0.0379339
-0.987793, 0.0224609, -0.1357422, -8.6585369, -8.0487804, 7.0121951, -0.0406195
-0.9907227, 0.0195312, -0.1357422, -9.5121956, -8.3536587, 6.5243902, -0.0419623
-0.9951172, 0.0117188, -0.1425781, -9.6951218, -8.3536587, 6.5243902, -0.0406195
-1.0009766, 0.0058594, -0.1459961, -10.2439022, -8.4756098, 6.4634147, -0.0396124
-1.003418, -0.0053711, -0.1499023, -10.3048782, -8.5365858, 6.5853658, -0.0433051
-1.0087891, -0.0107422, -0.1469727, -10.6707315, -8.9634151, 6.890244, -0.0406195
-1.0092773, -0.0244141, -0.1425781, -10.4878054, -9.2682924, 7.1951222, -0.0426337
-1.0107422, -0.0244141, -0.1391602, -10.3048782, -10, 6.890244, -0.0439765
-1.012207, -0.0302734, -0.1308594, -9.8780489, -10.1829271, 7.0121951, -0.0433051
-1.0112305, -0.0322266, -0.1279297, -9.0243902, -10.3048782, 6.7073174, -0.0486763
-1.0131836, -0.0332031, -0.1289062, -7.9268293, -10.1829271, 6.8292685, -0.0584115
-1.0131836, -0.0239258, -0.1342773, -6.4634147, -9.8170738, 7.0731707, -0.070161
-1.0068359, -0.015625, -0.1352539, -5.609756, -9.6341467, 7.5, -0.0681468
-1.0043945, -0.0014648, -0.1376953, -5.4878049, -9.4512196, 7.0121951, -0.0654612
-1.0063477, 0.0063477, -0.1376953, -6.0975609, -9.4512196, 6.6463418, -0.0661326
-1.0048828, 0.015625, -0.1381836, -6.3414636, -9.3292685, 6.3414636, -0.0621042
-1.0004883, 0.0180664, -0.1391602, -6.8292685, -9.6951218, 5.8536587, -0.0587472
-1.0019531, 0.0239258, -0.1362305, -7.3170733, -10, 6.0365853, -0.0500191
-1.0014648, 0.0258789, -0.1347656, -7.5609756, -9.8780489, 5.7317076, -0.0486763
-0.9960938, 0.0234375, -0.1347656, -8.1097565, -9.8170738, 5.7926831, -0.0486763
-1.0019531, 0.012207, -0.1337891, -8.9634151, -10.1219511, 5.7317076, -0.0473335
-1.0019531, 0.0078125, -0.1313477, -9.3902445, -10.3048782, 5.7926831, -0.0446479
-0.9926758, -0.0009766, -0.1303711, -9.8170738, -10.3658543, 5.609756, -0.0459907
-0.9936523, -0.0048828, -0.1259766, -9.9390249, -10.7317076, 5.670732, -0.0446479
-0.9960938, -0.0117188, -0.1196289, -9.8170738, -10.9756098, 5.609756, -0.0436408
-0.9946289, -0.0136719, -0.1132812, -8.6585369, -11.341464, 5.8536587, -0.0473335
-0.9956055, -0.0175781, -0.1088867, -8.3536587, -11.1585369, 5.5487804, -0.056733
-0.9985352, -0.0166016, -0.1088867, -7.4390244, -10.9146347, 5.609756, -0.0607614
-1.0063477, -0.0166016, -0.1069336, -6.8292685, -10.9756098, 5.3658538, -0.0594186
-1.0083008, -0.0107422, -0.1074219, -6.5243902, -10.4878054, 5.1219511, -0.0574044
-1.0102539, -0.0087891, -0.1152344, -6.3414636, -10.5487804, 4.9390244, -0.0553902
-1.0170898, -0.0048828, -0.1171875, -5.9756098, -10.1219511, 5.2439027, -0.0533761
-1.0195312, -0.0014648, -0.1186523, -6.2195125, -10.1829271, 5.1829271, -0.0520333
-1.0195312, 0.0009766, -0.1293945, -5.9146342, -10.2439022, 5.2439027, -0.0466621
-1.0209961, 0.0043945, -0.1264648, -6.1585369, -10.6707315, 5.4878049, -0.0406195
-1.0200195, 0, -0.1293945, -6.5243902, -10.8536587, 5.609756, -0.0406195
-1.0180664, -0.0053711, -0.1313477, -6.9512196, -11.5243902, 5.9756098, -0.0473335
-1.0126953, -0.0063477, -0.1313477, -7.1951222, -11.9512196, 6.1585369, -0.0594186
-1.0073242, -0.015625, -0.1313477, -7.4390244, -12.2560978, 6.8292685, -0.0610971
-1.0019531, -0.0214844, -0.1269531, -7.0121951, -12.6829271, 6.5243902, -0.0580758
-0.9970703, -0.0268555, -0.1254883, -6.0975609, -13.0487804, 6.7682929, -0.0547189
-0.9951172, -0.0361328, -0.1196289, -5.609756, -13.5365858, 6.3414636, -0.0459907
-0.9975586, -0.0385742, -0.1225586, -4.2073174, -14.0243902, 6.280488, -0.0386053
-1.0024414, -0.0366211, -0.1254883, -3.1707318, -14.2682934, 6.4634147, -0.0305486
-1.0024414, -0.0292969, -0.1357422, -1.7073171, -14.7560978, 6.5853658, -0.0251774
-1.0053711, -0.0268555, -0.1386719, 0.0609756, -14.7560978, 6.7682929, -0.0231632
-1.0175781, -0.0131836, -0.1464844, 0.2439024, -15.1219511, 6.890244, -0.0224918
-1.0214844, 0.0004883, -0.1474609, 1.1585366, -15.4878054, 6.4634147, -0.0231632
-1.0302734, 0.0083008, -0.152832, 1.5243902, -15.9756098, 6.280488, -0.0238346
-1.0336914, 0.0166016, -0.152832, 1.3414634, -17.0121956, 6.0365853, -0.0258488
-1.0361328, 0.0351562, -0.1557617, 1.0365853, -17.6219521, 6.280488, -0.0265202
-1.0366211, 0.0385742, -0.1547852, 0.5487805, -18.4146347, 6.4024391, -0.0305486
-1.0273438, 0.0454102, -0.1538086, 0.4268293, -18.4756107, 6.5243902, -0.0332341
-1.012207, 0.0449219, -0.1469727, 0.0609756, -18.780489, 6.4634147, -0.0339055
-1.0073242, 0.0439453, -0.1450195, -0.6707317, -19.1463413, 6.3414636, -0.035584
-1.0024414, 0.0410156, -0.1376953, -0.6097561, -19.939024, 5.5487804, -0.0392767
-0.9990234, 0.0341797, -0.1347656, -0.9146342, -20.6097565, 5.1829271, -0.0446479
-0.9936523, 0.0112305, -0.1401367, -0.5487805, -21.0365868, 4.9390244, -0.0453193
-0.9946289, 0.0004883, -0.1376953, 0.3048781, -21.7682934, 4.8170733, -0.0459907
-0.996582, -0.027832, -0.1450195, 0.9146342, -22.2560978, 5, -0.0466621
-0.9985352, -0.0429688, -0.1499023, 1.3414634, -23.4756107, 5.8536587, -0.0446479
-1.0009766, -0.0668945, -0.152832, 2.0121951, -24.1463413, 6.1585369, -0.0473335
-1.0014648, -0.0820312, -0.1430664, 4.1463413, -25.9146347, 7.2560978, -0.0426337
-1.0019531, -0.0898438, -0.140625, 5.4268293, -26.8902454, 7.9268293, -0.0339055
-1.0004883, -0.0947266, -0.1328125, 8.5365858, -27.8658543, 8.841464, -0.0318914
-0.9985352, -0.0957031, -0.1323242, 10.1829271, -28.2317085, 9.3292685, -0.0305486
-0.9916992, -0.0820312, -0.1240234, 13.4146347, -29.1463413, 9.6951218, -0.0224918
-0.9916992, -0.0776367, -0.1220703, 16.5853653, -30.4268303, 9.9390249, -0.0204776
-0.9990234, -0.0654297, -0.1220703, 17.9878044, -31.1585369, 9.9390249, -0.0218204
-0.9990234, -0.0546875, -0.125, 20.4268303, -32.8658562, 9.6951218, -0.0224918
-0.9995117, -0.027832, -0.1347656, 21.6463413, -33.9024391, 9.8170738, -0.024506
-0.9980469, -0.0180664, -0.1391602, 22.560976, -35.3048782, 10.2439022, -0.0248417
-1.0063477, 0.0087891, -0.140625, 22.9268303, -36.2195129, 10.7926836, -0.0251774
-1.003418, 0.0195312, -0.1367188, 22.7439022, -37.6829262, 11.4024391, -0.0339055
-1.0058594, 0.0209961, -0.1342773, 22.6829281, -38.6585388, 11.6463413, -0.0386053
-1.0009766, 0.0273438, -0.1293945, 22.9268303, -40.3048782, 11.7682934, -0.042298
-0.9970703, 0.0244141, -0.1269531, 23.1097565, -41.0975609, 11.9512196, -0.0409552
-0.9995117, 0.0234375, -0.125, 23.4146347, -42.1951218, 11.280488, -0.038941
-1.0024414, 0.0219727, -0.121582, 24.0243912, -42.6829262, 11.1585369, -0.0446479
-1.0092773, 0.0209961, -0.1191406, 24.2073174, -42.9268303, 11.0975609, -0.0516976
-1.0078125, 0.0170898, -0.1176758, 24.4512196, -43.0487823, 11.341464, -0.06009
-1.0136719, 0.015625, -0.1147461, 24.8780499, -42.8658562, 11.280488, -0.066804
-1.0112305, 0.0151367, -0.1123047, 25.3048782, -42.4390259, 10.8536587, -0.0731823
-1.0092773, 0.0131836, -0.1005859, 25.4878063, -41.8292694, 11.0365858, -0.0715038
-1.0131836, 0.0112305, -0.0932617, 25.3658543, -40.4878044, 10.3658543, -0.0674754
-1.0175781, 0.012207, -0.0922852, 25.7317085, -39.8170738, 10.4878054, -0.0621042
-1.0195312, 0.0068359, -0.0991211, 26.5243912, -39.1463432, 10.3048782, -0.0557259
-1.0214844, 0.0048828, -0.1025391, 27.1341476, -39.0243912, 10, -0.0688182
-1.0195312, -0.0019531, -0.1118164, 28.3536587, -38.6585388, 10.5487804, -0.0782177
-1.0180664, 0, -0.112793, 28.4146347, -38.2926826, 10.6707315, -0.0748608
-1.0141602, -0.0087891, -0.1142578, 28.2926826, -37.9878044, 10.9756098, -0.0624399
-1.0136719, -0.0102539, -0.1108398, 27.9878063, -37.9878044, 11.4024391, -0.0433051
-1.0048828, -0.019043, -0.1030273, 28.1097565, -38.0487823, 11.7682934, -0.0292058
-1.0009766, -0.0219727, -0.0996094, 29.3902454, -38.1707344, 11.8292685, -0.0238346
-0.9970703, -0.0214844, -0.0883789, 29.8170738, -38.3536606, 12.1341467, -0.024506
-0.9936523, -0.019043, -0.0859375, 31.0975609, -37.9878044, 12.3780489, -0.0271916
-0.9863281, -0.0166016, -0.0859375, 31.8292694, -37.8048782, 12.6829271, -0.0261845
-0.9838867, -0.0083008, -0.0874023, 32.4390259, -36.9512215, 13.1097565, -0.0285344
-0.9790039, 0.0058594, -0.0834961, 32.5609779, -36.1585388, 13.3536587, -0.0332341
-0.9755859, 0.0292969, -0.0942383, 31.8292694, -35.4878044, 13.1097565, -0.0365911
-0.980957, 0.0410156, -0.1010742, 30.1829281, -34.6951218, 12.4390249, -0.0392767
-0.9829102, 0.0678711, -0.0898438, 29.0853672, -34.5121956, 11.9512196, -0.0339055
-0.9790039, 0.0839844, -0.0878906, 26.5853672, -32.7439041, 10.7317076, -0.0325628
-0.9853516, 0.1088867, -0.0976562, 25.5487804, -30.9756107, 10, -0.0285344
-0.9858398, 0.121582, -0.0961914, 22.6219521, -28.9634151, 8.780488, -0.0271916
-0.9970703, 0.1328125, -0.097168, 21.3414631, -28.7195129, 8.719512, -0.0221561
-1.0083008, 0.1191406, -0.0825195, 17.9268303, -27.6219521, 7.9878049, -0.0231632
-1.0141602, 0.1108398, -0.0766602, 16.5853653, -27.2560978, 7.6829271, -0.0318914
-1.0136719, 0.0771484, -0.0605469, 14.3292685, -25.3658543, 7.1951222, -0.0305486
-1.0185547, 0.0532227, -0.059082, 13.780488, -24.8170738, 6.5243902, -0.0258488
-1.0166016, 0.0180664, -0.059082, 14.1463413, -24.2073174, 5.7926831, -0.0318914
-1.0136719, 0.0014648, -0.0649414, 15.060976, -23.780489, 5.609756, -0.0406195
-1.0097656, -0.0209961, -0.0771484, 15.7317076, -23.4756107, 5.5487804, -0.0459907
-1.0087891, -0.0327148, -0.0810547, 16.0365849, -21.8292694, 6.0365853, -0.049012
-1.012207, -0.0493164, -0.0898438, 16.4024391, -21.4024391, 6.3414636, -0.0473335
-1.0107422, -0.0571289, -0.090332, 17.1341476, -20.8536587, 6.890244, -0.0446479
-1.0048828, -0.0664062, -0.0834961, 17.9878044, -20.7317085, 7.0121951, -0.0449836
-1.0004883, -0.0639648, -0.0673828, 19.4512196, -20.6707325, 7.1951222, -0.0419623
-0.9975586, -0.0600586, -0.0610352, 20.6707325, -20.7317085, 6.7682929, -0.0379339
-0.9936523, -0.0507812, -0.0644531, 22.9268303, -20.060976, 6.280488, -0.0386053
-0.9980469, -0.0444336, -0.0693359, 23.9024391, -19.3292694, 5.609756, -0.0412909
-1.0004883, -0.0268555, -0.0810547, 25.8536587, -18.5975609, 5.4878049, -0.0436408
-1.0058594, -0.0185547, -0.0922852, 26.6463413, -17.9268303, 4.8780489, -0.0453193
-1.0078125, -0.0029297, -0.0991211, 26.4024391, -18.1097565, 5.0609756, -0.0480049
-1.0087891, 0.0004883, -0.1010742, 26.4634151, -18.2926826, 5, -0.0493477
-1.0097656, 0.0087891, -0.1030273, 26.2195129, -18.5365849, 4.9390244, -0.0463264
-1.0092773, 0.0087891, -0.0996094, 26.7682934, -19.0853672, 4.3292685, -0.0459907
-1.0068359, 0.0126953, -0.0888672, 26.9512196, -19.1463413, 3.9634147, -0.0473335
-1.0043945, 0.0229492, -0.0820312, 28.2317085, -19.5731716, 2.6829269, -0.0446479
-1.0107422, 0.0341797, -0.0844727, 28.6585369, -19.6951218, 2.195122, -0.0339055
-1.0175781, 0.0634766, -0.0874023, 29.0853672, -20, 1.7073171, -0.0325628
-1.0166016, 0.0771484, -0.0888672, 29.0853672, -19.8780499, 1.097561, -0.0298772
-1.0249023, 0.1020508, -0.1010742, 28.9024391, -19.5731716, 0.2439024, -0.0258488
-1.0258789, 0.1088867, -0.1005859, 27.5, -20.1219521, -1.0365853, -0.0288701
-1.0249023, 0.1083984, -0.1035156, 26.4634151, -20.4878044, -1.4634147, -0.0255131
-1.0288086, 0.1030273, -0.1015625, 23.9024391, -20.9756107, -2.804878, -0.0261845
-1.0253906, 0.0776367, -0.0952148, 22.6219521, -21.1585369, -3.4756098, -0.0224918
-1.0288086, 0.0610352, -0.0922852, 20.060976, -21.1585369, -4.5731707, -0.0251774
-1.027832, 0.0219727, -0.0795898, 19.1463413, -20.4878044, -4.5731707, -0.0339055
-1.0351562, -0.0141602, -0.0610352, 18.780489, -19.939024, -4.8170733, -0.0392767
-1.0351562, -0.0288086, -0.0532227, 19.0243912, -19.6951218, -4.6951222, -0.0426337
-1.0395508, -0.0585938, -0.0395508, 20.7317085, -19.5731716, -4.0853658, -0.0446479
-1.0429688, -0.0683594, -0.0390625, 22.0731716, -19.5731716, -3.8414636, -0.0466621
-1.0483398, -0.0771484, -0.0332031, 24.9390259, -19.6951218, -3.5975611, -0.0453193
-1.0458984, -0.0756836, -0.0307617, 27.7439022, -19.5731716, -3.9024391, -0.0392767
-1.0532227, -0.059082, -0.0332031, 28.780489, -19.8780499, -4.0243902, -0.0406195
-1.0585938, -0.0454102, -0.0375977, 31.341465, -19.4512196, -3.9024391, -0.038941
-1.0703125, -0.0141602, -0.046875, 32.1951218, -19.3902435, -3.6585367, -0.0459907
-1.0732422, 0.0043945, -0.0566406, 33.2926826, -19.1463413, -3.3536587, -0.0580758
-1.0810547, 0.0283203, -0.0668945, 33.2317085, -19.2682934, -2.4390244, -0.0674754
-1.078125, 0.0371094, -0.0727539, 31.5243912, -19.3902435, -2.0731707, -0.0795605
-1.0727539, 0.0273438, -0.0751953, 30.6707325, -19.6951218, -1.8902439, -0.0862745
-1.0688477, -0.0068359, -0.0786133, 28.1707325, -19.4512196, -1.7682927, -0.0919814
-1.0673828, -0.0307617, -0.0805664, 27.560976, -20.1219521, -1.9512196, -0.0986954
-1.0615234, -0.0913086, -0.0791016, 27.8048782, -20.4268303, -1.8292683, -0.0973526
-1.0615234, -0.1176758, -0.0800781, 29.0243912, -21.280489, -1.097561, -0.0869459
-1.0693359, -0.1728516, -0.0737305, 30.1219521, -21.8292694, -0.3658537, -0.0755322
-1.0698242, -0.1914062, -0.0737305, 33.0487823, -22.9268303, 1.8902439, -0.0500191
-1.0732422, -0.2075195, -0.0561523, 35.1219521, -23.7195129, 3.4146342, -0.0151064
-1.0791016, -0.2055664, -0.0517578, 39.8170738, -24.5121956, 6.4024391, 0.0130922
-1.0791016, -0.1850586, -0.0454102, 42.2560997, -25.2439022, 7.6829271, 0.0218204
-1.0776367, -0.137207, -0.0463867, 46.5243912, -25.8536587, 9.3292685, 0.0204776
-1.0732422, -0.1079102, -0.0512695, 47.8658562, -26.4024391, 9.7560978, 0.0157778
-1.0786133, -0.050293, -0.0556641, 48.7804871, -26.5853672, 10.1219511, -0.0003357
-1.0786133, -0.0249023, -0.0541992, 48.5975609, -26.1585369, 10.1219511, -0.017792
-1.0766602, 0.0268555, -0.0585938, 47.6219521, -26.2195129, 10.3658543, -0.0265202
-1.0722656, 0.043457, -0.0522461, 45.7317085, -26.3414631, 10.5487804, -0.0379339
-1.0649414, 0.0581055, -0.0429688, 44.6951218, -26.4024391, 10.6097565, -0.0426337
-1.0615234, 0.0566406, -0.0361328, 42.8048782, -26.280489, 10.2439022, -0.0466621
-1.0551758, 0.0488281, -0.0244141, 42.4390259, -26.280489, 9.5731707, -0.0473335
-1.0493164, 0.0366211, -0.0239258, 42.3780479, -25.6707325, 8.3536587, -0.0506905
-1.0449219, 0.0141602, -0.0258789, 42.7439041, -25.6707325, 7.5609756, -0.056733
-1.0473633, -0.0073242, -0.0371094, 43.0487823, -25.3048782, 6.3414636, -0.06009
-1.0532227, -0.0146484, -0.0366211, 43.2317085, -25.2439022, 5.7926831, -0.0553902
-1.0673828, -0.0214844, -0.0351562, 43.5365868, -25.9146347, 5.1829271, -0.0533761
-1.0737305, -0.0224609, -0.0327148, 43.7195129, -26.4024391, 5.4268293, -0.0540475
-1.0849609, -0.0078125, -0.0297852, 44.3292694, -26.6463413, 5.7926831, -0.0540475
-1.0854492, -0.0014648, -0.0244141, 45.0609779, -26.8902454, 6.7073174, -0.0530404
-1.074707, 0.0214844, -0.0175781, 45.6707344, -26.4634151, 6.6463418, -0.0557259
-1.0703125, 0.0297852, -0.0141602, 46.0975609, -26.7073174, 6.2195125, -0.0516976
-1.0600586, 0.0478516, 0, 46.0975609, -26.4634151, 5.5487804, -0.0530404
-1.059082, 0.0541992, 0.0039062, 46.4024391, -26.8902454, 3.4146342, -0.0527047
-1.0517578, 0.0556641, 0.0136719, 46.7073174, -26.6463413, 2.3780489, -0.0513619
-1.0493164, 0.0546875, 0.0141602, 46.7682953, -26.5853672, 0.7317073, -0.0500191
-1.0458984, 0.0532227, 0.0214844, 46.2804871, -26.5243912, 0.0609756, -0.0500191
-1.0400391, 0.0478516, 0.0322266, 45.4268303, -25.9146347, -0.4268293, -0.0480049
-1.0322266, 0.0429688, 0.0380859, 44.3902435, -24.9390259, -0.6707317, -0.0446479
-1.0234375, 0.0390625, 0.0600586, 44.0243912, -24.2682934, -0.6707317, -0.0449836
-1.0175781, 0.0361328, 0.0664062, 43.6585388, -23.1097565, -1.6463414, -0.0486763
-1.0097656, 0.0244141, 0.0732422, 43.841465, -22.439024, -2.1341465, -0.0453193
-1.0058594, 0.0141602, 0.0722656, 44.7560997, -20.9146347, -3.9634147, -0.0409552
-1.0004883, 0.0014648, 0.074707, 45.3658562, -20.3658543, -5, -0.0433051
-1.0024414, -0.0039062, 0.0737305, 46.2195129, -19.0853672, -6.0365853, -0.0359197
-1.0097656, -0.0004883, 0.0620117, 46.4634171, -18.2317085, -6.280488, -0.0419623
-1.0175781, 0.0195312, 0.0478516, 47.1951218, -17.3170738, -6.280488, -0.0480049
-1.0214844, 0.03125, 0.0473633, 47.0121956, -16.9512196, -6.2195125, -0.0459907
-1.0219727, 0.0678711, 0.0429688, 46.341465, -15.8536587, -6.0365853, -0.0406195
-1.0185547, 0.0844727, 0.0395508, 44.3902435, -14.5731707, -6.0975609, -0.0339055
-1.0166016, 0.1118164, 0.0327148, 43.0487823, -14.0853662, -6.4024391, -0.0332341
-1.0146484, 0.125, 0.0307617, 39.8780479, -12.7439032, -7.6219516, -0.03122
-1.0126953, 0.1381836, 0.0263672, 37.6829262, -12.4390249, -8.4756098, -0.0298772
-1.0087891, 0.1362305, 0.0249023, 33.1707306, -11.219512, -10.4878054, -0.0285344
-1.003418, 0.1264648, 0.0263672, 31.0365868, -10.6097565, -11.4634151, -0.0218204
-0.9985352, 0.1108398, 0.0244141, 25.9146347, -9.0853662, -12.9878054, -0.0339055
-1.0039062, 0.0673828, 0.0283203, 23.6585369, -8.2926826, -13.780488, -0.0493477
-1.0043945, 0.0209961, 0.0371094, 20.060976, -7.6219516, -14.6951227, -0.0584115
-1.0063477, -0.0014648, 0.0463867, 18.9634151, -7.1341467, -14.5731707, -0.063447
-1.0166016, -0.046875, 0.0673828, 17.9268303, -6.9512196, -14.3902445, -0.0594186
-1.0131836, -0.0629883, 0.0795898, 19.1463413, -6.0975609, -12.8048782, -0.0547189
-1.012207, -0.0927734, 0.0986328, 20, -5.670732, -12.0731707, -0.0473335
-1.0102539, -0.1137695, 0.1020508, 22.6829281, -4.8780489, -11.219512, -0.0516976
-1.0063477, -0.1479492, 0.0986328, 24.3292694, -4.9390244, -10.4878054, -0.0513619
-1.0112305, -0.1611328, 0.0957031, 29.0853672, -4.0853658, -9.6341467, -0.0473335
-1.0185547, -0.1826172, 0.0698242, 32.0121956, -4.0243902, -9.1463413, -0.0453193
-1.0258789, -0.1791992, 0.0454102, 37.8658562, -4.2073174, -7.0121951, -0.0463264
-1.027832, -0.1694336, 0.0322266, 40.8536606, -4.2682929, -5.670732, -0.0466621
-1.0283203, -0.1411133, 0.0205078, 45.3048782, -5.3048782, -2.5609756, -0.0426337
-1.0302734, -0.1206055, 0.019043, 46.9512215, -5.4268293, -1.2804878, -0.0392767
-1.0268555, -0.0766602, 0.0219727, 49.5731735, -6.280488, 0.8536586, -0.0325628
-1.0268555, -0.0566406, 0.0185547, 51.0365868, -7.0731707, 2.3170731, -0.0318914
-1.0209961, -0.015625, 0.0058594, 51.8902435, -7.0731707, 2.804878, -0.0288701
-1.0209961, -0.0063477, -0.0029297, 52.5609779, -7.3780489, 2.6219513, -0.0224918
-1.0229492, 0.0058594, -0.0200195, 52.7439041, -7.5609756, 2.1341465, -0.0198062
-1.0249023, 0.0068359, -0.0258789, 52.3780518, -8.2926826, 1.8902439, -0.0191348
-1.0307617, -0.0039062, -0.034668, 51.5243912, -8.780488, 1.5853659, -0.0164492
-1.0419922, -0.0229492, -0.0283203, 50.9146347, -9.9390249, 1.3414634, -0.0151064
-1.0512695, -0.03125, -0.0263672, 50.9756126, -10.4878054, 1.402439, -0.0164492
-1.0512695, -0.0424805, -0.0209961, 51.8292694, -11.5853662, 1.8292683, -0.0198062
-1.0532227, -0.0483398, -0.0185547, 52.7439041, -12.2560978, 1.7682927, -0.0218204
-1.0458984, -0.0473633, -0.0209961, 54.4512215, -14.3902445, 2.4390244, -0.0218204
-1.0449219, -0.0405273, -0.0297852, 55.6097565, -16.1585369, 2.7439024, -0.0298772
-1.0405273, -0.0141602, -0.0395508, 56.4634171, -17.3780499, 2.804878, -0.0466621
-1.0400391, -0.0004883, -0.0483398, 57.0731735, -18.9024391, 3.1707318, -0.0527047
-1.0375977, 0.0371094, -0.0581055, 56.9512215, -19.5731716, 3.7804878, -0.0547189
-1.0380859, 0.0537109, -0.0581055, 56.2195129, -21.7073174, 3.7195122, -0.06009
-1.0332031, 0.0922852, -0.0571289, 55.7317085, -22.560976, 3.7195122, -0.0641184
-1.0307617, 0.1132812, -0.043457, 54.0243912, -24.8780499, 2.6219513, -0.0755322
-1.0327148, 0.1230469, -0.0371094, 52.9268303, -25.060976, 1.7073171, -0.0956741
-1.0249023, 0.1230469, -0.0136719, 51.2195129, -26.4024391, -0.3658537, -0.1050736
-1.0273438, 0.1132812, -0.0019531, 50.4268303, -26.8902454, -1.7682927, -0.1030594
-1.0292969, 0.0913086, 0.0234375, 48.7195129, -27.5, -3.7195122, -0.0929885
-1.0288086, 0.0771484, 0.0380859, 47.2560997, -27.2560978, -4.8170733, -0.0802319
-1.0224609, 0.0429688, 0.0639648, 46.9512215, -27.2560978, -4.7560978, -0.0661326
-1.0166016, 0.0268555, 0.0791016, 46.8292694, -26.4024391, -4.6341462, -0.0506905
-1.0141602, -0.0092773, 0.1049805, 47.3780518, -25.4878063, -4.3292685, -0.0339055
-1.0092773, -0.0224609, 0.1166992, 48.841465, -24.2682934, -4.2682929, -0.021149
-1.0102539, -0.0551758, 0.1386719, 50.2439041, -23.5975609, -4.390244, -0.0063783
-1.0117188, -0.0800781, 0.1533203, 54.0243912, -21.8902435, -4.2682929, 0.0010071
-1.0141602, -0.0942383, 0.1547852, 55.4268303, -21.0365868, -4.1463413, 0.0050355
-1.0219727, -0.1201172, 0.1499023, 59.4512215, -19.3902435, -3.4756098, 0.0087282
-1.0297852, -0.128418, 0.1411133, 61.4024391, -18.5975609, -3.4756098, 0.0154421
-1.0317383, -0.1455078, 0.1098633, 66.4634171, -18.0487804, -2.0121951, 0.0157778
-1.0385742, -0.1464844, 0.090332, 72.3170776, -17.1951218, -0.0609756, 0.0117494
-1.0449219, -0.1298828, 0.0576172, 75.1219559, -17.5, 0.7317073, 0.011078
-1.0551758, -0.1166992, 0.0424805, 80.6097565, -18.0487804, 2.5, 0.0083925
-1.0629883, -0.0771484, 0.0258789, 82.9268341, -18.2926826, 3.7195122, -0.0030213
-1.0688477, -0.0419922, 0.0239258, 86.646347, -19.0243912, 5.5487804, -0.0030213
-1.0727539, 0.015625, 0.0102539, 87.8048782, -19.3292694, 5.9146342, -0.0083925
-1.0673828, 0.0678711, -0.0126953, 89.5121994, -20.7317085, 6.0975609, -0.017792
-1.065918, 0.0957031, -0.0224609, 89.4512253, -21.4024391, 5.5487804, -0.0198062
-1.0634766, 0.1303711, -0.0424805, 87.7439041, -22.7439022, 4.3292685, -0.0231632
-1.0610352, 0.1391602, -0.050293, 86.0975647, -23.6585369, 3.3536587, -0.0285344
-1.0546875, 0.144043, -0.0576172, 82.3780518, -24.6341476, 1.5853659, -0.0335698
-1.0522461, 0.1401367, -0.0561523, 78.7195129, -25.060976, -0.1829268, -0.0362554
-1.0463867, 0.1220703, -0.0444336, 77.0121994, -25.4268303, -1.097561, -0.0419623
-1.0498047, 0.1005859, -0.0366211, 74.0243912, -25.7926826, -2.804878, -0.0506905
-1.0488281, 0.0771484, -0.015625, 73.3536606, -26.280489, -3.9024391, -0.0540475
-1.0473633, 0.0673828, -0.0112305, 72.0121994, -27.9878063, -4.9390244, -0.0570687
-1.0380859, 0.0473633, 0.0151367, 71.7682953, -28.841465, -5.1219511, -0.0621042
-1.0273438, 0.0317383, 0.0341797, 71.7073212, -29.3292694, -5.670732, -0.0647898
-1.0195312, 0.0244141, 0.0419922, 71.8292694, -29.1463413, -5.8536587, -0.0654612
-1.0185547, 0.0234375, 0.0498047, 71.7682953, -28.5975609, -6.2195125, -0.066804
-1.0214844, 0.0224609, 0.0566406, 72.3780518, -27.9268303, -6.5853658, -0.0607614
-1.0351562, 0.0131836, 0.0610352, 72.7439041, -27.6829281, -7.3780489, -0.0574044
-1.0390625, 0.0087891, 0.0625, 73.9634171, -27.4390259, -7.5, -0.0624399
-1.0556641, 0, 0.0639648, 74.6951218, -27.0121956, -7.5609756, -0.0580758
-1.0585938, 0.0009766, 0.0717773, 76.7073212, -26.7073174, -7.3170733, -0.0520333
-1.0717773, 0.0029297, 0.0844727, 77.8048782, -26.4634151, -6.890244, -0.0473335
-1.0791016, 0.0029297, 0.0957031, 79.8780518, -25.7926826, -6.1585369, -0.0449836
-1.0805664, 0.0161133, 0.1162109, 81.0365906, -25.7926826, -5.5487804, -0.0433051
-1.0737305, 0.0224609, 0.140625, 83.5975647, -24.7560978, -4.7560978, -0.0419623
-1.0639648, 0.0297852, 0.1474609, 84.6951218, -24.2073174, -4.2682929, -0.0379339
-1.0581055, 0.0415039, 0.1650391, 86.1585388, -23.1097565, -4.2073174, -0.0352483
-1.0444336, 0.0454102, 0.1728516, 86.5853653, -22.1341476, -3.9024391, -0.0359197
-1.0205078, 0.0458984, 0.1791992, 87.2560959, -19.8780499, -4.4512196, -0.035584
-1.0112305, 0.0405273, 0.1811523, 87.6219559, -17.0731716, -5, -0.0345769
-1.0043945, 0.034668, 0.1801758, 88.2926865, -15.7926836, -5.3658538, -0.0339055
-1.0009766, 0.0292969, 0.1826172, 88.6585388, -13.2926836, -5.9146342, -0.0369268
-1.0029297, 0.0175781, 0.1806641, 89.0853653, -12.1341467, -6.0365853, -0.0359197
-1.0014648, 0.0146484, 0.1787109, 90.4268341, -9.8780489, -5.670732, -0.0359197
-1, 0.0185547, 0.1635742, 90.9756088, -8.780488, -5.670732, -0.0399481
-1.0004883, 0.0249023, 0.1328125, 92.1341476, -6.4634147, -5.1829271, -0.0406195
-1.0004883, 0.027832, 0.1069336, 92.5609741, -5.3048782, -5.3048782, -0.0446479
-1.0068359, 0.0322266, 0.0639648, 92.0731735, -3.6585367, -5.1829271, -0.0480049
-1.0131836, 0.0395508, 0.0449219, 91.4024429, -2.195122, -5.670732, -0.0486763
-1.0273438, 0.0424805, 0.012207, 90.5487823, -1.7073171, -5.670732, -0.0540475
-1.0327148, 0.0429688, 0, 88.9634171, -1.402439, -5.670732, -0.056733
-1.0478516, 0.0410156, -0.0214844, 88.1707306, -1.5853659, -5.7926831, -0.0594186
-1.0527344, 0.0375977, -0.0234375, 86.4024429, -2.0121951, -5.7317076, -0.0607614
-1.0634766, 0.0263672, -0.0185547, 85.4878082, -2.6829269, -5.7317076, -0.0607614
-1.0654297, 0.0263672, -0.0087891, 83.7195129, -3.4146342, -5.0609756, -0.0594186
-1.0639648, 0.0371094, 0.0058594, 82.9878082, -3.5975611, -4.5121951, -0.0594186
-1.0507812, 0.0439453, 0.0131836, 81.0365906, -3.9634147, -3.4756098, -0.0570687
-1.0439453, 0.0512695, 0.0107422, 80.3658524, -3.9634147, -3.3536587, -0.056733
-1.0317383, 0.0444336, -0.0087891, 78.2317123, -3.1097562, -3.1097562, -0.0597543
-1.0302734, 0.0400391, -0.0200195, 75.7317123, -2.804878, -4.0243902, -0.0594186
-1.0224609, 0.0263672, -0.0400391, 74.2682953, -3.2926829, -4.1463413, -0.0574044
-1.0170898, 0.0180664, -0.0493164, 71.8902435, -4.2682929, -4.390244, -0.0506905
-1.0175781, 0.0043945, -0.0634766, 70.6707306, -5, -3.9024391, -0.0466621
-1.0166016, 0.0014648, -0.0688477, 69.6951218, -6.0365853, -2.7439024, -0.0459907
-1.0151367, 0.0068359, -0.0742188, 69.3902435, -6.5243902, -2.0731707, -0.0446479
-1.0185547, 0.0102539, -0.0766602, 69.0243912, -7.8658538, -0.7317073, -0.0412909
-1.0249023, 0.0219727, -0.074707, 69.1463394, -8.719512, -0.3658537, -0.0453193
-1.0410156, 0.0380859, -0.0527344, 69.1463394, -11.0975609, -0.5487805, -0.0466621
-1.0551758, 0.0463867, -0.0473633, 69.4512177, -12.0731707, -0.6097561, -0.0419623
-1.065918, 0.0585938, -0.0463867, 70.7317123, -14.3902445, -1.1585366, -0.0446479
-1.0732422, 0.0610352, -0.0517578, 71.7682953, -16.3414631, -1.3414634, -0.0433051
-1.0786133, 0.0693359, -0.0708008, 71.5853653, -17.1341476, -1.1585366, -0.0466621
-1.081543, 0.0629883, -0.074707, 70.2439041, -18.9634151, -0.7926829, -0.0469978
-1.0795898, 0.0664062, -0.0756836, 69.4512177, -19.6951218, -0.3048781, -0.0453193
-1.0751953, 0.0634766, -0.074707, 67.9878082, -21.4024391, 0.0609756, -0.0406195
-1.0610352, 0.0532227, -0.0585938, 67.3780518, -22.3170738, 0.4878049, -0.0449836
-1.059082, 0.0498047, -0.0522461, 66.6463394, -24.0243912, 1.1585366, -0.0506905
-1.0380859, 0.0351562, -0.0375977, 66.5853653, -24.6341476, 1.1585366, -0.0486763
-1.0263672, 0.0209961, -0.0366211, 67.0121994, -25.6707325, 1.6463414, -0.0466621
-1.015625, 0.0209961, -0.0336914, 67.4390259, -26.4024391, 2.1341465, -0.0466621
-1.003418, 0.0151367, -0.0234375, 68.4146347, -27.4390259, 2.1341465, -0.042298
-0.9995117, 0.0112305, -0.0195312, 69.5121994, -27.8658543, 2.7439024, -0.0443122
-0.9916992, 0.0102539, -0.0053711, 69.6951218, -27.9878063, 2.804878, -0.0527047
-0.9936523, 0.0083008, -0.0048828, 71.3414688, -28.1097565, 3.1097562, -0.056733
-0.9916992, 0.0014648, 0.0004883, 71.8902435, -28.6585369, 3.2317073, -0.066804
-0.9926758, 0.0004883, 0.0043945, 73.2317123, -28.9634151, 3.9024391, -0.0788891
-0.9975586, 0.0112305, -0.0014648, 73.6585388, -29.3292694, 4.0243902, -0.0835889
-0.9936523, 0.0200195, -0.003418, 74.6341476, -28.9634151, 4.6341462, -0.0822461
-0.9902344, 0.0395508, -0.0161133, 74.9390259, -28.5975609, 5, -0.0741894
-0.9868164, 0.0688477, -0.019043, 75.18293, -28.5365868, 5.4268293, -0.0610971
-0.9833984, 0.0844727, -0.0180664, 74.4512177, -28.3536587, 5.4268293, -0.0543832
-0.9726562, 0.1191406, -0.0131836, 72.9268341, -28.1707325, 5.5487804, -0.0439765
-0.9750977, 0.1367188, -0.0112305, 70.6707306, -27.560976, 4.390244, -0.0382696
-0.9638672, 0.1494141, -0.0063477, 69.2073212, -27.3780499, 3.7804878, -0.0339055
-0.9624023, 0.1547852, -0.0112305, 66.8902435, -27.0121956, 2.5, -0.0298772
-0.9521484, 0.1552734, -0.0126953, 65.5487823, -27.0731716, 1.7073171, -0.0292058
-0.9521484, 0.1513672, -0.0126953, 62.7439041, -26.3414631, 0.3048781, -0.0298772
-0.9448242, 0.1396484, -0.0131836, 61.341465, -25.8536587, -0.3048781, -0.0271916
-0.940918, 0.1308594, -0.0170898, 58.2317085, -23.9024391, -0.5487805, -0.03122
-0.940918, 0.1186523, -0.0244141, 57.0731735, -23.1707325, -0.6097561, -0.0352483
-0.940918, 0.1030273, -0.0327148, 54.8170738, -22.0731716, -1.3414634, -0.0369268
-0.9458008, 0.0957031, -0.0341797, 54.0243912, -21.7682934, -1.7073171, -0.0399481
-0.9541016, 0.0952148, -0.043457, 52.6829262, -21.4024391, -2.8658538, -0.0439765
-0.9584961, 0.0917969, -0.0419922, 51.8292694, -20.6707325, -3.3536587, -0.0459907
-0.9619141, 0.0830078, -0.0424805, 51.2804909, -20.4268303, -3.5975611, -0.0459907
-0.9692383, 0.0825195, -0.0410156, 50, -20.3658543, -4.0243902, -0.0486763
-0.9780273, 0.0854492, -0.0405273, 49.4512215, -20.4268303, -4.0243902, -0.0520333
-0.9814453, 0.0844727, -0.0405273, 48.4756126, -20.7317085, -4.2682929, -0.0540475
-0.9873047, 0.0878906, -0.0371094, 48.2926826, -20.7317085, -4.3292685, -0.0547189
-1.0019531, 0.1015625, -0.0424805, 48.841465, -21.4024391, -4.5731707, -0.0500191
-1.0048828, 0.1137695, -0.0512695, 48.7804871, -22.0121956, -4.9390244, -0.0527047
-1.0043945, 0.1420898, -0.065918, 48.9634171, -22.6219521, -5.3658538, -0.0574044
-1.0039062, 0.1557617, -0.0693359, 48.3536606, -23.1097565, -5.4878049, -0.056733
-0.9960938, 0.1733398, -0.0615234, 46.4024391, -23.9634151, -6.0975609, -0.0533761
-0.9951172, 0.1855469, -0.0527344, 43.7195129, -24.9390259, -6.7073174, -0.0540475
-0.9819336, 0.1870117, -0.0351562, 42.6829262, -25.3658543, -6.9512196, -0.0486763
-0.9711914, 0.1865234, -0.0283203, 41.0365868, -25.9146347, -7.5609756, -0.0500191
-0.9506836, 0.1586914, -0.019043, 40.3048782, -25.7317085, -7.7439027, -0.0463264
-0.9399414, 0.1376953, -0.0136719, 38.4146347, -25.060976, -8.2926826, -0.0433051
-0.9208984, 0.0961914, -0.0166016, 37.5609779, -25.060976, -8.2317076, -0.0486763
-0.9072266, 0.0415039, -0.0092773, 36.1585388, -24.0243912, -8.4756098, -0.0469978
-0.9008789, 0.019043, -0.0048828, 35.9756088, -23.5975609, -8.2926826, -0.0473335
-0.894043, -0.0205078, 0.0058594, 36.5853653, -23.0487804, -7.7439027, -0.0486763
-0.8945312, -0.0361328, 0.012207, 37.0121956, -22.439024, -7.3170733, -0.0513619
-0.9003906, -0.0546875, 0.0219727, 39.0243912, -21.280489, -6.8292685, -0.0500191
-0.9033203, -0.0551758, 0.0253906, 41.341465, -20.1219521, -6.5243902, -0.0466621
-0.9086914, -0.0478516, 0.0317383, 42.2560997, -19.8780499, -6.280488, -0.0459907
-0.9179688, -0.0332031, 0.03125, 44.4512215, -18.7195129, -6.0365853, -0.0433051
-0.9204102, 0.0053711, 0.0371094, 45.5487823, -18.2317085, -5.8536587, -0.0473335
-0.9204102, 0.0258789, 0.0424805, 46.4634171, -17.1341476, -4.8780489, -0.0449836
-0.9238281, 0.065918, 0.0507812, 46.2195129, -16.4634151, -4.6951222, -0.0426337
-0.9204102, 0.1049805, 0.0507812, 45.0609779, -13.6585369, -4.5731707, -0.0409552
-0.9194336, 0.1206055, 0.046875, 44.5121956, -12.3170738, -4.6341462, -0.0412909
-0.9174805, 0.1367188, 0.0439453, 42.5, -9.2682924, -4.6341462, -0.0419623
-0.9140625, 0.1347656, 0.0410156, 40.9756088, -8.3536587, -4.8170733, -0.0392767
-0.9130859, 0.1191406, 0.0361328, 37.8048782, -6.7073174, -5.1219511, -0.0419623
-0.9111328, 0.1035156, 0.0341797, 34.8780479, -5.5487804, -5.3048782, -0.0386053
-0.9106445, 0.074707, 0.0410156, 33.841465, -4.8780489, -5, -0.0386053
-0.9052734, 0.0571289, 0.0463867, 32.7439041, -3.8414636, -4.2073174, -0.0439765
-0.9038086, 0.034668, 0.0595703, 32.3170738, -2.8658538, -3.8414636, -0.0436408
-0.90625, 0.0273438, 0.0625, 32.9878044, -1.097561, -2.8658538, -0.0473335
-0.9018555, 0.0297852, 0.0654297, 33.6585388, -0.2439024, -2.1341465, -0.0486763
-0.8950195, 0.0458984, 0.0708008, 35.1829262, 1.5853659, -1.402439, -0.0463264
-0.9003906, 0.0634766, 0.0742188, 35.7926826, 2.5, -1.7682927, -0.0473335
-0.8876953, 0.0908203, 0.0722656, 36.341465, 4.2073174, -1.8292683, -0.0473335
-0.8935547, 0.105957, 0.0698242, 36.0975609, 5.3048782, -2.3170731, -0.0459907
-0.8989258, 0.1318359, 0.065918, 35.0609779, 7.1951222, -2.5609756, -0.0459907
-0.8984375, 0.1381836, 0.0649414, 32.7439041, 8.780488, -2.4390244, -0.0446479
-0.8999023, 0.1469727, 0.0654297, 31.2195129, 9.9390249, -2.3170731, -0.0453193
-0.9018555, 0.144043, 0.0620117, 28.2317085, 11.5853662, -1.7682927, -0.0480049
-0.9008789, 0.1333008, 0.059082, 26.7073174, 12.9878054, -1.5853659, -0.0506905
-0.8969727, 0.1269531, 0.059082, 24.5731716, 15, -1.0365853, -0.0513619
-0.894043, 0.105957, 0.0629883, 23.3536587, 15.9756098, -1.0365853, -0.0486763
-0.8955078, 0.0825195, 0.0668945, 21.8292694, 17.6219521, -1.0365853, -0.0459907
-0.8925781, 0.0732422, 0.0673828, 21.4634151, 18.1707325, -0.6707317, -0.0399481
-0.8935547, 0.0620117, 0.0629883, 20.9756107, 19.1463413, -0.1219512, -0.0426337
-0.8876953, 0.0556641, 0.0576172, 20.9146347, 19.939024, 0.1829268, -0.0439765
-0.8823242, 0.0610352, 0.0522461, 21.4024391, 21.1585369, 1.3414634, -0.0473335
-0.8798828, 0.0629883, 0.046875, 20.9756107, 21.7682934, 2.804878, -0.0463264
-0.8701172, 0.059082, 0.0395508, 21.2195129, 22.0731716, 3.4756098, -0.0386053
-0.8671875, 0.0595703, 0.0356445, 20.4268303, 22.1951218, 4.4512196, -0.0365911
-0.8549805, 0.0600586, 0.0214844, 20.1219521, 22.3780499, 5.1219511, -0.0379339
-0.8466797, 0.0605469, 0.0170898, 19.5121956, 22.6829281, 5.9146342, -0.0386053
-0.8466797, 0.0634766, 0.0141602, 19.2073174, 23.7195129, 5.9146342, -0.0379339
-0.8486328, 0.0703125, 0.0068359, 19.1463413, 25.1829281, 6.1585369, -0.0392767
-0.8530273, 0.0742188, -0.003418, 18.9634151, 25.7926826, 6.3414636, -0.0419623
-0.8544922, 0.0869141, -0.019043, 18.2926826, 26.4024391, 6.280488, -0.0433051
-0.8598633, 0.09375, -0.0244141, 17.6219521, 26.4634151, 6.1585369, -0.0433051
-0.8676758, 0.105957, -0.0332031, 15, 25.9146347, 6.0365853, -0.0463264
-0.8769531, 0.1142578, -0.0356445, 12.0121956, 26.1585369, 6.4024391, -0.0473335
-0.8837891, 0.1376953, -0.0356445, 10.3658543, 26.4634151, 6.5853658, -0.0446479
-0.8847656, 0.1430664, -0.0395508, 6.5243902, 27.3780499, 7.2560978, -0.0412909
-0.8862305, 0.152832, -0.0429688, 5, 27.6219521, 7.4390244, -0.0419623
-0.8793945, 0.1557617, -0.0449219, 2.1341465, 28.9024391, 7.0731707, -0.0419623
-0.8774414, 0.1552734, -0.0449219, 0.8536586, 28.9024391, 6.4024391, -0.0386053
-0.8818359, 0.1445312, -0.0458984, -1.097561, 28.0487804, 4.8780489, -0.0399481
-0.887207, 0.128418, -0.0385742, -1.5853659, 27.5, 3.7804878, -0.0392767
-0.8999023, 0.1088867, -0.0297852, -1.8902439, 25.3658543, 2.9268293, -0.0365911
-0.90625, 0.1054688, -0.0229492, -1.2804878, 24.3292694, 2.6219513, -0.0365911
-0.9199219, 0.0908203, -0.0200195, 1.1585366, 21.8292694, 2.1341465, -0.0406195
-0.9282227, 0.0961914, -0.0258789, 4.2073174, 20, 2.3780489, -0.0412909
-0.9394531, 0.1166992, -0.0483398, 5.670732, 19.0243912, 2.3170731, -0.0406195
-0.9482422, 0.1323242, -0.0571289, 7.4390244, 17.439024, 2.5, -0.0446479
-0.9545898, 0.1679688, -0.0839844, 7.4390244, 16.4634151, 2.3170731, -0.0446479
-0.9560547, 0.1850586, -0.0947266, 6.280488, 14.2073174, 2.3780489, -0.0433051
-0.9555664, 0.2124023, -0.1166992, 5.1219511, 13.4756098, 1.6463414, -0.0433051
-0.9521484, 0.2241211, -0.1337891, 2.9878049, 11.0365858, 1.402439, -0.0419623
-0.9506836, 0.2236328, -0.1357422, 1.5243902, 9.8170738, 1.0365853, -0.0392767
-0.9438477, 0.2016602, -0.1396484, -1.402439, 6.7682929, 0.3048781, -0.0386053
-0.9433594, 0.1865234, -0.1357422, -2.9268293, 5.1829271, -0.1829268, -0.0382696
-0.9458008, 0.1455078, -0.1259766, -5.4878049, 2.2560976, -1.1585366, -0.0386053
-0.949707, 0.128418, -0.1201172, -6.0975609, 0.7926829, -2.3780489, -0.0406195
-0.9580078, 0.090332, -0.1020508, -6.280488, 0.3048781, -2.7439024, -0.0449836
-0.9682617, 0.0805664, -0.0932617, -5.5487804, -0.7926829, -3.2317073, -0.0486763
-0.9907227, 0.0673828, -0.0839844, -4.6341462, -1.1585366, -3.3536587, -0.0527047
-1.0068359, 0.065918, -0.0795898, -3.1707318, -1.8292683, -3.2926829, -0.0580758
-1.019043, 0.0605469, -0.0810547, -2.5, -2.0121951, -3.4146342, -0.0580758
-1.0327148, 0.0742188, -0.0839844, -1.402439, -3.0487804, -3.2926829, -0.0621042
-1.0395508, 0.081543, -0.0830078, -0.7926829, -4.0243902, -3.2926829, -0.0621042
-1.0429688, 0.09375, -0.0913086, -0.3658537, -5.1829271, -3.3536587, -0.0651255
-1.0439453, 0.1020508, -0.0908203, -0.0609756, -5.7926831, -2.9878049, -0.0641184
-1.0390625, 0.1166992, -0.0947266, -0.4878049, -6.0365853, -2.5, -0.0621042
-1.0341797, 0.1220703, -0.0966797, -1.5243902, -6.9512196, -1.7073171, -0.0530404
-1.0292969, 0.125, -0.0888672, -2.3780489, -7.5609756, -1.3414634, -0.0500191
-1.0234375, 0.1220703, -0.0844727, -4.2073174, -8.6585369, -0.7926829, -0.0386053
-1.0083008, 0.1166992, -0.0708008, -4.7560978, -9.1463413, -0.5487805, -0.0288701
-1.0029297, 0.1132812, -0.0654297, -5.5487804, -9.5121956, -0.4878049, -0.0221561
-0.996582, 0.1010742, -0.0415039, -6.0975609, -9.5121956, -0.3658537, -0.0251774
-0.9892578, 0.0878906, -0.0249023, -7.1951222, -9.8780489, -0.6097561, -0.0181277
-0.987793, 0.0771484, -0.0185547, -7.4390244, -9.6951218, -0.6707317, -0.0164492
-0.9936523, 0.0688477, -0.0107422, -8.0487804, -9.2073174, -0.5487805, -0.0191348
-0.9931641, 0.0581055, -0.0058594, -7.6829271, -8.5365858, -0.4268293, -0.0191348
-1.0068359, 0.0532227, -0.0117188, -7.3780489, -8.2926826, -0.4878049, -0.0231632
-1.0151367, 0.0522461, -0.015625, -6.7682929, -7.8048782, 0.4268293, -0.0271916
-1.0273438, 0.0512695, -0.0209961, -6.5853658, -7.5, 0.9756098, -0.0345769
-1.0292969, 0.0498047, -0.0170898, -7.9268293, -7.5609756, 2.2560976, -0.0382696
-1.0361328, 0.050293, -0.0058594, -8.5975609, -7.5609756, 3.1097562, -0.0453193
-1.0351562, 0.0512695, 0.0048828, -9.5121956, -6.9512196, 4.390244, -0.0466621
-1.0273438, 0.0473633, 0.015625, -9.4512196, -6.6463418, 4.8780489, -0.0453193
-1.0195312, 0.0488281, 0.0214844, -9.3902445, -5.5487804, 5.3658538, -0.0513619
-1.015625, 0.0517578, 0.0180664, -9.3902445, -4.390244, 5.670732, -0.0520333
-1.0136719, 0.050293, 0.0043945, -8.3536587, -2.804878, 6.5853658, -0.0500191
-1.0136719, 0.0473633, -0.0024414, -7.3780489, -2.1341465, 7.6219516, -0.0506905
-1.0146484, 0.0561523, -0.0087891, -7.1341467, -1.9512196, 8.2926826, -0.0527047
-1.0087891, 0.0625, -0.0117188, -7.6829271, -1.6463414, 8.719512, -0.0540475
-1.0058594, 0.0908203, -0.003418, -8.2926826, -1.3414634, 9.0243902, -0.0516976
-1.003418, 0.105957, -0.0039062, -8.9634151, 0.4268293, 8.780488, -0.0543832
-1.0048828, 0.1376953, -0.0048828, -9.4512196, 1.1585366, 8.841464, -0.0527047
-1.0053711, 0.1586914, -0.0087891, -10, 1.8902439, 8.5975609, -0.0500191
-1.0068359, 0.1845703, -0.0288086, -11.219512, 2.195122, 8.1097565, -0.0540475
-1.0029297, 0.1987305, -0.0454102, -14.8780489, 2.2560976, 7.8658538, -0.0621042
-1.0014648, 0.2001953, -0.0507812, -16.8902435, 2.4390244, 7.5609756, -0.0664683
-1.0004883, 0.1987305, -0.0537109, -21.8292694, 2.5609756, 6.8292685, -0.0755322
-1.0039062, 0.190918, -0.0571289, -25.7317085, 2.9268293, 6.1585369, -0.0741894
-1.0073242, 0.1762695, -0.0546875, -27.0121956, 3.1707318, 5.609756, -0.0718395
-1.0083008, 0.1645508, -0.0522461, -29.8780499, 3.3536587, 5.3658538, -0.070161
-1.0053711, 0.144043, -0.0458984, -31.0975609, 3.3536587, 5.3048782, -0.0654612
-1.0019531, 0.137207, -0.0473633, -32.9878044, 3.8414636, 5.4268293, -0.06009
-0.9985352, 0.1186523, -0.0463867, -33.4146347, 4.1463413, 5.3048782, -0.0459907
-0.9985352, 0.1069336, -0.0444336, -34.3902435, 4.390244, 5.0609756, -0.0325628
-0.996582, 0.0986328, -0.0454102, -34.5731697, 4.7560978, 4.8170733, -0.0191348
-0.9892578, 0.0947266, -0.0493164, -34.3292694, 5.1219511, 4.9390244, -0.0140993
-0.9848633, 0.0927734, -0.0488281, -34.1463432, 5.3658538, 4.8170733, -0.014435
-0.9804688, 0.0966797, -0.0532227, -34.0853653, 5.9146342, 5.1829271, -0.0130922
-0.9775391, 0.1064453, -0.0546875, -34.3902435, 6.0975609, 5.1829271, -0.0157778
-0.9741211, 0.1108398, -0.0581055, -34.8780479, 6.280488, 5, -0.021149
-0.9716797, 0.1210938, -0.0546875, -35.7926826, 6.4024391, 4.3292685, -0.024506
-0.9707031, 0.1254883, -0.0507812, -36.0975609, 6.280488, 4.4512196, -0.0305486
-0.96875, 0.1274414, -0.0493164, -37.1341476, 6.5243902, 3.9634147, -0.0305486
-0.9682617, 0.1308594, -0.0458984, -37.5, 6.3414636, 3.8414636, -0.03122
-0.9682617, 0.1274414, -0.0449219, -38.3536606, 6.890244, 3.4756098, -0.0305486
-0.9716797, 0.1220703, -0.050293, -38.7195129, 6.7682929, 3.5975611, -0.027863
-0.9780273, 0.1025391, -0.046875, -39.0853653, 7.3170733, 3.2926829, -0.0308843
-0.9726562, 0.0957031, -0.0493164, -39.5121956, 7.0731707, 3.4146342, -0.0332341
-0.9775391, 0.0839844, -0.0585938, -39.4512215, 6.9512196, 3.2317073, -0.0352483
-0.9770508, 0.0751953, -0.0581055, -39.7560997, 6.5243902, 3.5975611, -0.0302129
-0.9785156, 0.0581055, -0.0683594, -39.3292694, 6.4024391, 3.5975611, -0.0352483
-0.9760742, 0.0556641, -0.0688477, -38.7804871, 5.8536587, 4.0243902, -0.0339055
-0.9736328, 0.046875, -0.0805664, -38.1707344, 5.4268293, 4.1463413, -0.0386053
-0.9672852, 0.0458984, -0.0820312, -36.8292694, 4.5121951, 4.1463413, -0.0379339
-0.972168, 0.0537109, -0.0810547, -36.5853653, 4.0243902, 4.0853658, -0.0419623
-0.9677734, 0.0673828, -0.0771484, -35.1829262, 3.1707318, 4.0243902, -0.0433051
-0.9658203, 0.0751953, -0.0732422, -34.9390259, 2.9268293, 4.0853658, -0.0436408
-0.9580078, 0.0961914, -0.0693359, -34.4512215, 2.2560976, 3.8414636, -0.0466621
-0.9594727, 0.1025391, -0.0698242, -34.5731697, 2.0121951, 3.5975611, -0.0439765
-0.9516602, 0.1147461, -0.0668945, -35.0609779, 1.7682927, 3.0487804, -0.0446479
-0.9511719, 0.1152344, -0.0664062, -35.5487823, 1.4634147, 1.8902439, -0.0433051
-0.9516602, 0.1171875, -0.0639648, -35.7926826, 0.9146342, 1.4634147, -0.0459907
-0.9555664, 0.1137695, -0.0595703, -36.5853653, 0.3048781, 1.1585366, -0.0439765
-0.9526367, 0.1118164, -0.0605469, -37.3170738, 0.1829268, 1.1585366, -0.0459907
-0.9550781, 0.1103516, -0.0546875, -39.1463432, -0.4268293, 0.9756098, -0.0480049
-0.9443359, 0.1030273, -0.0498047, -40.3658562, -0.6707317, 1.0365853, -0.0459907
-0.9350586, 0.0981445, -0.0439453, -42.0731735, -1.1585366, 0, -0.0459907
-0.9379883, 0.0981445, -0.0395508, -42.3780479, -1.1585366, -0.3658537, -0.0459907
-0.9423828, 0.0961914, -0.0375977, -43.7804871, -0.9756098, -0.8536586, -0.0459907
-0.9399414, 0.1005859, -0.0317383, -44.1463432, -1.2195122, -0.9146342, -0.0459907
-0.9414062, 0.1040039, -0.0151367, -46.0365868, -0.9756098, -0.9146342, -0.0433051
-0.9389648, 0.1040039, -0.0107422, -47.5, -0.3048781, -1.0365853, -0.0433051
-0.9375, 0.1020508, 0.0029297, -48.3536606, 0.1829268, -1.1585366, -0.0453193
-0.9414062, 0.0996094, 0.0083008, -48.2317085, 1.4634147, -2.2560976, -0.0453193
-0.9526367, 0.0942383, 0.0063477, -47.9878044, 2.1341465, -2.6219513, -0.0439765
-0.9541016, 0.0844727, 0.0014648, -47.1951218, 2.6829269, -2.8658538, -0.0459907
-0.9614258, 0.074707, -0.0087891, -47.1341476, 2.9268293, -2.7439024, -0.0433051
-0.9702148, 0.0595703, -0.0180664, -47.6829262, 3.2317073, -1.9512196, -0.0476692
-0.9755859, 0.0507812, -0.0200195, -48.0487823, 3.4756098, -1.8292683, -0.0449836
-0.9775391, 0.0385742, -0.0244141, -49.1463432, 4.1463413, -1.1585366, -0.0486763
-0.987793, 0.0380859, -0.0263672, -49.5121956, 4.7560978, -0.7926829, -0.0446479
-0.9858398, 0.0375977, -0.0292969, -49.4512215, 5.2439027, -0.3658537, -0.052369
-0.9912109, 0.0454102, -0.0302734, -48.5365868, 5.8536587, 0.3048781, -0.06009
-0.9863281, 0.0615234, -0.0444336, -48.2317085, 5.3658538, 0.4878049, -0.0580758
-0.9853516, 0.0698242, -0.0581055, -48.7195129, 5.3658538, 0.7317073, -0.056733
-0.9780273, 0.0830078, -0.0717773, -49.5731735, 5.1829271, 0.7926829, -0.0486763
-0.9731445, 0.090332, -0.0742188, -51.341465, 4.390244, 0.7317073, -0.0419623
-0.9677734, 0.0878906, -0.0820312, -52.7439041, 4.1463413, 0.3048781, -0.0298772
-0.9594727, 0.090332, -0.078125, -54.8170738, 3.2926829, 0.1829268, -0.024506
-0.9575195, 0.0869141, -0.0751953, -55.18293, 2.804878, 0, -0.024506
-0.9575195, 0.081543, -0.0805664, -56.4634171, 2.5, -0.0609756, -0.027863
-0.9609375, 0.0800781, -0.0786133, -56.7682953, 2.5609756, -0.1829268, -0.027863
-0.9624023, 0.0610352, -0.0878906, -57.4390259, 2.1341465, -0.3048781, -0.0265202
-0.9589844, 0.0527344, -0.0844727, -58.1707344, 1.7682927, -0.6707317, -0.0325628
-0.972168, 0.046875, -0.0854492, -58.4756126, 1.4634147, -0.7317073, -0.0318914
-0.9731445, 0.0395508, -0.0810547, -58.5365868, 0.6097561, -1.3414634, -0.0318914
-0.9907227, 0.0439453, -0.0756836, -58.4146347, 0.1219512, -1.6463414, -0.0298772
-0.9985352, 0.0463867, -0.0712891, -57.9878044, -0.9756098, -1.8292683, -0.0302129
-1.0136719, 0.0507812, -0.0639648, -57.6219521, -1.1585366, -2.1341465, -0.0345769
-1.0317383, 0.0556641, -0.0654297, -57.5609779, -1.6463414, -1.7073171, -0.0335698
-1.0351562, 0.0576172, -0.0678711, -57.2560997, -1.9512196, -1.4634147, -0.0339055
-1.050293, 0.0561523, -0.0644531, -58.0487823, -2.6829269, -1.097561, -0.0352483
-1.0522461, 0.0546875, -0.0595703, -58.7195129, -2.9268293, -0.7926829, -0.0406195
-1.0620117, 0.0498047, -0.0454102, -60, -3.4756098, -0.3048781, -0.0399481
-1.0649414, 0.043457, -0.0429688, -59.8170738, -2.9268293, -0.2439024, -0.0359197
-1.0693359, 0.027832, -0.0375977, -58.9024391, -2.8658538, 0, -0.035584
-1.0703125, 0.0185547, -0.0415039, -56.341465, -2.7439024, 0.3658537, -0.035584
-1.0805664, 0.0112305, -0.0571289, -54.9390259, -2.6829269, 0.5487805, -0.0379339
-1.0786133, 0.0141602, -0.0620117, -53.5975609, -3.2926829, 1.2804878, -0.0352483
-1.0722656, 0.0229492, -0.0668945, -52.9268303, -3.2926829, 1.5853659, -0.0352483
-1.0683594, 0.0375977, -0.0664062, -53.0487823, -3.2317073, 2.0731707, -0.0392767
-1.0629883, 0.0463867, -0.0600586, -52.1341476, -3.2317073, 2.3170731, -0.0433051
-1.0581055, 0.0717773, -0.0581055, -51.4024391, -2.9268293, 1.9512196, -0.0446479
-1.059082, 0.0869141, -0.0571289, -51.2195129, -2.6219513, 1.6463414, -0.0439765
-1.0532227, 0.1147461, -0.0693359, -51.0365868, -2.3170731, 0, -0.0453193
-1.0532227, 0.1274414, -0.0727539, -52.1951218, -2.2560976, -1.4634147, -0.0493477
-1.0581055, 0.1494141, -0.0820312, -53.3536606, -2.3170731, -1.8902439, -0.0520333
-1.0595703, 0.1572266, -0.0839844, -56.0975609, -2.0731707, -3.1707318, -0.0513619
-1.0625, 0.1621094, -0.0776367, -57.8048782, -2.3170731, -3.5975611, -0.0520333
-1.0629883, 0.1611328, -0.0776367, -60.6707344, -1.8902439, -4.9390244, -0.0506905
-1.0698242, 0.1499023, -0.0722656, -61.7682953, -2.0121951, -5.4878049, -0.0459907
-1.0761719, 0.1337891, -0.0678711, -64.3902435, -1.8902439, -6.6463418, -0.0426337
-1.078125, 0.1220703, -0.0664062, -65.1219559, -1.7682927, -7.6829271, -0.0453193
-1.0834961, 0.0991211, -0.0620117, -66.7073212, -1.5853659, -8.4146347, -0.0459907
-1.0839844, 0.0844727, -0.059082, -67.5, -1.4634147, -8.841464, -0.0473335
-1.0898438, 0.0654297, -0.0566406, -69.0243912, -1.7682927, -9.2073174, -0.0453193
-1.0913086, 0.0556641, -0.0517578, -69.9390259, -1.2195122, -9.2073174, -0.0446479
-1.0927734, 0.0449219, -0.0356445, -69.6951218, -1.2804878, -9.1463413, -0.0459907
-1.0908203, 0.0400391, -0.0327148, -68.7804871, -1.0365853, -9.2682924, -0.0476692
-1.0859375, 0.0336914, -0.0336914, -68.0487823, -0.5487805, -9.3902445, -0.0459907
-1.0834961, 0.034668, -0.0356445, -66.6463394, -0.1219512, -9.2682924, -0.0486763
-1.0878906, 0.0292969, -0.0458984, -66.5243912, -0.0609756, -9.2073174, -0.0486763
-1.0859375, 0.019043, -0.0605469, -66.6463394, -0.4878049, -9.5121956, -0.0473335
-1.0883789, 0.0141602, -0.0664062, -66.9512177, -0.5487805, -9.6341467, -0.0473335
-1.09375, 0.0083008, -0.0761719, -66.4024429, -1.0365853, -9.7560978, -0.0486763
-1.0922852, 0.0102539, -0.0834961, -65.9756088, -0.9146342, -9.6951218, -0.0433051
-1.1025391, 0.0166016, -0.0957031, -64.5731735, -1.0365853, -9.5121956, -0.0406195
-1.1083984, 0.0244141, -0.1010742, -63.841465, -1.5243902, -8.6585369, -0.0419623
-1.1054688, 0.0380859, -0.1049805, -64.2073212, -1.8902439, -8.2926826, -0.0379339
-1.1020508, 0.0385742, -0.1044922, -65, -3.2317073, -8.4146347, -0.0406195
-1.0961914, 0.0522461, -0.1132812, -65.18293, -4.2073174, -8.2317076, -0.0433051
-1.0888672, 0.059082, -0.1176758, -64.7560959, -5.3048782, -8.2317076, -0.0406195
-1.0722656, 0.0727539, -0.1181641, -65.3658524, -5.1829271, -8.5975609, -0.0392767
-1.0737305, 0.0922852, -0.1010742, -67.3780518, -4.5121951, -9.0243902, -0.0412909
-1.0791016, 0.0961914, -0.0932617, -68.9024429, -3.7804878, -9.6341467, -0.0419623
-1.0898438, 0.0986328, -0.0800781, -71.5853653, -2.9878049, -10.7317076, -0.0419623
-1.1010742, 0.0922852, -0.0805664, -72.8048782, -2.9878049, -11.341464, -0.0439765
-1.1079102, 0.0820312, -0.081543, -72.6219559, -3.1097562, -11.219512, -0.0473335
-1.1074219, 0.0732422, -0.0883789, -72.8048782, -3.8414636, -10.6097565, -0.0459907
-1.1030273, 0.0537109, -0.1049805, -73.0487823, -4.2682929, -10.4878054, -0.0473335
-1.0961914, 0.0449219, -0.1064453, -74.2682953, -4.390244, -10.4268293, -0.0439765
-1.090332, 0.0170898, -0.1064453, -74.5731735, -4.2682929, -10.3048782, -0.0439765
-1.0893555, 0.012207, -0.1020508, -75, -4.4512196, -10.2439022, -0.0453193
-1.0888672, -0.0004883, -0.0908203, -74.8780518, -4.6951222, -10.2439022, -0.0486763
-1.0830078, -0.0058594, -0.0908203, -73.5975647, -4.6951222, -9.9390249, -0.0473335
-1.0825195, -0.0029297, -0.0888672, -72.9268341, -4.9390244, -9.3902445, -0.0466621
-1.0791016, 0.0024414, -0.0888672, -71.2195129, -5.9756098, -9.0243902, -0.0459907
-1.074707, 0.003418, -0.0922852, -69.8170776, -6.5853658, -8.4756098, -0.0486763
-1.0703125, 0.0166016, -0.0927734, -69.3292694, -6.6463418, -8.4756098, -0.0500191
-1.0678711, 0.0151367, -0.0893555, -68.5975647, -6.7073174, -9.0853662, -0.049012
-1.0732422, 0.0214844, -0.0874023, -67.9878082, -6.4634147, -9.8170738, -0.0486763
-1.0756836, 0.0229492, -0.0795898, -67.3780518, -6.1585369, -10.5487804, -0.0527047
-1.0966797, 0.0224609, -0.0795898, -66.7682953, -6.2195125, -10.7926836, -0.0580758
-1.1044922, 0.0131836, -0.081543, -65.4878082, -6.890244, -10.9146347, -0.0580758
-1.1137695, 0.0131836, -0.0947266, -65, -7.1341467, -10.7317076, -0.0553902
-1.1176758, -0.0009766, -0.1005859, -63.841465, -7.9878049, -9.6341467, -0.0540475
-1.112793, -0.0083008, -0.1079102, -63.5975609, -8.6585369, -9.1463413, -0.0513619
-1.1030273, -0.0043945, -0.1103516, -62.68293, -9.0243902, -8.2317076, -0.0553902
-1.0961914, -0.0053711, -0.1113281, -61.7073174, -9.1463413, -7.9268293, -0.056733
-1.0869141, 0.0073242, -0.1118164, -61.1585388, -9.3902445, -7.8658538, -0.0520333
-1.0805664, 0.015625, -0.1108398, -60.18293, -9.8170738, -7.7439027, -0.0527047
-1.0664062, 0.0297852, -0.1206055, -60.0609779, -10.1829271, -7.7439027, -0.0513619
-1.0585938, 0.0351562, -0.1235352, -60.6707344, -10.4878054, -7.5609756, -0.0527047
-1.0512695, 0.0336914, -0.1279297, -61.4024391, -10.6707315, -8.1097565, -0.0453193
-1.046875, 0.0292969, -0.128418, -63.0487823, -11.219512, -8.3536587, -0.0365911
-1.0385742, 0.0253906, -0.1171875, -63.5975609, -11.4634151, -8.5365858, -0.0339055
-1.0356445, 0.0151367, -0.0952148, -64.3292694, -11.6463413, -9.1463413, -0.0298772
-1.0380859, 0.0166016, -0.0830078, -64.3902435, -11.4634151, -9.0853662, -0.0238346
-1.0400391, 0.0092773, -0.0654297, -64.3292694, -11.6463413, -8.9634151, -0.0204776
-1.0415039, 0.0087891, -0.059082, -63.4146347, -11.4634151, -9.0243902, -0.0251774
-1.0390625, 0.003418, -0.0556641, -62.9268303, -11.7682934, -8.841464, -0.0298772
-1.0390625, -0.003418, -0.065918, -60.7926826, -12.9878054, -8.1097565, -0.0285344
-1.0292969, -0.0083008, -0.0927734, -59.9390259, -13.4146347, -8.1097565, -0.0288701
-1.0249023, -0.0097656, -0.105957, -58.841465, -12.560976, -8.780488, -0.0342412
-1.0390625, -0.012207, -0.1118164, -58.7195129, -11.6463413, -9.6341467, -0.0359197
-1.0556641, -0.0112305, -0.1069336, -58.5365868, -10.3658543, -10.6707315, -0.0325628
-1.097168, -0.0117188, -0.0952148, -58.7804909, -10.2439022, -10.7317076, -0.0305486
-1.1230469, -0.0170898, -0.0898438, -57.8658562, -10.4268293, -9.2682924, -0.03122
-1.128418, -0.0205078, -0.0883789, -56.8902435, -11.1585369, -7.8658538, -0.0325628
-1.1137695, -0.0263672, -0.0917969, -55.2439041, -12.5, -4.9390244, -0.0339055
-1.0991211, -0.0351562, -0.0981445, -54.3292694, -13.1707315, -3.1097562, -0.03122
-1.0654297, -0.0375977, -0.0981445, -53.9024391, -13.2926836, -2.7439024, -0.035584
-1.0527344, -0.0424805, -0.0942383, -53.5975609, -12.9878054, -2.6829269, -0.0342412
-1.0361328, -0.0400391, -0.0893555, -53.4756126, -13.0487804, -2.3780489, -0.0328985
-1.0292969, -0.0327148, -0.0844727, -52.5, -12.3170738, -1.2804878, -0.0325628
-1.0131836, -0.0151367, -0.078125, -52.4390259, -12.1951218, -0.6097561, -0.0352483
-1.003418, -0.0063477, -0.074707, -51.9512215, -11.8292685, -0.0609756, -0.0339055
-0.987793, 0.0068359, -0.0732422, -51.8292694, -11.6463413, 0.1829268, -0.0325628
-0.9863281, 0.0244141, -0.0722656, -52.5, -10.8536587, 0.3048781, -0.03122
-0.9897461, 0.0268555, -0.0708008, -53.1097565, -10.5487804, -0.1829268, -0.0292058
-0.9941406, 0.0341797, -0.0654297, -54.2073174, -10.1219511, -0.9146342, -0.03122
-0.9980469, 0.0302734, -0.0615234, -55, -9.3902445, -1.1585366, -0.0359197
-1.0073242, 0.0239258, -0.0566406, -55.9146347, -9.2073174, -1.0365853, -0.0419623
-1.0102539, 0.0180664, -0.0566406, -56.2804909, -8.9634151, 0.1219512, -0.0409552
-1.0053711, 0.0073242, -0.0551758, -56.4634171, -8.6585369, 0.4878049, -0.0439765
-1.0009766, -0.0004883, -0.0541992, -56.2804909, -8.2926826, 1.8292683, -0.0419623
-0.9995117, -0.012207, -0.0512695, -55.8536606, -8.1097565, 2.195122, -0.0419623
-0.9892578, -0.0239258, -0.0478516, -54.8780518, -7.6219516, 2.9268293, -0.0439765
-0.9863281, -0.0263672, -0.0532227, -53.841465, -7.1341467, 3.2926829, -0.0500191
-0.9785156, -0.0332031, -0.0576172, -52.5609779, -6.5243902, 3.2317073, -0.0520333
-0.9829102, -0.0366211, -0.0644531, -51.9512215, -6.4024391, 3.1707318, -0.0594186
-0.9819336, -0.0385742, -0.0786133, -50.5487823, -6.5853658, 3.7195122, -0.0570687
-0.9848633, -0.0429688, -0.0844727, -49.6951218, -6.1585369, 4.5731707, -0.0577401
-0.9824219, -0.0478516, -0.09375, -49.2073174, -6.280488, 4.8780489, -0.0621042
-0.980957, -0.0527344, -0.0966797, -48.5365868, -6.4024391, 5.7317076, -0.0607614
-0.9853516, -0.059082, -0.0976562, -48.1707344, -6.2195125, 6.1585369, -0.0580758
-0.9907227, -0.0620117, -0.0961914, -46.4024391, -6.4024391, 6.280488, -0.0584115
-1.0019531, -0.0708008, -0.0947266, -45.5487823, -6.5853658, 6.3414636, -0.0580758
-1.0131836, -0.0732422, -0.0961914, -43.4756126, -7.1951222, 6.5853658, -0.056733
-1.0195312, -0.0708008, -0.09375, -42.9268303, -7.5, 6.7682929, -0.0580758
-1.0288086, -0.0600586, -0.0981445, -40.6707344, -8.4146347, 7.3170733, -0.0594186
-1.0332031, -0.0527344, -0.0991211, -39.6341476, -8.6585369, 8.1097565, -0.0553902
-1.0288086, -0.0292969, -0.1015625, -37.6219521, -9.2682924, 9.6341467, -0.0520333
-1.0292969, -0.0146484, -0.1044922, -36.2195129, -10.060976, 10.4878054, -0.0486763
-1.0239258, 0.0185547, -0.1103516, -35.7926826, -10.3048782, 10.7317076, -0.0446479
-1.0161133, 0.0366211, -0.1166992, -35.4878044, -11.0975609, 10.9756098, -0.0513619
-1.0170898, 0.0576172, -0.125, -35.7926826, -11.6463413, 10.6097565, -0.0594186
-1.0141602, 0.0620117, -0.128418, -37.2560997, -12.7439032, 9.6951218, -0.0627756
-1.0073242, 0.0678711, -0.1303711, -38.1097565, -12.9268293, 9.5121956, -0.0594186
-1.0141602, 0.0576172, -0.1220703, -40, -13.841464, 8.780488, -0.056733
-1.0175781, 0.0546875, -0.1166992, -41.1585388, -13.9634151, 8.4146347, -0.0527047
-1.0161133, 0.0366211, -0.1000977, -42.2560997, -14.0243902, 7.6829271, -0.049012
-1.015625, 0.0288086, -0.0961914, -42.6219521, -13.9024391, 7.3780489, -0.0433051
-1.0234375, 0.0092773, -0.081543, -42.9878044, -13.7195129, 7.1341467, -0.0540475
-1.0341797, -0.0014648, -0.0795898, -42.8048782, -13.5975609, 7.1951222, -0.0708324
-1.0410156, -0.015625, -0.0708008, -42.5609779, -13.2926836, 7.1951222, -0.0748608
-1.0454102, -0.0229492, -0.065918, -42.0121956, -12.9268293, 7.3780489, -0.0708324
-1.0551758, -0.027832, -0.0571289, -41.5243912, -12.8658543, 7.9268293, -0.0621042
-1.0595703, -0.027832, -0.0527344, -40.3048782, -12.5, 8.2926826, -0.0513619
-1.0595703, -0.0302734, -0.0317383, -39.5731735, -12.0731707, 8.9024391, -0.0439765
-1.0541992, -0.0361328, -0.027832, -38.1707344, -11.7682934, 9.3292685, -0.0365911
-1.0551758, -0.0410156, -0.0244141, -37.3780479, -11.6463413, 9.8170738, -0.03122
-1.0541992, -0.0507812, -0.0170898, -35.1829262, -11.0365858, 10.3048782, -0.0258488
-1.0483398, -0.0537109, -0.0151367, -34.2073174, -10.9756098, 10.4268293, -0.0285344
-1.0473633, -0.0566406, -0.015625, -32.6829262, -10.4878054, 11.4024391, -0.0258488
-1.0415039, -0.0571289, -0.0170898, -30.4878063, -9.9390249, 12.3780489, -0.03122
-1.0400391, -0.0517578, -0.0273438, -29.5731716, -9.4512196, 13.0487804, -0.0372625
-1.0341797, -0.0463867, -0.0288086, -27.6829281, -8.9024391, 13.9024391, -0.0476692
-1.0371094, -0.0336914, -0.043457, -27.0731716, -8.719512, 14.1463413, -0.0500191
-1.0410156, -0.0297852, -0.0493164, -26.2195129, -8.5365858, 14.2073174, -0.0439765
-1.0419922, -0.0117188, -0.0615234, -26.0975609, -8.2926826, 14.3292685, -0.0412909
-1.0493164, 0.0009766, -0.0727539, -26.4634151, -8.3536587, 14.3292685, -0.0409552
-1.050293, 0.0102539, -0.0737305, -26.5853672, -8.4756098, 14.6341467, -0.0433051
-1.0512695, 0.0229492, -0.0742188, -27.8048782, -8.5975609, 14.5731707, -0.0426337
-1.0551758, 0.0263672, -0.0771484, -28.4756107, -8.5365858, 14.9390249, -0.0382696
-1.0537109, 0.0244141, -0.0786133, -29.5121956, -8.3536587, 15, -0.0359197
-1.0512695, 0.0209961, -0.0712891, -30.3048782, -7.9878049, 15.3048782, -0.0359197
-1.0522461, 0.0107422, -0.0620117, -30.7926846, -8.1097565, 14.8780489, -0.0379339
-1.0517578, -0.0009766, -0.0600586, -30.9146347, -7.5, 14.5731707, -0.0379339
-1.0551758, -0.0117188, -0.059082, -30.6097565, -7.3780489, 14.0243902, -0.0339055
-1.0566406, -0.0209961, -0.0595703, -30, -7.1951222, 14.2073174, -0.0406195
-1.0605469, -0.0297852, -0.0629883, -29.6951218, -7.1951222, 14.3902445, -0.0406195
-1.0698242, -0.0249023, -0.0629883, -28.7195129, -6.890244, 14.9390249, -0.0352483
-1.0664062, -0.0234375, -0.0703125, -27.9878063, -6.7073174, 15.1219511, -0.0325628
-1.0644531, -0.012207, -0.0854492, -26.5243912, -6.7682929, 15.7317076, -0.0318914
-1.0566406, -0.0004883, -0.0922852, -26.3414631, -7.1341467, 15.7926836, -0.0339055
-1.0522461, 0.0073242, -0.097168, -25.9756107, -7.9878049, 15.7317076, -0.0352483
-1.0488281, 0.0131836, -0.1040039, -25.5487804, -9.1463413, 15.3048782, -0.0352483
-1.0429688, 0.0239258, -0.1079102, -26.0365868, -9.6951218, 15.4268293, -0.0325628
-1.0415039, 0.0268555, -0.1064453, -25.9146347, -10.9146347, 15.4878054, -0.0325628
-1.0385742, 0.0341797, -0.1103516, -25.8536587, -11.6463413, 15.2439032, -0.0365911
-1.0322266, 0.0366211, -0.1069336, -26.0975609, -12.5, 14.7560978, -0.0365911
-1.0273438, 0.0341797, -0.1015625, -25.9756107, -13.2926836, 14.9390249, -0.0318914
-1.0327148, 0.0332031, -0.0976562, -25.2439022, -14.5731707, 14.3292685, -0.0325628
-1.0332031, 0.0341797, -0.0947266, -24.8170738, -15.2439032, 13.841464, -0.0298772
-1.0307617, 0.0356445, -0.0927734, -24.2073174, -16.5243912, 13.5365858, -0.0352483
-1.0351562, 0.0395508, -0.097168, -24.1463413, -16.8292694, 13.0487804, -0.0305486
-1.0395508, 0.0478516, -0.0942383, -23.2317085, -17.560976, 12.560976, -0.0288701
-1.0415039, 0.0473633, -0.0976562, -23.4756107, -18.5365849, 12.1951218, -0.0285344
-1.0463867, 0.0541992, -0.1020508, -23.5365868, -18.7195129, 12.0731707, -0.0292058
-1.0458984, 0.0571289, -0.1020508, -24.2682934, -19.2073174, 12.1951218, -0.03122
-1.0424805, 0.0639648, -0.0976562, -24.8780499, -19.4512196, 12.1341467, -0.03122
-1.0327148, 0.0654297, -0.0966797, -25.9756107, -19.5731716, 12.1951218, -0.0292058
-1.0253906, 0.0644531, -0.0786133, -27.3170738, -19.6341476, 11.5853662, -0.0285344
-1.0234375, 0.0483398, -0.0629883, -27.6829281, -19.939024, 10.7926836, -0.027863
-1.0185547, 0.0444336, -0.0576172, -27.6219521, -19.939024, 9.8780489, -0.027863
-1.0180664, 0.0307617, -0.0537109, -26.3414631, -19.939024, 9.0853662, -0.0298772
-1.0205078, 0.0234375, -0.0498047, -25.1219521, -19.6341476, 8.719512, -0.0318914
-1.0180664, 0.0131836, -0.0566406, -25, -19.0243912, 8.5975609, -0.0318914
-1.0131836, 0.0073242, -0.0517578, -25.4878063, -18.3536587, 8.6585369, -0.0433051
-1.0112305, 0.0014648, -0.0458984, -25.1829281, -18.0487804, 8.780488, -0.0433051
-1.0092773, 0.0009766, -0.0390625, -24.1463413, -17.8658543, 8.780488, -0.0406195
-1.0024414, -0.0043945, -0.0336914, -23.6585369, -17.7439022, 9.0853662, -0.0439765
-1.0039062, -0.0087891, -0.0341797, -21.9512196, -17.2560978, 9.1463413, -0.0459907
-1, -0.0107422, -0.0307617, -21.280489, -16.8292694, 9.2073174, -0.0486763
-1.0004883, -0.0117188, -0.0317383, -20.2439022, -16.3414631, 8.6585369, -0.0473335
-1.0053711, -0.0170898, -0.034668, -19.939024, -16.5853653, 8.3536587, -0.0453193
-1.0087891, -0.0112305, -0.0449219, -19.0243912, -17.0731716, 8.5365858, -0.0426337
-1.0136719, -0.0073242, -0.0498047, -17.8658543, -17.439024, 9.6951218, -0.0379339
-1.0107422, 0.0004883, -0.0649414, -17.6829281, -17.3170738, 10.4268293, -0.0406195
-1.0078125, 0.0078125, -0.0727539, -17.560976, -16.5243912, 11.0975609, -0.0365911
-1.0019531, 0.0141602, -0.0820312, -17.9268303, -16.4024391, 11.280488, -0.0332341
-1.0039062, 0.0102539, -0.0830078, -19.2073174, -15.9756098, 10.8536587, -0.0325628
-1.0063477, 0, -0.0805664, -19.6341476, -16.2195129, 10.3048782, -0.03122
-1.0083008, 0.0029297, -0.0776367, -20.4878044, -17.3170738, 10.1829271, -0.0302129
-1.0136719, 0.0083008, -0.0639648, -20.5487804, -17.439024, 10.1829271, -0.0305486
-1.0180664, 0.0195312, -0.0556641, -20.060976, -17.3780499, 10.8536587, -0.03122
-1.0170898, 0.0205078, -0.0615234, -19.8780499, -17.1951218, 11.5853662, -0.0379339
-1.0136719, 0.0219727, -0.0742188, -19.5121956, -16.3414631, 11.8902445, -0.0406195
-1.012207, 0.019043, -0.0776367, -19.3902435, -16.5243912, 11.4024391, -0.0459907
-1.0131836, 0.0092773, -0.0820312, -19.939024, -16.8292694, 11.0365858, -0.0527047
-1.0126953, 0.0039062, -0.0805664, -20.1219521, -17.5, 10.7317076, -0.0594186
-1.0136719, -0.0039062, -0.0717773, -20.4878044, -17.2560978, 10.6707315, -0.0614328
-1.0126953, -0.0107422, -0.0644531, -19.4512196, -17.1951218, 10.9146347, -0.0607614
-1.0136719, -0.0151367, -0.0532227, -18.6585369, -16.8902435, 11.219512, -0.0540475
-1.0146484, -0.0161133, -0.0517578, -17.6829281, -17.1341476, 11.7073174, -0.0513619
-1.0073242, -0.0092773, -0.0532227, -16.9512196, -17.3170738, 12.1951218, -0.0513619
-1.0004883, 0.0019531, -0.0537109, -16.4634151, -17.560976, 12.5, -0.0396124
-1.0014648, 0.0073242, -0.050293, -16.4634151, -17.7439022, 12.6829271, -0.0339055
-0.996582, 0.0170898, -0.0458984, -16.5853653, -17.1951218, 12.4390249, -0.03122
-0.9907227, 0.0244141, -0.0429688, -16.6463413, -16.8292694, 12.5, -0.0258488
-0.9892578, 0.0268555, -0.0375977, -16.4024391, -16.7682934, 12.1341467, -0.024506
-0.9838867, 0.0288086, -0.0317383, -15.5487804, -16.1585369, 11.9512196, -0.0204776
-0.9790039, 0.0258789, -0.0244141, -15.3658543, -15.9756098, 11.7073174, -0.0218204
-0.9785156, 0.0200195, -0.0180664, -14.9390249, -15.1829271, 11.219512, -0.0248417
-0.9692383, 0.012207, 0, -14.6951227, -15, 10.9146347, -0.0258488
-0.9697266, 0.0073242, 0.0009766, -13.4146347, -13.6585369, 10.3048782, -0.0285344
-0.9633789, -0.0126953, 0.0117188, -12.7439032, -12.8658543, 10.1219511, -0.0298772
-0.9726562, -0.0249023, 0.0107422, -10.6707315, -11.341464, 9.5121956, -0.0325628
-0.9780273, -0.0234375, 0.0048828, -9.6341467, -10.4878054, 9.7560978, -0.0359197
-0.9873047, -0.0292969, -0.012207, -7.1951222, -9.0853662, 9.6951218, -0.0372625
-0.9960938, -0.0302734, -0.019043, -5.4878049, -7.9268293, 9.8170738, -0.0352483
-1.0019531, -0.0263672, -0.03125, -4.7560978, -7.7439027, 10, -0.0352483
-1.0107422, -0.0195312, -0.0375977, -3.3536587, -7.1341467, 10, -0.0412909
-1.0126953, -0.0019531, -0.0439453, -2.6829269, -6.9512196, 10.3658543, -0.0419623
-1.0146484, 0.0043945, -0.043457, -1.9512196, -6.4634147, 10.060976, -0.0406195
-1.0112305, 0.0170898, -0.0449219, -1.7073171, -6.3414636, 10.1829271, -0.0412909
-1.0073242, 0.0244141, -0.0429688, -1.7682927, -6.280488, 10.7317076, -0.0419623
-0.9975586, 0.034668, -0.0400391, -1.6463414, -6.4634147, 10.3658543, -0.0439765
-0.9785156, 0.0327148, -0.0395508, -2.0121951, -5.8536587, 10.4878054, -0.0449836
-0.9726562, 0.0302734, -0.0375977, -2.195122, -5.9146342, 9.9390249, -0.0520333
-0.9648438, 0.0253906, -0.03125, -2.6219513, -5.9756098, 9.5731707, -0.0560616
-0.9609375, 0.019043, -0.0297852, -3.0487804, -6.0365853, 9.1463413, -0.0577401
-0.9521484, 0.0175781, -0.0361328, -2.5, -6.2195125, 8.841464, -0.0574044
-0.9472656, 0.0166016, -0.0380859, -2.195122, -6.2195125, 8.3536587, -0.0580758
-0.9472656, 0.0209961, -0.0483398, -2.0121951, -6.0975609, 8.4146347, -0.0560616
-0.9482422, 0.0249023, -0.0507812, -1.7073171, -5.9146342, 7.9878049, -0.0570687
-0.9545898, 0.0253906, -0.0507812, -1.5243902, -5.8536587, 7.4390244, -0.0580758
-0.956543, 0.0214844, -0.0517578, -1.7682927, -6.280488, 6.7073174, -0.0607614
-0.9677734, 0.0170898, -0.050293, -1.402439, -6.280488, 5.9146342, -0.0621042
-0.9780273, 0.0053711, -0.0488281, -0.6707317, -6.5853658, 5.5487804, -0.0580758
-0.9829102, 0.0014648, -0.046875, -0.2439024, -6.5243902, 5.2439027, -0.0621042
-1.003418, -0.0166016, -0.0444336, 0.8536586, -6.4024391, 4.9390244, -0.0580758
-1.0053711, -0.0224609, -0.0444336, 2.6219513, -6.5853658, 5.609756, -0.0580758
-1.0107422, -0.0288086, -0.0483398, 3.6585367, -6.3414636, 5.670732, -0.0560616
-1.0185547, -0.03125, -0.0532227, 5.670732, -6.0975609, 5.8536587, -0.0570687
-1.0224609, -0.0351562, -0.0595703, 6.7073174, -6.1585369, 5.9756098, -0.0547189
-1.0239258, -0.0307617, -0.0625, 8.4756098, -6.7073174, 6.6463418, -0.0547189
-1.0239258, -0.0161133, -0.0683594, 9.3292685, -6.9512196, 7.0121951, -0.0540475
-1.0107422, 0.0009766, -0.0668945, 10.060976, -8.1707315, 7.7439027, -0.0540475
-1.0009766, 0.0087891, -0.0678711, 10.5487804, -8.4756098, 7.8658538, -0.0543832
-0.9868164, 0.0239258, -0.0581055, 11.1585369, -9.0853662, 7.5, -0.0574044
-0.9799805, 0.0288086, -0.0532227, 11.1585369, -9.2682924, 7.5609756, -0.0500191
-0.96875, 0.0356445, -0.0454102, 11.1585369, -9.3902445, 6.7682929, -0.0486763
-0.9677734, 0.0351562, -0.0400391, 10.5487804, -9.8170738, 5.4878049, -0.0560616
-0.9624023, 0.027832, -0.0390625, 10.1219511, -9.5731707, 5.1219511, -0.0553902
-0.9682617, 0.0239258, -0.0351562, 9.3902445, -9.2682924, 4.2682929, -0.056733
-0.9707031, 0.0107422, -0.0341797, 8.9634151, -9.2682924, 3.9634147, -0.056733
-0.9804688, 0.0019531, -0.0332031, 8.9634151, -8.5365858, 3.1707318, -0.0533761
-0.9936523, -0.0131836, -0.0292969, 8.9024391, -8.2317076, 2.8658538, -0.056733
-1.0097656, -0.0224609, -0.0327148, 8.9024391, -7.4390244, 2.5609756, -0.0553902
-1.0170898, -0.0229492, -0.03125, 9.2073174, -7.3170733, 2.3780489, -0.0520333
-1.0322266, -0.0249023, -0.0327148, 9.5121956, -7.0121951, 2.8658538, -0.0527047
-1.0336914, -0.0273438, -0.0336914, 9.7560978, -6.280488, 3.0487804, -0.0607614
-1.0332031, -0.0200195, -0.0322266, 10.1219511, -5.3048782, 3.5365853, -0.0654612
-1.034668, -0.0117188, -0.0332031, 10.4878054, -4.5121951, 3.7804878, -0.0674754
-1.03125, -0.0063477, -0.0336914, 10.6707315, -4.3292685, 3.9024391, -0.0647898
-1.0263672, -0.0019531, -0.0307617, 10.5487804, -3.7195122, 3.9024391, -0.0627756
-1.0195312, 0.0107422, -0.0283203, 10.2439022, -3.5365853, 3.8414636, -0.0553902
-1.0146484, 0.0151367, -0.0263672, 10.3048782, -3.4146342, 3.7804878, -0.0500191
-1.0019531, 0.015625, -0.0253906, 9.9390249, -2.9878049, 3.5365853, -0.0453193
-0.9956055, 0.0141602, -0.0205078, 9.9390249, -2.1341465, 2.9878049, -0.0406195
-0.9892578, 0.0102539, -0.019043, 9.6951218, -1.9512196, 2.6219513, -0.035584
-0.9863281, 0.0043945, -0.0092773, 9.2073174, -1.5853659, 1.8902439, -0.0345769
-0.9868164, -0.0043945, -0.0097656, 9.0243902, -1.3414634, 1.6463414, -0.0449836
-0.9897461, -0.0039062, -0.0126953, 9.1463413, -1.097561, 1.402439, -0.0513619
-0.9897461, -0.0097656, -0.0126953, 9.6951218, -0.9756098, 1.6463414, -0.0500191
-0.9907227, -0.0083008, -0.0195312, 9.9390249, -1.0365853, 1.402439, -0.0493477
-0.9887695, -0.0087891, -0.0239258, 10.3048782, -0.4268293, 1.7073171, -0.0439765
-0.9897461, -0.0092773, -0.03125, 10.1829271, -0.2439024, 1.6463414, -0.0419623
-0.9941406, -0.0043945, -0.0371094, 10.4268293, -0.4268293, 0.9146342, -0.0372625
-0.9941406, -0.0073242, -0.043457, 10.060976, -0.4878049, 0.5487805, -0.027863
-1.0014648, -0.0053711, -0.0463867, 10.1829271, -0.9756098, 0.0609756, -0.0238346
-1.0048828, -0.0039062, -0.0517578, 10.6097565, -1.5853659, 0.1829268, -0.0251774
-1.0087891, -0.0014648, -0.0556641, 10.6707315, -1.6463414, 0, -0.0265202
-1.0083008, -0.0004883, -0.0581055, 11.0365858, -1.8902439, 0.1219512, -0.0261845
-1.0097656, 0.0009766, -0.0664062, 11.1585369, -1.4634147, 0.3048781, -0.0261845
-1.0112305, 0.0024414, -0.0668945, 10.6097565, -2.1341465, -0.4268293, -0.0258488
-1.0180664, 0.0063477, -0.0654297, 10.060976, -2.6219513, -0.5487805, -0.0325628
-1.0200195, 0.0048828, -0.0625, 9.8170738, -3.0487804, -0.8536586, -0.0369268
-1.0253906, 0.0161133, -0.0649414, 9.6951218, -3.5365853, -0.9756098, -0.0412909
-1.027832, 0.0200195, -0.0703125, 10.1829271, -4.3292685, -0.6707317, -0.0449836
-1.0180664, 0.0219727, -0.0727539, 10.1219511, -4.3292685, -0.6707317, -0.0446479
-1.0151367, 0.0195312, -0.074707, 9.6951218, -4.7560978, -0.8536586, -0.0459907
-1.0126953, 0.0166016, -0.0688477, 9.2682924, -5, -0.9756098, -0.0486763
-1.0078125, 0.0092773, -0.0634766, 8.719512, -5.7317076, -1.8902439, -0.0480049
-1.0068359, 0.0019531, -0.0532227, 8.4756098, -5.9756098, -1.9512196, -0.0466621
-1.0053711, -0.0087891, -0.0507812, 8.780488, -6.4024391, -2.3780489, -0.0473335
-1.0053711, -0.0117188, -0.0454102, 10, -6.2195125, -2.2560976, -0.0486763
-1.0151367, -0.0166016, -0.0439453, 10.2439022, -6.0365853, -2.2560976, -0.0486763
-1.0136719, -0.0195312, -0.0405273, 11.6463413, -5.8536587, -2.195122, -0.0500191
-1.0185547, -0.0258789, -0.0400391, 12.0731707, -5.8536587, -2.0731707, -0.0500191
