Application:, Trigno Discover (1.6.5)
Date/Time:, 03/02/2025 11:22:13
Collection Length (seconds):, 45.1575
wrist (81457), , , , , , bicep (81139)
sensor mode: 609, , , , , , sensor mode: 40
ACC X (G), ACC Y (G), ACC Z (G), GYRO X (deg/s), GYRO Y (deg/s), GYRO Z (deg/s), EMG 1 (mV)
370.3704 Hz, 370.3704 Hz, 370.3704 Hz, 370.3704 Hz, 370.3704 Hz, 370.3704 Hz, 2148.1481 Hz
-0.9848633, 0.125, -0.2607422, 16.5853653, -75.7317123, 11.4634151, -0.0412909
-0.9760742, 0.121582, -0.2773438, 16.2195129, -75.5487823, 11.0975609, -0.0332341
-0.9780273, 0.121582, -0.2895508, 14.8780489, -75.8536606, 10.7926836, -0.0271916
-0.9824219, 0.1186523, -0.2949219, 14.2682934, -75.8536606, 10.7317076, -0.0231632
-0.9824219, 0.1152344, -0.2949219, 12.6219511, -76.8902435, 10.1219511, -0.0151064
-0.9902344, 0.1035156, -0.2817383, 12.0731707, -77.1951218, 10, -0.0191348
-0.9941406, 0.0981445, -0.2744141, 11.5243902, -77.4390259, 9.9390249, -0.0265202
-1.0039062, 0.0917969, -0.2451172, 12.0731707, -76.3414688, 10.3048782, -0.0271916
-1.0131836, 0.0874023, -0.2333984, 12.7439032, -75.7926865, 10.6097565, -0.0305486
-1.0151367, 0.0908203, -0.2304688, 13.7195129, -75.3658524, 11.219512, -0.0325628
-1.0126953, 0.0898438, -0.2290039, 14.0243902, -75.2439041, 11.5853662, -0.0372625
-1.0097656, 0.0864258, -0.2270508, 14.0853662, -74.8170776, 12.3170738, -0.0379339
-1.003418, 0.090332, -0.2402344, 13.6585369, -74.5121994, 12.560976, -0.0365911
-0.9980469, 0.0839844, -0.2460938, 13.4756098, -73.9634171, 13.2926836, -0.0406195
-0.9897461, 0.0727539, -0.2338867, 13.2926836, -74.3902435, 13.4756098, -0.0433051
-0.9897461, 0.0639648, -0.2143555, 11.8902445, -75.7926865, 13.780488, -0.0406195
-0.9848633, 0.0615234, -0.1743164, 11.0975609, -75.5487823, 13.9634151, -0.0433051
-0.9780273, 0.0517578, -0.1538086, 10.8536587, -73.7804871, 14.4512196, -0.0476692
-0.9775391, 0.0498047, -0.1503906, 12.9268293, -71.2195129, 14.9390249, -0.049012
-0.9746094, 0.0302734, -0.1625977, 13.9634151, -70.3048782, 15.3048782, -0.0503548
-0.9702148, 0.0292969, -0.168457, 15.3658543, -69.2073212, 15.7926836, -0.0513619
-0.9711914, 0.0249023, -0.1630859, 15.7317076, -69.0853653, 16.280489, -0.0506905
-0.9682617, 0.0229492, -0.1552734, 15.1219511, -68.3536606, 17.3780499, -0.0480049
-0.9624023, 0.0175781, -0.1464844, 15, -67.6219559, 17.8658543, -0.0379339
-0.9584961, 0.0146484, -0.1469727, 16.0365849, -66.1585388, 19.0853672, -0.03122
-0.9526367, 0.0185547, -0.1523438, 17.6219521, -65.18293, 19.5731716, -0.03122
-0.9462891, 0.0224609, -0.15625, 19.5731716, -63.9634171, 20.1219521, -0.0251774
-0.9384766, 0.0249023, -0.1708984, 19.8780499, -63.1707344, 20.1219521, -0.024506
-0.9345703, 0.0273438, -0.1708984, 20.060976, -61.8292694, 20.3658543, -0.0258488
-0.934082, 0.0380859, -0.168457, 20.2439022, -61.0975609, 20.6097565, -0.0231632
-0.9267578, 0.0483398, -0.1601562, 20.3658543, -60.6097565, 20.7926826, -0.027863
-0.9257812, 0.0527344, -0.1567383, 20.1829281, -58.5975609, 21.2195129, -0.03122
-0.918457, 0.059082, -0.1669922, 20.3048782, -57.9878044, 21.4024391, -0.0339055
-0.918457, 0.0585938, -0.1708984, 21.3414631, -57.2560997, 20.9756107, -0.0419623
-0.9228516, 0.0566406, -0.1767578, 22.0121956, -57.1951218, 20.5487804, -0.0473335
-0.9189453, 0.0571289, -0.1811523, 22.2560978, -57.1951218, 20.3658543, -0.0500191
-0.9140625, 0.0600586, -0.1855469, 22.5, -57.1341476, 20.2439022, -0.0533761
-0.9155273, 0.0595703, -0.1904297, 22.6219521, -56.6463432, 19.939024, -0.0553902
-0.9179688, 0.0551758, -0.190918, 22.8048782, -56.6463432, 20.060976, -0.0584115
-0.9174805, 0.0512695, -0.1938477, 23.7195129, -56.8292694, 19.6951218, -0.0540475
-0.9199219, 0.0449219, -0.1977539, 24.5731716, -56.9512215, 19.2682934, -0.0506905
-0.9194336, 0.0356445, -0.1923828, 24.6951218, -56.9512215, 19.0243912, -0.0486763
-0.9204102, 0.0336914, -0.1884766, 25.6097565, -57.3780518, 18.7195129, -0.0480049
-0.9223633, 0.0297852, -0.1904297, 26.3414631, -57.3170738, 18.5365849, -0.0459907
-0.9238281, 0.0380859, -0.1889648, 27.6829281, -56.5853653, 18.6585369, -0.042298
-0.9282227, 0.0463867, -0.1870117, 27.6829281, -56.341465, 18.5975609, -0.0382696
-0.9238281, 0.0541992, -0.1845703, 27.9878063, -55.6707344, 18.6585369, -0.0352483
-0.9174805, 0.0629883, -0.1923828, 27.560976, -55.0609779, 18.5975609, -0.0372625
-0.9121094, 0.0644531, -0.1870117, 25.7926826, -55.2439041, 17.8658543, -0.0345769
-0.9106445, 0.0751953, -0.171875, 24.6341476, -55.3048782, 17.439024, -0.0372625
-0.8999023, 0.0776367, -0.1420898, 22.8658543, -54.8170738, 16.7073174, -0.0372625
-0.8950195, 0.0830078, -0.1235352, 21.8292694, -54.2073174, 15.7926836, -0.0379339
-0.8901367, 0.081543, -0.0996094, 21.9512196, -53.4146347, 15.3048782, -0.0386053
-0.887207, 0.0834961, -0.0908203, 22.439024, -51.9512215, 14.6951227, -0.0365911
-0.8754883, 0.0898438, -0.0932617, 22.7439022, -50.9756126, 14.0853662, -0.0379339
-0.8754883, 0.0947266, -0.0966797, 22.9878063, -48.4146347, 12.560976, -0.0372625
-0.8720703, 0.0957031, -0.1064453, 22.8658543, -47.6219521, 11.4634151, -0.0352483
-0.8735352, 0.0942383, -0.1088867, 22.1341476, -44.8170738, 9.8780489, -0.0375982
-0.8808594, 0.0981445, -0.1069336, 21.6463413, -43.4756126, 9.3902445, -0.0379339
-0.8891602, 0.0932617, -0.1040039, 20.9756107, -42.5, 7.8048782, -0.0406195
-0.9013672, 0.0942383, -0.097168, 20.7317085, -42.0121956, 7.3780489, -0.0379339
-0.9155273, 0.0932617, -0.0893555, 19.6951218, -41.2804871, 6.890244, -0.0426337
-0.921875, 0.0942383, -0.0874023, 19.5731716, -39.0853653, 6.0975609, -0.0446479
-0.9394531, 0.0942383, -0.0732422, 19.6951218, -38.1097565, 5.8536587, -0.0409552
-0.9467773, 0.09375, -0.0722656, 20.3658543, -36.2804871, 5, -0.0426337
-0.9663086, 0.1020508, -0.0742188, 20.9146347, -35.6097565, 4.7560978, -0.0426337
-0.972168, 0.1074219, -0.0825195, 21.5243912, -33.841465, 4.0243902, -0.0406195
-0.9824219, 0.1196289, -0.1015625, 21.280489, -32.8658562, 3.1707318, -0.0426337
-0.987793, 0.1210938, -0.1083984, 20.6707325, -30.9146347, 2.195122, -0.0446479
-0.9990234, 0.1269531, -0.1220703, 19.939024, -30, 1.4634147, -0.0419623
-1.003418, 0.1352539, -0.1230469, 17.8048782, -28.3536587, 0.2439024, -0.0399481
-1.0166016, 0.1450195, -0.1166992, 15.6707325, -28.2926826, -0.4268293, -0.0379339
-1.0234375, 0.1479492, -0.097168, 11.5853662, -27.5, -1.5853659, -0.0379339
-1.0234375, 0.1479492, -0.0820312, 7.2560978, -26.7682934, -2.7439024, -0.0352483
-1.0185547, 0.1318359, -0.0551758, 4.9390244, -25.8536587, -3.3536587, -0.0379339
-1.0180664, 0.1220703, -0.0454102, 1.7073171, -24.0853672, -4.6951222, -0.0365911
-1.012207, 0.0922852, -0.0273438, 0.3658537, -22.7439022, -5.4878049, -0.0325628
-1.0083008, 0.0756836, -0.0214844, -2.0121951, -20.060976, -6.890244, -0.0318914
-1.0166016, 0.0483398, -0.0087891, -3.1097562, -18.9024391, -7.2560978, -0.0365911
-1.0170898, 0.0380859, -0.0126953, -5.3048782, -16.0975609, -8.4146347, -0.0345769
-1.0263672, 0.0029297, -0.0327148, -6.5243902, -14.6951227, -8.780488, -0.0339055
-1.0322266, -0.0112305, -0.0371094, -8.2926826, -13.2317076, -8.9634151, -0.0399481
-1.0424805, -0.0332031, -0.0371094, -8.719512, -13.1707315, -9.3292685, -0.0433051
-1.0493164, -0.0488281, -0.0209961, -10, -13.2317076, -9.0853662, -0.0382696
-1.0546875, -0.0522461, -0.0146484, -12.2560978, -12.7439032, -8.1707315, -0.0406195
-1.0556641, -0.0532227, 0.0063477, -12.8658543, -11.4024391, -7.5609756, -0.0409552
-1.0600586, -0.0483398, 0.0146484, -13.4146347, -8.4756098, -6.4024391, -0.0433051
-1.0649414, -0.0371094, 0.0068359, -13.1097565, -7.2560978, -5.5487804, -0.0386053
-1.0615234, -0.0273438, -0.0024414, -12.6829271, -5.609756, -5.1219511, -0.0396124
-1.0625, -0.0195312, -0.027832, -13.2317076, -5.1219511, -5.1219511, -0.0386053
-1.0625, -0.0161133, -0.0361328, -15.9146347, -5.1219511, -5.4268293, -0.0375982
-1.0625, -0.0170898, -0.0375977, -17.6829281, -4.8170733, -5.4878049, -0.0436408
-1.0634766, -0.0263672, -0.0307617, -20.5487804, -4.2682929, -5.1829271, -0.0412909
-1.0703125, -0.0375977, -0.0219727, -21.8902435, -3.1097562, -3.9634147, -0.0436408
-1.0732422, -0.0449219, -0.0200195, -21.6463413, -2.804878, -3.4146342, -0.0439765
-1.0727539, -0.0473633, -0.0219727, -21.280489, -2.1341465, -1.8292683, -0.0412909
-1.0722656, -0.0483398, -0.034668, -21.0975609, -2.1341465, -1.097561, -0.0446479
-1.0722656, -0.0463867, -0.0375977, -20.9146347, -2.3780489, -0.0609756, -0.0406195
-1.0629883, -0.0517578, -0.0532227, -21.280489, -2.2560976, 0.4878049, -0.0386053
-1.059082, -0.0517578, -0.0620117, -21.4634151, -2.3170731, 1.1585366, -0.0412909
-1.0483398, -0.0556641, -0.0668945, -21.4634151, -2.1341465, 1.5853659, -0.0379339
-1.043457, -0.0600586, -0.0712891, -22.0731716, -1.7073171, 2.5, -0.0426337
-1.0385742, -0.0712891, -0.0722656, -22.3780499, -1.6463414, 2.8658538, -0.0382696
-1.0351562, -0.0791016, -0.074707, -22.0731716, -2.2560976, 3.4756098, -0.0359197
-1.0405273, -0.0942383, -0.0693359, -20.7317085, -3.5975611, 4.2682929, -0.0318914
-1.0454102, -0.1030273, -0.0678711, -19.7560978, -4.390244, 5.0609756, -0.0231632
-1.0463867, -0.1040039, -0.0620117, -17.6219521, -5.9756098, 6.4634147, -0.0298772
-1.0361328, -0.1040039, -0.0556641, -16.5853653, -6.5243902, 7.5609756, -0.0339055
-1.0332031, -0.0966797, -0.0556641, -14.5121956, -7.0121951, 8.780488, -0.0325628
-1.0307617, -0.0751953, -0.0527344, -13.5975609, -7.2560978, 9.4512196, -0.0298772
-1.0288086, -0.0654297, -0.0522461, -11.5853662, -7.5609756, 10, -0.0302129
-1.0224609, -0.0439453, -0.0493164, -10.7317076, -7.9878049, 10.060976, -0.0298772
-1.0253906, -0.0297852, -0.046875, -8.780488, -8.719512, 10.060976, -0.0292058
-1.0268555, 0.0004883, -0.0556641, -7.9878049, -8.9024391, 9.9390249, -0.0379339
-1.0273438, 0.015625, -0.0634766, -6.7073174, -9.2073174, 9.6951218, -0.0473335
-1.0302734, 0.0419922, -0.078125, -6.9512196, -10.3048782, 9.2073174, -0.0466621
-1.0307617, 0.0644531, -0.0922852, -7.3780489, -11.0365858, 8.9634151, -0.0359197
-1.0322266, 0.0722656, -0.1030273, -10.2439022, -12.9268293, 8.5975609, -0.0271916
-1.0229492, 0.078125, -0.1015625, -11.0975609, -14.0243902, 8.1097565, -0.0164492
-1.0180664, 0.0756836, -0.0981445, -14.3292685, -16.280489, 7.8048782, -0.0030213
-1.0112305, 0.0673828, -0.0805664, -15.8536587, -17.1341476, 7.8048782, 0.0077211
-1.0043945, 0.0581055, -0.0673828, -18.8414631, -18.4756107, 7.5609756, 0.014435
-0.9882812, 0.0424805, -0.0517578, -19.5121956, -19.2073174, 7.3780489, 0.0097353
-0.9819336, 0.0307617, -0.0371094, -20.5487804, -20.060976, 7.5, 0.0070497
-0.9677734, 0.0175781, -0.0131836, -20.4878044, -20.4878044, 7.3170733, 0.0016785
-0.9619141, 0.0102539, -0.0048828, -20.2439022, -20.7926826, 7.1951222, -0.0060426
-0.9550781, 0.0004883, 0.0048828, -19.3292694, -20.2439022, 6.7682929, -0.0114137
-0.9443359, -0.0039062, 0.0024414, -18.780489, -19.6341476, 6.7682929, -0.011078
-0.9482422, -0.0029297, 0.0009766, -17.0121956, -18.4756107, 6.2195125, -0.0164492
-0.9555664, 0.0141602, -0.0063477, -16.2195129, -17.9268303, 6.1585369, -0.03122
-0.9614258, 0.0195312, -0.0083008, -15, -17.3780499, 6.4024391, -0.0382696
-0.9711914, 0.0395508, -0.012207, -14.8170738, -17.1341476, 6.4024391, -0.0406195
-0.9711914, 0.0566406, -0.0161133, -14.7560978, -16.7073174, 6.2195125, -0.0359197
-0.9697266, 0.0830078, -0.0219727, -15.4268293, -16.3414631, 6.0975609, -0.0325628
-0.9707031, 0.0922852, -0.0244141, -16.7073174, -16.2195129, 6.1585369, -0.0265202
-0.9648438, 0.1064453, -0.034668, -17.3780499, -16.2195129, 5.7926831, -0.024506
-0.9667969, 0.109375, -0.0361328, -18.5365849, -16.5853653, 5.3658538, -0.0292058
-0.9594727, 0.1132812, -0.0380859, -19.7560978, -16.5853653, 4.4512196, -0.0261845
-0.9555664, 0.109375, -0.0458984, -20.4268303, -16.4024391, 4.2073174, -0.0218204
-0.9492188, 0.1108398, -0.0478516, -21.7073174, -16.0975609, 2.804878, -0.0271916
-0.9536133, 0.1088867, -0.0517578, -21.8292694, -15.7317076, 2.3780489, -0.0231632
-0.9560547, 0.1044922, -0.0532227, -22.6829281, -15.3048782, 1.402439, -0.0221561
-0.965332, 0.1025391, -0.0649414, -23.2317085, -15.3658543, 0.9146342, -0.0191348
-0.965332, 0.1015625, -0.0620117, -24.1463413, -15.3048782, 0.1219512, -0.0204776
-0.9658203, 0.0942383, -0.0644531, -24.3292694, -15.4878054, 0.0609756, -0.0231632
-0.9628906, 0.0922852, -0.0634766, -25.3658543, -15.6097565, -0.6097561, -0.0224918
-0.9643555, 0.0913086, -0.0585938, -26.1585369, -15.5487804, -0.6707317, -0.0275273
-0.9682617, 0.0922852, -0.0551758, -26.9512196, -15.9146347, -0.9756098, -0.0298772
-0.9604492, 0.09375, -0.0556641, -27.2560978, -16.3414631, -1.5243902, -0.0365911
-0.9599609, 0.0961914, -0.0571289, -27.9268303, -16.2195129, -1.6463414, -0.0412909
-0.9560547, 0.0922852, -0.0537109, -28.780489, -16.8902435, -2.1341465, -0.0412909
-0.9570312, 0.0917969, -0.0483398, -28.9634151, -17.0121956, -2.4390244, -0.0372625
-0.9614258, 0.0849609, -0.0439453, -29.5731716, -17.1341476, -3.1707318, -0.0352483
-0.9619141, 0.0791016, -0.0410156, -29.8170738, -17.2560978, -3.7804878, -0.0339055
-0.96875, 0.074707, -0.0400391, -29.6951218, -16.7682934, -4.390244, -0.0325628
-0.9819336, 0.0751953, -0.0439453, -29.5121956, -16.7682934, -4.8170733, -0.0328985
-0.9887695, 0.0756836, -0.0415039, -28.841465, -16.5853653, -5.5487804, -0.0298772
-1.0068359, 0.0771484, -0.0473633, -28.5975609, -16.5243912, -5.7317076, -0.0271916
-1.0151367, 0.0834961, -0.0517578, -28.9024391, -16.9512196, -5.7926831, -0.0258488
-1.0263672, 0.0825195, -0.0483398, -29.6951218, -18.1097565, -5.7317076, -0.0221561
-1.0385742, 0.0854492, -0.043457, -30, -18.4756107, -5.4268293, -0.0231632
-1.0424805, 0.0839844, -0.0322266, -31.5853672, -19.4512196, -5.2439027, -0.0271916
-1.0375977, 0.0737305, -0.015625, -32.1951218, -19.7560978, -5.1219511, -0.0292058
-1.0341797, 0.0688477, -0.0058594, -32.8658562, -20.060976, -4.8170733, -0.0339055
-1.0166016, 0.0581055, 0.0087891, -33.2317085, -20.2439022, -4.7560978, -0.0386053
-1.0107422, 0.0532227, 0.0185547, -33.7195129, -19.5731716, -4.3292685, -0.0406195
-0.9956055, 0.0439453, 0.0375977, -33.7804871, -19.3292694, -4.4512196, -0.0527047
-0.9936523, 0.0390625, 0.0483398, -33.5975609, -18.4146347, -4.390244, -0.0674754
-0.9882812, 0.0385742, 0.0712891, -33.7804871, -17.9878044, -4.6341462, -0.073518
-0.9887695, 0.0302734, 0.0883789, -33.4756088, -16.3414631, -4.9390244, -0.0681468
-0.9912109, 0.027832, 0.0986328, -32.8658562, -14.5731707, -5.4268293, -0.0621042
-1.0043945, 0.0307617, 0.1083984, -32.1951218, -13.7195129, -5.4878049, -0.0500191
-1.0092773, 0.0341797, 0.109375, -31.8902454, -12.3170738, -5.8536587, -0.0399481
-1.0229492, 0.0366211, 0.109375, -31.5853672, -11.7682934, -5.609756, -0.0365911
-1.0327148, 0.0395508, 0.1113281, -31.4024391, -10.3658543, -5.3658538, -0.0292058
-1.0463867, 0.0478516, 0.1123047, -31.341465, -9.8170738, -4.9390244, -0.0325628
-1.0483398, 0.050293, 0.1157227, -30.7317085, -8.9024391, -4.7560978, -0.0332341
-1.0541992, 0.0576172, 0.1064453, -30.1829281, -9.0243902, -4.390244, -0.0339055
-1.059082, 0.0595703, 0.1020508, -29.5121956, -9.0853662, -4.4512196, -0.0396124
-1.0673828, 0.0585938, 0.097168, -29.2682934, -9.6341467, -4.6341462, -0.0409552
-1.0737305, 0.0512695, 0.0976562, -29.8170738, -10.7926836, -5.3048782, -0.0433051
-1.0795898, 0.0493164, 0.1030273, -30.3048782, -12.3170738, -6.2195125, -0.0463264
-1.0957031, 0.0307617, 0.1132812, -30.3658543, -13.0487804, -6.4024391, -0.056733
-1.0976562, 0.0229492, 0.1230469, -29.7560978, -14.2682934, -6.5853658, -0.0624399
-1.1137695, 0.0107422, 0.1367188, -29.5121956, -14.6951227, -6.4024391, -0.0661326
-1.1220703, 0.0004883, 0.1484375, -27.8658543, -15.9146347, -5.9146342, -0.0647898
-1.1245117, -0.0092773, 0.152832, -26.5243912, -16.5243912, -5.609756, -0.0661326
-1.1269531, -0.0141602, 0.1640625, -24.3292694, -17.3780499, -4.8170733, -0.070161
-1.128418, -0.0083008, 0.1621094, -22.9878063, -18.1097565, -4.6341462, -0.0721752
-1.1298828, -0.012207, 0.1601562, -20.3048782, -18.9634151, -4.3292685, -0.0748608
-1.1293945, -0.0029297, 0.15625, -19.1463413, -19.5121956, -4.2682929, -0.0835889
-1.1352539, 0.0141602, 0.1513672, -17.8048782, -20.3048782, -4.0853658, -0.0903029
-1.1318359, 0.0209961, 0.1464844, -16.0365849, -21.0365868, -4.390244, -0.0943313
-1.1323242, 0.0302734, 0.1430664, -15.5487804, -21.7073174, -4.5731707, -0.0909743
-1.1333008, 0.0385742, 0.137207, -14.6951227, -23.2926826, -4.3292685, -0.0852674
-1.1269531, 0.0498047, 0.1269531, -14.7560978, -24.0853672, -4.1463413, -0.0809033
-1.1293945, 0.046875, 0.1210938, -15.1219511, -24.9390259, -4.390244, -0.076875
-1.1269531, 0.0493164, 0.1103516, -15.5487804, -25.6707325, -4.5121951, -0.0728466
-1.1235352, 0.0483398, 0.1074219, -16.5853653, -26.8902454, -5.0609756, -0.0647898
-1.1157227, 0.043457, 0.0991211, -16.8292694, -27.3170738, -5, -0.0587472
-1.1166992, 0.0405273, 0.0927734, -17.0731716, -27.8658543, -5.3048782, -0.056733
-1.1210938, 0.0249023, 0.0888672, -17.0731716, -28.4146347, -5.4268293, -0.0520333
-1.1162109, 0.0205078, 0.0737305, -17.0121956, -29.3902454, -5.609756, -0.0513619
-1.1196289, 0.0166016, 0.0654297, -17.1951218, -30.2439022, -5.9146342, -0.0520333
-1.1147461, 0.0146484, 0.0605469, -17.2560978, -30.7317085, -5.9756098, -0.056733
-1.1142578, 0.015625, 0.0595703, -16.7682934, -31.1585369, -6.1585369, -0.0627756
-1.1074219, 0.0258789, 0.0625, -16.5853653, -31.341465, -5.7926831, -0.0654612
-1.1064453, 0.0268555, 0.0551758, -15.7926836, -31.280489, -5.4878049, -0.066804
-1.1000977, 0.0332031, 0.0400391, -15.7317076, -31.4024391, -5.5487804, -0.0647898
-1.0922852, 0.034668, 0.0341797, -15.3048782, -31.8292694, -5.9756098, -0.0647898
-1.0864258, 0.0390625, 0.0258789, -15.2439032, -32.3780479, -6.1585369, -0.0651255
-1.0800781, 0.0380859, 0.0234375, -16.4024391, -32.6219521, -6.2195125, -0.0621042
-1.0664062, 0.0405273, 0.0205078, -16.9512196, -32.8048782, -6.0975609, -0.0621042
-1.0561523, 0.0292969, 0.0234375, -17.6219521, -31.8292694, -6.2195125, -0.0607614
-1.0463867, 0.0239258, 0.0224609, -18.1097565, -32.0121956, -6.2195125, -0.0547189
-1.0371094, 0.015625, 0.0253906, -18.0487804, -32.1951218, -6.3414636, -0.0553902
-1.0336914, 0.0063477, 0.0307617, -18.1707325, -31.9512196, -5.9146342, -0.0533761
-1.0175781, -0.003418, 0.0288086, -17.9878044, -31.8902454, -5.9146342, -0.0486763
-1.0078125, -0.0092773, 0.027832, -18.4146347, -31.4634151, -5.4878049, -0.0513619
-0.9921875, -0.0185547, 0.0332031, -17.9268303, -30.9756107, -5.2439027, -0.0493477
-0.9824219, -0.0224609, 0.0351562, -17.0731716, -30.1829281, -5.1829271, -0.0513619
-0.9819336, -0.0283203, 0.03125, -16.5243912, -29.3902454, -5.0609756, -0.0520333
-0.9799805, -0.0253906, 0.0273438, -16.1585369, -27.6829281, -4.9390244, -0.0533761
-0.9819336, -0.0258789, 0.0219727, -15.8536587, -26.8292694, -4.8780489, -0.0550546
-0.9838867, -0.0288086, 0.0112305, -15.1219511, -25.9146347, -4.3292685, -0.056733
-0.9814453, -0.0253906, 0.0083008, -14.8170738, -25.3658543, -3.6585367, -0.056733
-0.9785156, -0.0283203, -0.0043945, -14.5731707, -24.9390259, -3.6585367, -0.0610971
-0.9765625, -0.0263672, -0.0053711, -14.4512196, -24.2682934, -3.2926829, -0.0621042
-0.9702148, -0.0322266, -0.0039062, -14.4512196, -23.8414631, -2.804878, -0.0647898
-0.9682617, -0.0292969, -0.0019531, -14.8170738, -23.4756107, -2.5609756, -0.066804
-0.9663086, -0.0258789, 0.0063477, -15, -23.2317085, -2.0731707, -0.066804
-0.9609375, -0.0283203, 0.012207, -15.3658543, -22.3170738, -1.5853659, -0.0688182
-0.9545898, -0.0405273, 0.0175781, -15.060976, -21.9512196, -1.2804878, -0.070161
-0.9467773, -0.0395508, 0.0170898, -13.9024391, -20.9756107, -1.097561, -0.063447
-0.949707, -0.0410156, 0.015625, -13.2926836, -20.1219521, -0.6097561, -0.0594186
-0.9477539, -0.0400391, 0.0083008, -12.560976, -18.3536587, 0, -0.0624399
-0.9477539, -0.0366211, 0.0039062, -11.6463413, -16.8902435, 0.4878049, -0.0641184
-0.9482422, -0.0253906, -0.003418, -11.5853662, -16.4634151, 0.7317073, -0.0715038
-0.9472656, -0.0175781, -0.0048828, -11.7073174, -15.1829271, 1.3414634, -0.0741894
-0.949707, -0.0043945, -0.0083008, -11.8292685, -14.8170738, 1.402439, -0.0728466
-0.9482422, -0.0004883, -0.0073242, -12.5, -13.3536587, 1.1585366, -0.0708324
-0.9428711, 0.0083008, -0.0073242, -12.9878054, -12.7439032, 1.097561, -0.0748608
-0.9404297, 0.0131836, -0.0092773, -14.3902445, -11.5853662, 1.2804878, -0.076875
-0.934082, 0.0146484, -0.0087891, -15.4268293, -11.0975609, 1.4634147, -0.0728466
-0.9301758, 0.0112305, -0.0058594, -16.8902435, -10.3048782, 1.3414634, -0.0715038
-0.9233398, -0.0009766, 0.0029297, -18.3536587, -8.5975609, 1.3414634, -0.0721752
-0.9116211, -0.0175781, 0.015625, -19.1463413, -7.6219516, 1.1585366, -0.0647898
-0.9125977, -0.0229492, 0.0234375, -19.7560978, -5.7317076, 1.1585366, -0.0674754
-0.9130859, -0.0454102, 0.0263672, -19.6951218, -4.5731707, 1.097561, -0.0627756
-0.9086914, -0.0507812, 0.0273438, -19.2073174, -2.7439024, 1.2195122, -0.0654612
-0.90625, -0.0620117, 0.0292969, -19.0243912, -1.5853659, 1.402439, -0.0762036
-0.9042969, -0.0625, 0.0214844, -18.7195129, 0.7926829, 2.0121951, -0.0849317
-0.9033203, -0.0727539, 0.0180664, -18.0487804, 2.0731707, 2.0731707, -0.0839246
-0.9003906, -0.0722656, 0.012207, -17.7439022, 4.4512196, 2.3170731, -0.0849317
-0.9018555, -0.0664062, 0.0107422, -17.6219521, 5.4878049, 2.3780489, -0.0762036
-0.9052734, -0.0688477, 0.0073242, -16.8292694, 7.5609756, 2.5609756, -0.0607614
-0.9116211, -0.0664062, -0.0014648, -16.5853653, 9.3292685, 2.4390244, -0.0500191
-0.9086914, -0.0556641, -0.0117188, -16.5853653, 10.1829271, 2.8658538, -0.0433051
-0.909668, -0.0556641, -0.0166016, -16.4024391, 12.0731707, 2.804878, -0.0459907
-0.9091797, -0.0512695, -0.0219727, -16.7682934, 12.6829271, 2.6219513, -0.0419623
-0.9140625, -0.0512695, -0.0249023, -17.1951218, 14.1463413, 2.6829269, -0.0365911
-0.9179688, -0.0473633, -0.0224609, -17.5, 14.8170738, 2.7439024, -0.0339055
-0.9179688, -0.0527344, -0.019043, -17.1951218, 16.0365849, 2.5609756, -0.027863
-0.9130859, -0.0517578, -0.0292969, -17.2560978, 16.9512196, 2.3170731, -0.0221561
-0.9145508, -0.0541992, -0.0332031, -17.1951218, 17.9878044, 1.9512196, -0.0224918
-0.9169922, -0.0512695, -0.0351562, -17.3780499, 18.5365849, 1.7073171, -0.0285344
-0.921875, -0.0556641, -0.0385742, -17.6219521, 18.9024391, 1.6463414, -0.0339055
-0.9262695, -0.0595703, -0.0410156, -17.6829281, 19.3292694, 2.0121951, -0.0406195
-0.9267578, -0.0654297, -0.043457, -17.6219521, 19.0853672, 2.3780489, -0.0459907
-0.9262695, -0.0688477, -0.0424805, -17.1341476, 19.0853672, 2.5, -0.0527047
-0.921875, -0.0732422, -0.0395508, -16.7682934, 18.9024391, 2.9878049, -0.0621042
-0.9262695, -0.0737305, -0.0400391, -16.4024391, 19.0243912, 3.1707318, -0.0664683
-0.921875, -0.0722656, -0.0366211, -16.0975609, 18.9024391, 3.1097562, -0.0641184
-0.9213867, -0.0712891, -0.034668, -15.5487804, 18.7195129, 2.8658538, -0.0627756
-0.9189453, -0.0644531, -0.03125, -14.8780489, 18.9024391, 2.9268293, -0.0560616
-0.9233398, -0.065918, -0.0307617, -14.0853662, 19.4512196, 2.804878, -0.0500191
-0.9272461, -0.0571289, -0.0297852, -14.0243902, 19.4512196, 3.0487804, -0.0433051
-0.9291992, -0.0551758, -0.0273438, -13.9024391, 19.2073174, 2.9268293, -0.0433051
-0.9306641, -0.0600586, -0.0283203, -13.841464, 19.3902435, 3.1097562, -0.0365911
-0.9326172, -0.0585938, -0.0288086, -13.9024391, 19.6341476, 3.1707318, -0.0365911
-0.9316406, -0.0561523, -0.0283203, -13.6585369, 19.5121956, 3.4146342, -0.0339055
-0.9360352, -0.0615234, -0.0229492, -13.841464, 19.0243912, 3.9634147, -0.0392767
-0.9345703, -0.0595703, -0.0175781, -14.8170738, 18.7195129, 4.2682929, -0.0459907
-0.9306641, -0.0620117, 0, -14.6341467, 18.3536587, 4.5731707, -0.0493477
-0.9287109, -0.0629883, 0.0083008, -14.2073174, 18.2926826, 5.1219511, -0.0553902
-0.9306641, -0.0561523, 0.0166016, -13.780488, 18.4756107, 5.2439027, -0.0574044
-0.9316406, -0.0522461, 0.0180664, -13.3536587, 19.0243912, 5.4268293, -0.0607614
-0.9399414, -0.0488281, 0.0126953, -12.9878054, 19.5731716, 5.3048782, -0.06009
-0.9443359, -0.0419922, 0.0058594, -12.560976, 20.2439022, 5.4878049, -0.0547189
-0.9575195, -0.0375977, -0.0053711, -12.6829271, 20.6707325, 5.2439027, -0.0527047
-0.9692383, -0.0283203, -0.012207, -12.9268293, 20.4268303, 5.3658538, -0.0540475
-0.9799805, -0.0249023, -0.0180664, -13.4146347, 19.8780499, 5.3658538, -0.0466621
-0.9956055, -0.0146484, -0.0283203, -13.5975609, 19.3292694, 5.3658538, -0.0453193
-1.0024414, -0.0107422, -0.0322266, -14.2682934, 18.3536587, 5.2439027, -0.042298
-1.0117188, -0.0126953, -0.0351562, -15, 17.8048782, 5.1219511, -0.0382696
-1.015625, -0.0107422, -0.0332031, -15.4878054, 15.7317076, 5.1829271, -0.0379339
-1.0322266, -0.0131836, -0.0327148, -15.5487804, 15.1219511, 5.1219511, -0.0406195
-1.0380859, -0.0131836, -0.0288086, -16.0365849, 13.9634151, 5.1829271, -0.0406195
-1.0493164, -0.0180664, -0.0302734, -15.8536587, 13.1707315, 5.3048782, -0.0409552
-1.0556641, -0.0185547, -0.0258789, -15.7317076, 11.7073174, 5.3048782, -0.0453193
-1.0703125, -0.0195312, -0.0117188, -15.3658543, 10.2439022, 5.5487804, -0.0419623
-1.0844727, -0.0175781, -0.0029297, -15.5487804, 9.4512196, 5.4878049, -0.0406195
-1.0888672, -0.0180664, 0.0004883, -15.5487804, 7.7439027, 5.670732, -0.0386053
-1.0952148, -0.0180664, 0.0107422, -15.3658543, 6.6463418, 5.4878049, -0.0439765
-1.0957031, -0.0209961, 0.0166016, -14.9390249, 5.5487804, 5.7317076, -0.0419623
-1.1064453, -0.0209961, 0.034668, -14.7560978, 4.6951222, 5.7317076, -0.0365911
-1.1069336, -0.0195312, 0.043457, -14.4512196, 3.5975611, 5.670732, -0.0386053
-1.112793, -0.0146484, 0.0566406, -14.0243902, 3.3536587, 5.7926831, -0.0382696
-1.1166992, -0.0146484, 0.0629883, -13.4146347, 2.8658538, 5, -0.0486763
-1.121582, -0.0087891, 0.078125, -12.9268293, 2.6219513, 4.9390244, -0.0594186
-1.1298828, 0.0078125, 0.0839844, -12.1341467, 1.8292683, 4.6951222, -0.056733
-1.1328125, 0.0146484, 0.0874023, -11.9512196, 1.097561, 4.390244, -0.0533761
-1.1362305, 0.0229492, 0.09375, -12.1341467, 0.5487805, 4.0853658, -0.0446479
-1.137207, 0.0249023, 0.0957031, -12.0731707, -0.9146342, 3.3536587, -0.0379339
-1.1401367, 0.027832, 0.1025391, -12.0121956, -1.5243902, 3.0487804, -0.0288701
-1.137207, 0.027832, 0.1044922, -12.1951218, -3.1707318, 2.6219513, -0.0231632
-1.1381836, 0.0229492, 0.105957, -11.9512196, -3.7804878, 2.195122, -0.0231632
-1.1357422, 0.0166016, 0.105957, -11.1585369, -4.5731707, 1.6463414, -0.0248417
-1.1367188, 0.0141602, 0.1103516, -11.0975609, -5, 1.2195122, -0.0271916
-1.1386719, 0.0112305, 0.1118164, -10.4268293, -6.1585369, 0.9146342, -0.0298772
-1.1459961, 0.0112305, 0.1147461, -10.2439022, -6.1585369, 0.7926829, -0.0325628
-1.1430664, 0.0170898, 0.1235352, -9.4512196, -7.7439027, 0.8536586, -0.0379339
-1.1416016, 0.0200195, 0.1254883, -9.0853662, -8.5365858, 0.7317073, -0.0409552
-1.1347656, 0.0209961, 0.1230469, -8.841464, -9.0853662, 0.6097561, -0.0386053
-1.1303711, 0.0244141, 0.1171875, -7.9268293, -9.9390249, 0.4268293, -0.0372625
-1.1191406, 0.0224609, 0.112793, -7.5609756, -10.3048782, 0.2439024, -0.0486763
-1.1171875, 0.0258789, 0.1137695, -7.1951222, -11.0975609, 0.0609756, -0.0574044
-1.1069336, 0.0307617, 0.1083984, -6.7682929, -11.6463413, -0.1829268, -0.0580758
-1.1040039, 0.0292969, 0.1088867, -6.5243902, -12.3780489, -0.4268293, -0.0520333
-1.0981445, 0.0297852, 0.1040039, -6.280488, -12.6829271, -0.3658537, -0.0433051
-1.0893555, 0.0297852, 0.1064453, -6.0975609, -13.5365858, -0.6097561, -0.0392767
-1.0756836, 0.0292969, 0.097168, -5.7926831, -13.780488, -0.6707317, -0.0352483
-1.0683594, 0.0263672, 0.0932617, -5.3048782, -14.5731707, -0.4878049, -0.0359197
-1.0639648, 0.0224609, 0.090332, -4.2682929, -15.6707325, -0.6707317, -0.0305486
-1.0605469, 0.0224609, 0.0864258, -3.8414636, -16.0365849, -0.6707317, -0.03122
-1.0498047, 0.0214844, 0.0864258, -3.1097562, -16.7073174, -0.7317073, -0.0352483
-1.0415039, 0.0175781, 0.0751953, -2.5, -17.1951218, -0.8536586, -0.0365911
-1.0410156, 0.0131836, 0.0712891, -1.4634147, -17.6829281, -0.9146342, -0.0369268
-1.0400391, 0.0087891, 0.0610352, -0.6707317, -18.0487804, -0.7926829, -0.038941
-1.0356445, 0.0107422, 0.0571289, 0.7926829, -18.9634151, -0.6707317, -0.0396124
-1.0288086, 0.012207, 0.0458984, 1.2804878, -19.2073174, -0.4268293, -0.0386053
-1.0239258, 0.0175781, 0.0419922, 2.6219513, -19.8780499, -0.3658537, -0.0365911
-1.0234375, 0.0175781, 0.0395508, 3.2317073, -20.6097565, -0.3048781, -0.0379339
-1.0141602, 0.0224609, 0.0366211, 3.9024391, -21.2195129, -0.0609756, -0.0379339
-1.0073242, 0.0234375, 0.0327148, 4.7560978, -22.1341476, 0.2439024, -0.0379339
-1.0053711, 0.0249023, 0.0317383, 5.3658538, -22.3780499, 0.2439024, -0.0433051
-0.9995117, 0.0292969, 0.0263672, 6.280488, -23.1097565, 0.3658537, -0.0453193
-0.9868164, 0.0307617, 0.0205078, 7.0121951, -23.2926826, 0.3048781, -0.0419623
-0.9863281, 0.0302734, 0.0146484, 7.6829271, -23.9024391, 0.4268293, -0.0379339
-0.9794922, 0.0356445, 0.0083008, 8.1707315, -23.9024391, 0.3658537, -0.0359197
-0.9682617, 0.0322266, 0.0048828, 8.5975609, -24.4512196, 0.3658537, -0.0399481
-0.972168, 0.0302734, 0.0014648, 8.719512, -24.6951218, 0.3658537, -0.0382696
-0.9692383, 0.0292969, 0.0024414, 8.9634151, -25.1219521, 0.3048781, -0.0352483
-0.9628906, 0.0268555, 0.0102539, 9.1463413, -25.2439022, 0.3048781, -0.0379339
-0.9575195, 0.0244141, 0.019043, 9.5731707, -25.7317085, 0.3048781, -0.0359197
-0.9545898, 0.0239258, 0.0229492, 10.1219511, -25.4268303, 0.1829268, -0.0359197
-0.9453125, 0.0234375, 0.0224609, 10.7317076, -25.3048782, 0.3048781, -0.0352483
-0.9428711, 0.0209961, 0.019043, 11.7073174, -24.9390259, 0.3048781, -0.0382696
-0.9389648, 0.0170898, 0.0102539, 12.560976, -24.4512196, 0.1219512, -0.0392767
-0.9394531, 0.0146484, 0.0053711, 13.1707315, -24.0853672, 0.2439024, -0.0433051
-0.9267578, 0.0068359, 0, 13.780488, -24.0853672, 0.4878049, -0.0433051
-0.9331055, 0.0078125, -0.0039062, 14.2073174, -23.780489, 0.4878049, -0.0433051
-0.9326172, 0.0004883, -0.0087891, 14.6341467, -23.4146347, 0.7926829, -0.0392767
-0.9326172, -0.003418, -0.0078125, 15.4878054, -22.2560978, 0.5487805, -0.0412909
-0.9375, -0.0009766, -0.0166016, 15.8536587, -21.7682934, 0.1829268, -0.042298
-0.9467773, 0, -0.0292969, 16.9512196, -21.1585369, 0.4878049, -0.0386053
-0.9487305, 0.0024414, -0.0336914, 17.9268303, -21.1585369, 0.1829268, -0.0365911
-0.9526367, 0.0078125, -0.0478516, 18.2317085, -20.9146347, 0.3048781, -0.0399481
-0.953125, 0.0151367, -0.0512695, 18.3536587, -20.7317085, 0.3048781, -0.0406195
-0.9545898, 0.0249023, -0.0498047, 18.1707325, -20.6097565, 0.3658537, -0.0446479
-0.953125, 0.0283203, -0.046875, 17.7439022, -20.3048782, 0.1219512, -0.0466621
-0.9550781, 0.0410156, -0.043457, 17.6219521, -19.939024, -0.0609756, -0.0406195
-0.9516602, 0.0429688, -0.0390625, 17.6829281, -18.9024391, -0.2439024, -0.0365911
-0.9477539, 0.0458984, -0.0488281, 17.8048782, -18.6585369, -0.4878049, -0.038941
-0.9501953, 0.050293, -0.0527344, 18.0487804, -17.3170738, -0.8536586, -0.0379339
-0.9477539, 0.0507812, -0.0639648, 17.9268303, -16.7682934, -1.402439, -0.0386053
-0.9511719, 0.0576172, -0.074707, 17.1951218, -15.7926836, -2.0121951, -0.0352483
-0.953125, 0.0566406, -0.0766602, 16.280489, -14.2682934, -3.0487804, -0.0339055
-0.9599609, 0.0522461, -0.0820312, 15.4878054, -13.7195129, -3.1097562, -0.0359197
-0.9619141, 0.0517578, -0.0830078, 14.6951227, -13.0487804, -4.0243902, -0.0352483
-0.9711914, 0.0424805, -0.0878906, 14.2073174, -12.6219511, -4.4512196, -0.0298772
-0.9755859, 0.0380859, -0.0883789, 13.780488, -12.1341467, -5.0609756, -0.0298772
-0.9750977, 0.0302734, -0.0927734, 13.5365858, -11.4634151, -5.2439027, -0.027863
-0.9770508, 0.0263672, -0.0947266, 12.560976, -10.4878054, -5.4878049, -0.0285344
-0.9833984, 0.0209961, -0.0932617, 12.3780489, -9.9390249, -5.7317076, -0.0298772
-0.9853516, 0.0170898, -0.0913086, 12.560976, -8.9024391, -5.609756, -0.0302129
-0.9892578, 0.0126953, -0.0932617, 12.8658543, -7.6829271, -6.3414636, -0.0325628
-0.9931641, 0.0161133, -0.0952148, 13.1097565, -7.0731707, -6.1585369, -0.0345769
-0.9980469, 0.0151367, -0.0996094, 12.9878054, -5.7926831, -6.6463418, -0.0325628
-0.9951172, 0.0180664, -0.0957031, 12.9268293, -5.3658538, -6.7682929, -0.0345769
-0.9970703, 0.0200195, -0.0932617, 12.6219511, -4.1463413, -7.1341467, -0.0328985
-1.0058594, 0.027832, -0.0966797, 12.560976, -3.4146342, -7.2560978, -0.0318914
-1.0063477, 0.0249023, -0.0961914, 12.0731707, -2.3170731, -7.3170733, -0.0285344
-1.0068359, 0.0268555, -0.0986328, 12.1951218, -1.2195122, -7.1951222, -0.0325628
-1.0078125, 0.0263672, -0.0981445, 11.7073174, -0.1829268, -7.8048782, -0.0339055
-1.0078125, 0.0288086, -0.0981445, 11.341464, 0.3658537, -7.7439027, -0.0315557
-1.0112305, 0.0268555, -0.1015625, 10.4268293, 1.3414634, -7.8048782, -0.03122
-1.0107422, 0.0244141, -0.0947266, 9.5121956, 2.5609756, -8.1707315, -0.0288701
-1.0117188, 0.0249023, -0.0957031, 8.9024391, 3.0487804, -8.1097565, -0.0258488
-1.0107422, 0.0253906, -0.0957031, 8.4756098, 4.2073174, -8.1097565, -0.027863
-1.0102539, 0.0200195, -0.0961914, 8.5975609, 5.0609756, -8.4756098, -0.0285344
-1.0102539, 0.0185547, -0.0996094, 8.1097565, 6.4024391, -8.4756098, -0.024506
-1.0068359, 0.015625, -0.1069336, 7.7439027, 7.0121951, -8.9634151, -0.0285344
-1.0029297, 0.0141602, -0.1123047, 6.890244, 7.9268293, -8.9024391, -0.0298772
-1.0058594, 0.0107422, -0.1079102, 6.280488, 8.4146347, -9.0853662, -0.0325628
-1.0063477, 0.0112305, -0.1088867, 5.3048782, 9.2682924, -8.9634151, -0.0325628
-1.0136719, 0.0024414, -0.1088867, 5, 9.6341467, -9.3902445, -0.0332341
-1.0151367, 0.0019531, -0.1079102, 4.0853658, 10.5487804, -9.0853662, -0.0325628
-1.0097656, -0.012207, -0.105957, 4.2682929, 11.7073174, -8.9024391, -0.0339055
-1.0058594, -0.0146484, -0.1142578, 4.2682929, 12.0121956, -8.9634151, -0.0352483
-1.0083008, -0.019043, -0.1162109, 4.2682929, 12.4390249, -8.2317076, -0.0332341
-1.0097656, -0.0180664, -0.1181641, 4.4512196, 12.8048782, -8.1707315, -0.0352483
-1.0097656, -0.0195312, -0.1142578, 3.9634147, 13.1097565, -7.5, -0.0365911
-0.9990234, -0.0209961, -0.1040039, 3.7195122, 13.4756098, -7.1341467, -0.0386053
-0.9985352, -0.015625, -0.0981445, 3.7195122, 14.6951227, -6.5853658, -0.0419623
-0.9902344, -0.0161133, -0.1000977, 3.7195122, 15.060976, -6.4024391, -0.0439765
-0.9873047, -0.0146484, -0.0976562, 4.390244, 16.2195129, -6.2195125, -0.0459907
-0.9785156, -0.0068359, -0.0976562, 4.2682929, 16.6463413, -6.0975609, -0.0406195
-0.9765625, -0.0063477, -0.1015625, 4.390244, 17.439024, -5.609756, -0.0392767
-0.9716797, -0.0131836, -0.1035156, 3.8414636, 18.1707325, -4.8780489, -0.0436408
-0.9750977, -0.0141602, -0.0991211, 3.3536587, 18.5975609, -4.7560978, -0.0392767
-0.9677734, -0.0151367, -0.0957031, 3.1707318, 19.0853672, -4.3292685, -0.0342412
-0.9677734, -0.0185547, -0.0898438, 3.1097562, 19.6341476, -4.0243902, -0.0248417
-0.9707031, -0.0229492, -0.0849609, 3.5365853, 20.1219521, -3.7195122, -0.0204776
-0.9672852, -0.0332031, -0.0859375, 3.8414636, 20.3048782, -3.4756098, -0.0248417
-0.9711914, -0.0341797, -0.0932617, 4.9390244, 20.9146347, -2.5, -0.0251774
-0.9667969, -0.0390625, -0.0996094, 5.3048782, 21.1585369, -2.0731707, -0.0325628
-0.9658203, -0.0429688, -0.1044922, 5.7317076, 21.9512196, -1.097561, -0.0365911
-0.9599609, -0.0458984, -0.109375, 5.9756098, 22.1951218, -0.5487805, -0.0406195
-0.9609375, -0.0478516, -0.1079102, 6.280488, 22.1341476, 0.3048781, -0.0406195
-0.9550781, -0.0463867, -0.1020508, 6.890244, 22.1341476, 0.9756098, -0.0365911
-0.9477539, -0.0419922, -0.1005859, 7.3170733, 22.2560978, 1.4634147, -0.0352483
-0.9418945, -0.0410156, -0.1010742, 7.8048782, 22.8658543, 1.9512196, -0.0318914
-0.9433594, -0.0336914, -0.1005859, 8.4146347, 23.0487804, 2.4390244, -0.03122
-0.9414062, -0.027832, -0.1035156, 9.0243902, 23.3536587, 2.9268293, -0.0325628
-0.9506836, -0.0234375, -0.112793, 9.1463413, 23.4146347, 2.8658538, -0.03122
-0.9472656, -0.0244141, -0.1074219, 9.5731707, 23.4756107, 3.0487804, -0.0231632
-0.9516602, -0.0288086, -0.1108398, 9.5121956, 23.4146347, 3.1707318, -0.0271916
-0.9521484, -0.0263672, -0.1142578, 9.9390249, 23.5975609, 3.5365853, -0.0305486
-0.9589844, -0.0209961, -0.1171875, 9.9390249, 23.780489, 3.9024391, -0.0339055
-0.9643555, -0.0214844, -0.1113281, 10.4878054, 24.0853672, 4.0853658, -0.0332341
-0.9697266, -0.0161133, -0.1132812, 10.8536587, 24.5731716, 4.4512196, -0.03122
-0.9697266, -0.0053711, -0.1186523, 11.0975609, 24.7560978, 4.7560978, -0.03122
-0.9663086, -0.0024414, -0.1191406, 11.6463413, 24.3902435, 5.1219511, -0.0345769
-0.9731445, 0.0014648, -0.1274414, 11.6463413, 24.1463413, 5.2439027, -0.0352483
-0.9726562, 0.0092773, -0.1274414, 11.4024391, 23.5365868, 5.3048782, -0.0359197
-0.9790039, 0.0195312, -0.1254883, 10.9756098, 23.1707325, 5.2439027, -0.0379339
-0.9765625, 0.0205078, -0.1230469, 10.3048782, 22.8048782, 5.3048782, -0.0365911
-0.9785156, 0.0219727, -0.1147461, 9.9390249, 22.439024, 5.2439027, -0.0365911
-0.9785156, 0.0166016, -0.1103516, 9.0243902, 22.1341476, 4.6951222, -0.0352483
-0.9814453, 0.0024414, -0.1020508, 8.780488, 21.8292694, 4.7560978, -0.03122
-0.9863281, -0.0043945, -0.1015625, 8.4756098, 21.2195129, 4.9390244, -0.0298772
-0.9833984, -0.0249023, -0.0854492, 8.9634151, 20.9146347, 5.5487804, -0.0238346
-0.9897461, -0.0405273, -0.0712891, 9.3902445, 20.7926826, 5.7926831, -0.0224918
-0.9858398, -0.0444336, -0.0654297, 10.9146347, 21.2195129, 6.2195125, -0.0251774
-0.9868164, -0.0449219, -0.059082, 11.5853662, 21.5243912, 6.890244, -0.0265202
-0.9858398, -0.0458984, -0.0605469, 13.780488, 22.5, 7.5609756, -0.0285344
-0.9868164, -0.0400391, -0.0600586, 14.6341467, 22.6829281, 7.9268293, -0.0339055
-0.987793, -0.03125, -0.0600586, 15.9756098, 23.9634151, 8.6585369, -0.0325628
-0.9916992, -0.0126953, -0.0625, 16.4634151, 24.4512196, 8.9024391, -0.0271916
-0.9946289, 0, -0.0664062, 17.1341476, 25.4878063, 9.2682924, -0.0258488
-0.9863281, 0.0239258, -0.0766602, 16.8292694, 25.7317085, 9.3902445, -0.0325628
-0.9912109, 0.0439453, -0.0883789, 15.6097565, 26.7682934, 9.5731707, -0.0339055
-0.9897461, 0.050293, -0.0932617, 13.6585369, 27.2560978, 8.6585369, -0.0386053
-0.9902344, 0.0615234, -0.1054688, 12.1951218, 27.0121956, 8.5365858, -0.0379339
-0.9907227, 0.0581055, -0.1118164, 10.3048782, 27.4390259, 7.5609756, -0.0365911
-0.996582, 0.0571289, -0.1303711, 9.6951218, 27.4390259, 6.9512196, -0.03122
-0.9936523, 0.050293, -0.140625, 8.4146347, 27.8658543, 5.8536587, -0.0292058
-1.0043945, 0.0410156, -0.1474609, 7.3780489, 28.2317085, 5.670732, -0.0265202
-1.0107422, 0.0341797, -0.1479492, 6.0365853, 27.9878063, 5.4878049, -0.0292058
-1.0195312, 0.0214844, -0.1499023, 5, 27.8658543, 5.2439027, -0.03122
-1.0229492, 0.0112305, -0.1479492, 3.9024391, 26.8292694, 5.4878049, -0.0325628
-1.0317383, 0, -0.1464844, 3.6585367, 25.9756107, 5.7926831, -0.0325628
-1.03125, -0.0053711, -0.1484375, 4.1463413, 25.4268303, 6.4024391, -0.0302129
-1.0327148, -0.0087891, -0.1533203, 4.8170733, 24.4512196, 7.0121951, -0.0302129
-1.0351562, -0.0126953, -0.1586914, 5.2439027, 24.2073174, 7.3780489, -0.0251774
-1.0356445, -0.0112305, -0.1601562, 6.2195125, 23.4756107, 8.1097565, -0.0298772
-1.0375977, -0.0053711, -0.1738281, 6.890244, 22.9878063, 8.5365858, -0.03122
-1.0371094, -0.0009766, -0.1757812, 7.6829271, 21.3414631, 8.4146347, -0.0359197
-1.0366211, 0.0039062, -0.1918945, 8.1707315, 20.7926826, 8.5975609, -0.0406195
-1.0424805, 0.0078125, -0.1992188, 8.9634151, 19.2682934, 8.2926826, -0.0399481
-1.0488281, 0.0087891, -0.2070312, 9.2682924, 18.4146347, 8.1707315, -0.0379339
-1.050293, 0.0126953, -0.2060547, 9.7560978, 15.8536587, 8.0487804, -0.0372625
-1.0581055, 0.0131836, -0.2075195, 9.6951218, 14.7560978, 8.1707315, -0.0406195
-1.0610352, 0.0185547, -0.2021484, 9.4512196, 12.0731707, 9.3292685, -0.0419623
-1.0556641, 0.0185547, -0.1972656, 10.5487804, 10.1219511, 9.8780489, -0.0406195
-1.0551758, 0.0166016, -0.1914062, 10.6707315, 9.1463413, 10.2439022, -0.0419623
-1.0517578, 0.0224609, -0.1879883, 10.7317076, 7.9268293, 11.219512, -0.0419623
-1.0454102, 0.0253906, -0.1777344, 10.6097565, 7.0121951, 11.5853662, -0.0392767
-1.0458984, 0.0317383, -0.1699219, 9.6341467, 5.8536587, 11.8902445, -0.0379339
-1.0332031, 0.0449219, -0.15625, 8.9024391, 5.609756, 12.1951218, -0.0386053
-1.0292969, 0.0522461, -0.1445312, 7.3780489, 5.609756, 11.7682934, -0.0392767
-1.0224609, 0.0546875, -0.1303711, 6.6463418, 5.5487804, 11.5853662, -0.0433051
-1.0161133, 0.0537109, -0.1264648, 5.2439027, 5.1219511, 11.280488, -0.0433051
-1.0019531, 0.0400391, -0.1308594, 4.8780489, 4.9390244, 11.341464, -0.0409552
-0.9931641, 0.0302734, -0.1206055, 4.8170733, 4.8780489, 11.7073174, -0.0379339
-0.9912109, 0.0219727, -0.1069336, 4.0853658, 5.2439027, 11.6463413, -0.0339055
-0.9873047, 0.019043, -0.09375, 3.8414636, 5.9756098, 11.8902445, -0.0345769
-0.9892578, 0.0161133, -0.0898438, 4.8780489, 7.6829271, 12.1951218, -0.0345769
-0.9882812, 0.0288086, -0.0957031, 5.7317076, 8.3536587, 11.7682934, -0.0352483
-0.9941406, 0.0288086, -0.1108398, 7.5609756, 9.4512196, 11.5853662, -0.0352483
-1.0039062, 0.0493164, -0.1367188, 8.5975609, 9.4512196, 11.219512, -0.0379339
-1.0097656, 0.0541992, -0.1538086, 9.3902445, 9.8170738, 11.1585369, -0.0379339
-1.0205078, 0.0722656, -0.1850586, 9.2682924, 9.8170738, 11.219512, -0.0392767
-1.0268555, 0.0844727, -0.1943359, 8.1707315, 9.2073174, 11.0365858, -0.0392767
-1.0317383, 0.0981445, -0.2124023, 7.8658538, 8.1097565, 11.280488, -0.0433051
-1.0307617, 0.1040039, -0.2304688, 6.9512196, 6.6463418, 11.5243902, -0.0433051
-1.0253906, 0.1035156, -0.2348633, 5.4268293, 4.6341462, 11.5243902, -0.0486763
-1.0214844, 0.1000977, -0.2333984, 5, 3.4146342, 11.0365858, -0.0459907
-1.0180664, 0.0981445, -0.2333984, 4.390244, 1.097561, 10.3658543, -0.0513619
-1.012207, 0.0854492, -0.2294922, 4.2073174, 0.0609756, 9.8780489, -0.0513619
-1.0048828, 0.0771484, -0.230957, 3.9024391, -2.3170731, 9.5731707, -0.0496834
-1.0039062, 0.0610352, -0.2246094, 3.9634147, -3.2317073, 9.3902445, -0.0506905
-1, 0.0605469, -0.2202148, 4.2682929, -4.5121951, 9.1463413, -0.0486763
-0.9956055, 0.0576172, -0.2124023, 4.5121951, -5.1829271, 9.1463413, -0.0527047
-0.9936523, 0.0561523, -0.2094727, 5.0609756, -6.7073174, 9.0243902, -0.0553902
-0.9912109, 0.0644531, -0.2055664, 5, -7.1341467, 8.719512, -0.0553902
-0.9936523, 0.0683594, -0.1958008, 5.9146342, -8.0487804, 8.0487804, -0.0540475
-0.996582, 0.0693359, -0.1933594, 6.7073174, -8.5365858, 7.5, -0.0547189
-1.003418, 0.0732422, -0.190918, 7.0121951, -9.1463413, 7.2560978, -0.0540475
-1.0063477, 0.0742188, -0.1879883, 7.1951222, -9.5121956, 6.7073174, -0.0466621
-1.0170898, 0.081543, -0.1826172, 7.1951222, -9.5121956, 6.7682929, -0.0500191
-1.0195312, 0.0854492, -0.1821289, 7.8048782, -10, 6.8292685, -0.0486763
-1.012207, 0.0957031, -0.184082, 7.4390244, -10, 6.9512196, -0.0459907
-1.0083008, 0.1035156, -0.1889648, 5.9146342, -10.3048782, 6.9512196, -0.0446479
-0.9975586, 0.1098633, -0.1958008, 4.3292685, -10.7317076, 6.9512196, -0.0439765
-0.9887695, 0.1088867, -0.1943359, 1.0365853, -11.5853662, 6.4634147, -0.0439765
-0.980957, 0.0932617, -0.1748047, -0.8536586, -12.1951218, 6.2195125, -0.0436408
-0.9741211, 0.0673828, -0.1396484, -3.7195122, -12.5, 5.5487804, -0.0419623
-0.972168, 0.0576172, -0.1225586, -4.6951222, -11.341464, 5, -0.0386053
-0.9643555, 0.0385742, -0.1030273, -3.7804878, -10.3658543, 4.9390244, -0.0446479
-0.9628906, 0.0283203, -0.1040039, -1.7682927, -8.4756098, 4.3292685, -0.0406195
-0.96875, 0.0268555, -0.1118164, -0.6707317, -6.7682929, 4.1463413, -0.0399481
-0.9726562, 0.0371094, -0.128418, 0.8536586, -4.390244, 3.7804878, -0.0379339
-0.984375, 0.0585938, -0.1484375, 1.402439, -3.2317073, 3.4756098, -0.0406195
-0.9941406, 0.0776367, -0.1665039, 1.9512196, -1.1585366, 3.2317073, -0.0433051
-1.0136719, 0.1083984, -0.1962891, 2.0121951, -0.5487805, 2.9878049, -0.0419623
-1.0214844, 0.1293945, -0.2070312, 0.9146342, 0.1219512, 2.804878, -0.0459907
-1.034668, 0.1513672, -0.2368164, -1.2195122, -0.0609756, 2.2560976, -0.0480049
-1.0424805, 0.1523438, -0.2651367, -3.0487804, -0.4268293, 1.5853659, -0.0513619
-1.0493164, 0.1464844, -0.2758789, -7.2560978, -2.0121951, 0.3658537, -0.0412909
-1.0493164, 0.1220703, -0.2880859, -9.3902445, -2.5, 0.1829268, -0.0419623
-1.0522461, 0.1035156, -0.2866211, -12.7439032, -3.8414636, 0.0609756, -0.0459907
-1.0537109, 0.0605469, -0.2695312, -13.9634151, -4.5731707, -0.1219512, -0.0453193
-1.046875, 0.0405273, -0.2626953, -14.8780489, -5.8536587, 0, -0.0453193
-1.0454102, 0.012207, -0.2509766, -14.8780489, -5.8536587, 0.0609756, -0.0486763
-1.0454102, 0.0004883, -0.2416992, -13.6585369, -6.890244, 0.3048781, -0.0459907
-1.0415039, -0.0039062, -0.2304688, -13.2926836, -7.0731707, 0.7317073, -0.0459907
-1.0371094, 0.0004883, -0.2260742, -12.4390249, -6.5853658, 1.6463414, -0.0480049
-1.0268555, 0.0039062, -0.2231445, -10.8536587, -6.0365853, 2.6219513, -0.0439765
-1.0209961, 0.0136719, -0.2231445, -9.7560978, -6.4024391, 2.6829269, -0.0392767
-1.0209961, 0.019043, -0.2280273, -7.3780489, -7.5609756, 3.1097562, -0.0433051
-1.0131836, 0.0288086, -0.234375, -7.1341467, -8.2926826, 3.2317073, -0.0439765
-1.0063477, 0.0302734, -0.2373047, -8.0487804, -9.0853662, 3.0487804, -0.0406195
-1.0004883, 0.0297852, -0.2348633, -8.6585369, -8.841464, 3.1707318, -0.0392767
-1, 0.0332031, -0.2285156, -9.7560978, -8.3536587, 3.3536587, -0.0382696
-1.0102539, 0.0297852, -0.2148438, -10.1219511, -8.4146347, 3.4756098, -0.0409552
-1.0083008, 0.027832, -0.2138672, -10.6097565, -9.0853662, 3.5975611, -0.0409552
-1.0048828, 0.0234375, -0.21875, -10.7926836, -9.2682924, 4.1463413, -0.0459907
-1, 0.0170898, -0.222168, -11.1585369, -9.3902445, 4.7560978, -0.0480049
-0.987793, 0.0161133, -0.2255859, -11.0365858, -8.5975609, 5.4268293, -0.0506905
-0.9794922, 0.0180664, -0.2255859, -11.341464, -7.7439027, 5.7926831, -0.0493477
-0.9716797, 0.0209961, -0.2192383, -11.7073174, -6.8292685, 6.5243902, -0.0459907
-0.9624023, 0.0390625, -0.206543, -11.9512196, -6.1585369, 6.5853658, -0.0439765
-0.9580078, 0.0429688, -0.2026367, -12.5, -5.1829271, 5.8536587, -0.0446479
-0.9575195, 0.0581055, -0.1943359, -12.7439032, -4.3292685, 5.670732, -0.0409552
-0.9619141, 0.0605469, -0.1948242, -12.3780489, -3.4756098, 5.3048782, -0.0419623
-0.9643555, 0.0654297, -0.2143555, -12.7439032, -2.8658538, 4.9390244, -0.0419623
-0.9648438, 0.0664062, -0.2255859, -12.9878054, -1.7073171, 4.390244, -0.0386053
-0.9716797, 0.0668945, -0.2460938, -13.2926836, -1.6463414, 4.0853658, -0.0406195
-0.9799805, 0.065918, -0.2509766, -14.3292685, -1.2804878, 3.9024391, -0.0406195
-0.9912109, 0.0571289, -0.2573242, -15.7317076, -1.3414634, 3.7195122, -0.0426337
-0.9936523, 0.0527344, -0.2583008, -16.2195129, -1.4634147, 3.7195122, -0.0439765
-0.9926758, 0.050293, -0.2504883, -16.4024391, -1.5243902, 3.7804878, -0.0406195
-1.0024414, 0.0449219, -0.2539062, -16.1585369, -1.9512196, 3.6585367, -0.0412909
-1.0073242, 0.0444336, -0.2587891, -15, -2.1341465, 3.2926829, -0.0406195
-1.0200195, 0.046875, -0.2753906, -14.6341467, -2.5, 3.4146342, -0.0406195
-1.0249023, 0.0463867, -0.2841797, -14.7560978, -3.1707318, 4.0853658, -0.0426337
-1.0249023, 0.0507812, -0.2910156, -15, -3.8414636, 4.2682929, -0.0433051
-1.0219727, 0.0532227, -0.2939453, -15.9756098, -4.6341462, 4.5121951, -0.0473335
-1.0175781, 0.0581055, -0.2998047, -16.1585369, -5.2439027, 4.5731707, -0.0463264
-1.0136719, 0.0561523, -0.2983398, -16.6463413, -6.3414636, 4.8780489, -0.0493477
-1.0004883, 0.0522461, -0.2880859, -17.3780499, -7.0731707, 5.0609756, -0.0480049
-0.9912109, 0.0449219, -0.2709961, -17.8658543, -7.5, 5.1219511, -0.0466621
-0.9863281, 0.0444336, -0.2587891, -18.1707325, -7.7439027, 5.3658538, -0.0459907
-0.9785156, 0.046875, -0.230957, -18.2926826, -7.6219516, 5.3658538, -0.0433051
-0.9760742, 0.0449219, -0.2158203, -18.0487804, -6.7682929, 5.1829271, -0.0466621
-0.9833984, 0.0488281, -0.2026367, -18.2926826, -6.3414636, 5, -0.0419623
-0.9848633, 0.0517578, -0.2016602, -17.8658543, -5.5487804, 5.1829271, -0.0433051
-0.9804688, 0.0610352, -0.1967773, -18.2317085, -5.3048782, 5.4878049, -0.0453193
-0.9746094, 0.0683594, -0.1943359, -18.8414631, -4.2073174, 5.8536587, -0.042298
-0.9667969, 0.0776367, -0.1977539, -19.1463413, -3.8414636, 5.7317076, -0.0406195
-0.9648438, 0.0717773, -0.2021484, -20.3048782, -2.5609756, 5.1829271, -0.0449836
-0.9570312, 0.0751953, -0.2177734, -21.280489, -0.7317073, 5.0609756, -0.0473335
-0.9575195, 0.0668945, -0.2338867, -22.1951218, 0, 4.9390244, -0.0459907
-0.9560547, 0.0639648, -0.2363281, -23.1097565, 0.9146342, 5.1219511, -0.0459907
-0.9575195, 0.0483398, -0.2470703, -23.8414631, 0.9756098, 5.1829271, -0.0473335
-0.9550781, 0.0415039, -0.2451172, -24.5121956, 1.8292683, 5.4878049, -0.0486763
-0.9516602, 0.0341797, -0.2416992, -25, 2.2560976, 5.7317076, -0.0493477
-0.9526367, 0.03125, -0.2412109, -24.1463413, 3.5365853, 5.9756098, -0.0506905
-0.9570312, 0.0361328, -0.2402344, -23.7195129, 4.2682929, 5.9146342, -0.0473335
-0.9599609, 0.0405273, -0.2475586, -22.3170738, 4.9390244, 5.1829271, -0.0446479
-0.9667969, 0.050293, -0.253418, -21.6463413, 5.2439027, 5.1219511, -0.0459907
-0.9858398, 0.0664062, -0.2666016, -20.7317085, 5.7317076, 5.0609756, -0.0446479
-0.9916992, 0.0688477, -0.2739258, -20, 6.2195125, 4.6951222, -0.0459907
-1.012207, 0.0893555, -0.2944336, -19.939024, 6.2195125, 4.6951222, -0.0473335
-1.0200195, 0.0913086, -0.3051758, -19.7560978, 5.1829271, 4.2682929, -0.0500191
-1.0332031, 0.1010742, -0.3305664, -20.1219521, 4.5731707, 4.1463413, -0.0446479
-1.0405273, 0.0996094, -0.3422852, -20.9756107, 3.1707318, 3.9024391, -0.0439765
-1.0581055, 0.0888672, -0.3652344, -21.9512196, 2.2560976, 3.3536587, -0.0647898
-1.0625, 0.0825195, -0.3710938, -23.4756107, 0.3048781, 3.0487804, -0.081239
-1.0771484, 0.0639648, -0.3833008, -23.9024391, -1.0365853, 3.1707318, -0.0829175
-1.0761719, 0.0507812, -0.3803711, -24.6951218, -3.5365853, 3.4756098, -0.0715038
-1.0805664, 0.0317383, -0.3779297, -24.6951218, -4.8780489, 3.4756098, -0.06009
-1.0776367, 0.015625, -0.3676758, -23.6585369, -7.4390244, 4.0853658, -0.0446479
-1.0830078, 0.0112305, -0.3676758, -22.3780499, -10, 4.3292685, -0.0298772
-1.081543, 0.0083008, -0.3613281, -21.1585369, -11.0365858, 4.5731707, -0.0204776
-1.0834961, 0.0161133, -0.3632812, -18.780489, -12.3170738, 5.4268293, -0.0117494
-1.0810547, 0.03125, -0.3583984, -17.560976, -13.4756098, 5.670732, -0.0117494
-1.0805664, 0.0419922, -0.3574219, -16.3414631, -15.7317076, 6.0365853, -0.0204776
-1.0722656, 0.0644531, -0.3408203, -16.1585369, -16.7682934, 6.5243902, -0.024506
-1.0629883, 0.0795898, -0.3251953, -15.9146347, -18.9634151, 7.1951222, -0.0285344
-1.0507812, 0.1079102, -0.2890625, -15.8536587, -19.6341476, 7.4390244, -0.0392767
-1.0444336, 0.1196289, -0.2753906, -15.4878054, -20.7926826, 7.5609756, -0.0433051
-1.0288086, 0.1401367, -0.2485352, -15.2439032, -21.0975609, 7.3170733, -0.0436408
-1.0141602, 0.1538086, -0.2280273, -15.6707325, -21.6463413, 6.4634147, -0.0412909
-1.0063477, 0.1547852, -0.215332, -15.6097565, -22.439024, 5.3658538, -0.0436408
-0.9975586, 0.1499023, -0.2021484, -15.8536587, -22.3780499, 4.6951222, -0.0365911
-0.9980469, 0.1489258, -0.1948242, -15.3658543, -22.5, 3.6585367, -0.035584
-1.0019531, 0.1376953, -0.1894531, -14.8170738, -22.439024, 2.9878049, -0.0325628
-1.0078125, 0.1293945, -0.1943359, -13.1707315, -21.9512196, 2.195122, -0.0288701
-1.0170898, 0.1196289, -0.2080078, -12.4390249, -22.2560978, 1.8902439, -0.0298772
-1.0219727, 0.1108398, -0.2158203, -11.0365858, -22.8658543, 1.9512196, -0.0285344
-1.0283203, 0.097168, -0.2329102, -10.3048782, -23.4756107, 2.0121951, -0.0255131
-1.0332031, 0.0922852, -0.2382812, -8.4756098, -24.5121956, 1.7073171, -0.0298772
-1.0429688, 0.0771484, -0.2407227, -7.4390244, -24.8780499, 1.3414634, -0.0305486
-1.0600586, 0.0810547, -0.2446289, -4.6951222, -25.9146347, 0.9146342, -0.0292058
-1.0703125, 0.0864258, -0.2451172, -1.5853659, -27.0121956, 1.097561, -0.0305486
-1.0712891, 0.1020508, -0.2416992, -0.4268293, -27.560976, 1.7682927, -0.0315557
-1.0708008, 0.1191406, -0.2338867, 0.7926829, -28.9634151, 2.804878, -0.0298772
-1.0566406, 0.1391602, -0.21875, 0.9756098, -29.6951218, 3.0487804, -0.027863
-1.0473633, 0.1499023, -0.2075195, 0.3048781, -30.6097565, 3.4756098, -0.0302129
-1.0244141, 0.1655273, -0.1850586, -0.3658537, -31.0975609, 3.2317073, -0.0345769
-1.0078125, 0.1635742, -0.1733398, -0.6707317, -31.0365868, 2.6219513, -0.0379339
-0.9848633, 0.1601562, -0.1567383, -0.6707317, -31.1585369, 1.9512196, -0.0392767
-0.9736328, 0.1582031, -0.1484375, -1.2195122, -30.5487804, 0.3658537, -0.0433051
-0.956543, 0.1425781, -0.1323242, -1.3414634, -30, -0.4878049, -0.0446479
-0.9375, 0.1313477, -0.1108398, -0.6707317, -28.9634151, -2.3780489, -0.0476692
-0.9365234, 0.1269531, -0.1035156, 0.6097561, -27.1951218, -4.2073174, -0.0486763
-0.9370117, 0.1166992, -0.1020508, 1.7073171, -25.9756107, -5.0609756, -0.0459907
-0.9394531, 0.1142578, -0.1030273, 4.6951222, -24.1463413, -6.890244, -0.0500191
-0.9545898, 0.1098633, -0.1142578, 6.0975609, -23.1097565, -7.6829271, -0.0459907
-0.9624023, 0.112793, -0.1186523, 7.5609756, -21.7682934, -8.719512, -0.0426337
-0.9731445, 0.1235352, -0.1264648, 7.9878049, -21.280489, -9.3902445, -0.0379339
-0.9790039, 0.1313477, -0.1254883, 8.5365858, -20.7317085, -9.6951218, -0.0379339
-0.9902344, 0.1342773, -0.1347656, 8.2926826, -20.2439022, -9.8170738, -0.0382696
-0.9916992, 0.1347656, -0.1391602, 9.0243902, -19.5731716, -10.5487804, -0.0439765
-0.9921875, 0.1352539, -0.1455078, 9.1463413, -19.8780499, -11.0365858, -0.0486763
-0.987793, 0.1347656, -0.1640625, 9.6341467, -19.3292694, -11.8292685, -0.0486763
-0.9882812, 0.1293945, -0.1723633, 9.5731707, -19.3292694, -13.0487804, -0.0503548
-0.9916992, 0.1171875, -0.2006836, 9.3902445, -19.2073174, -13.4756098, -0.0466621
-0.9946289, 0.1157227, -0.2124023, 8.841464, -19.7560978, -14.3902445, -0.0433051
-0.9960938, 0.1074219, -0.2314453, 8.4756098, -20.2439022, -14.5121956, -0.0433051
-0.996582, 0.1000977, -0.2333984, 6.890244, -21.4634151, -15, -0.0446479
-0.9975586, 0.090332, -0.2236328, 6.1585369, -21.8902435, -15.1219511, -0.0392767
-0.9960938, 0.0869141, -0.2094727, 4.5121951, -23.0487804, -15.7926836, -0.042298
-0.996582, 0.0795898, -0.190918, 3.9634147, -23.2926826, -15.8536587, -0.0352483
-0.9946289, 0.0776367, -0.1831055, 4.5121951, -23.7195129, -16.4024391, -0.0392767
-0.9951172, 0.0800781, -0.168457, 4.8170733, -23.9634151, -16.4634151, -0.0436408
-0.9916992, 0.0834961, -0.1660156, 6.2195125, -23.1707325, -17.2560978, -0.0436408
-0.9892578, 0.0898438, -0.168457, 6.6463418, -22.8658543, -17.439024, -0.0426337
-0.9960938, 0.0976562, -0.1669922, 7.1341467, -22.8048782, -17.8048782, -0.0433051
-0.9990234, 0.1054688, -0.1694336, 6.9512196, -22.3780499, -18.1707325, -0.0436408
-1.0009766, 0.1152344, -0.1728516, 6.7073174, -22.1951218, -18.1707325, -0.0446479
-1.0019531, 0.1196289, -0.1743164, 6.0975609, -22.1341476, -18.5365849, -0.0473335
-1.0058594, 0.1269531, -0.1831055, 5.670732, -22.1951218, -18.9024391, -0.0480049
-1.0039062, 0.1303711, -0.1904297, 4.0853658, -22.0731716, -19.8170738, -0.0449836
-0.9990234, 0.1245117, -0.2026367, 3.1707318, -21.8292694, -20.3658543, -0.0446479
-0.9995117, 0.1235352, -0.2036133, 0.7926829, -21.7073174, -21.4634151, -0.0433051
-1.0102539, 0.109375, -0.203125, -0.5487805, -21.5243912, -21.7682934, -0.0453193
-1.015625, 0.0869141, -0.1879883, -2.804878, -22.1341476, -22.439024, -0.0449836
-1.0175781, 0.0844727, -0.1791992, -4.5731707, -22.439024, -22.3780499, -0.0459907
-1.0146484, 0.0664062, -0.1625977, -5.1219511, -22.3170738, -22.0121956, -0.0459907
-1.0131836, 0.0615234, -0.1518555, -5.7317076, -21.7682934, -21.5853672, -0.0439765
-1.0146484, 0.046875, -0.1352539, -5.9146342, -21.4024391, -21.5853672, -0.0392767
-1.0141602, 0.0390625, -0.1328125, -5.5487804, -20.9756107, -22.0121956, -0.0409552
-1.015625, 0.0200195, -0.1337891, -5.3658538, -21.0975609, -22.1341476, -0.042298
-1.019043, 0.015625, -0.1362305, -4.2682929, -20.4878044, -22.3780499, -0.0459907
-1.0214844, 0.0053711, -0.1416016, -3.7804878, -20, -22.5, -0.0463264
-1.0229492, 0.0043945, -0.1474609, -3.1707318, -19.1463413, -21.6463413, -0.0493477
-1.0307617, -0.0063477, -0.1469727, -3.1097562, -18.3536587, -20.6707325, -0.0540475
-1.0322266, -0.0029297, -0.1518555, -2.9268293, -18.0487804, -19.8170738, -0.0530404
-1.03125, 0.0024414, -0.1479492, -2.9878049, -17.0121956, -18.8414631, -0.0513619
-1.043457, 0.0146484, -0.1479492, -2.804878, -16.7073174, -18.2317085, -0.0527047
-1.0439453, 0.015625, -0.1435547, -3.1097562, -15.9146347, -18.0487804, -0.0527047
-1.0415039, 0.0302734, -0.1508789, -2.8658538, -15.4268293, -17.9268303, -0.0527047
-1.0483398, 0.0327148, -0.1518555, -3.7804878, -14.2682934, -18.2317085, -0.0506905
-1.0546875, 0.0341797, -0.1523438, -4.4512196, -14.0243902, -18.1707325, -0.0469978
-1.0595703, 0.0327148, -0.1547852, -4.7560978, -13.2317076, -18.0487804, -0.049012
-1.0654297, 0.0332031, -0.15625, -4.8170733, -13.0487804, -17.9878044, -0.0486763
-1.0688477, 0.03125, -0.159668, -4.5731707, -12.9268293, -17.439024, -0.0473335
-1.0629883, 0.0302734, -0.1640625, -4.3292685, -12.4390249, -16.7682934, -0.0463264
-1.0668945, 0.0297852, -0.1767578, -4.5731707, -12.2560978, -16.280489, -0.0439765
-1.0703125, 0.034668, -0.1796875, -4.7560978, -11.8902445, -15.4268293, -0.0459907
-1.0644531, 0.0366211, -0.1865234, -5.1829271, -11.7073174, -15.3048782, -0.0516976
-1.0673828, 0.0375977, -0.1850586, -5.8536587, -11.8292685, -14.3902445, -0.056733
-1.0610352, 0.0327148, -0.1845703, -6.3414636, -11.7682934, -14.2682934, -0.0480049
-1.0512695, 0.0283203, -0.1777344, -7.5, -11.9512196, -13.841464, -0.0439765
-1.0415039, 0.0200195, -0.1655273, -7.9878049, -12.0121956, -13.841464, -0.0459907
-1.0351562, 0.015625, -0.1621094, -8.6585369, -12.1341467, -12.9268293, -0.0419623
-1.0244141, 0.0009766, -0.1459961, -8.719512, -11.8292685, -12.6219511, -0.0392767
-1.0170898, -0.0087891, -0.1416016, -9.4512196, -10.6097565, -11.8902445, -0.0426337
-1.0097656, -0.0219727, -0.1430664, -9.8170738, -9.0243902, -11.4024391, -0.0486763
-0.996582, -0.0429688, -0.1455078, -9.6341467, -7.9268293, -11.280488, -0.0513619
-0.9956055, -0.0527344, -0.144043, -8.9024391, -7.1341467, -10.9756098, -0.0533761
-0.9960938, -0.0634766, -0.1459961, -8.719512, -6.7682929, -10.9756098, -0.0540475
-1.0004883, -0.0654297, -0.1474609, -8.3536587, -5.9756098, -10.1829271, -0.0493477
-1.0053711, -0.0766602, -0.1450195, -8.2926826, -4.9390244, -9.9390249, -0.0466621
-1.0102539, -0.0742188, -0.1455078, -7.0121951, -3.8414636, -8.780488, -0.0473335
-1.0126953, -0.0698242, -0.1523438, -6.1585369, -3.4756098, -8.0487804, -0.0426337
-1.019043, -0.0678711, -0.1601562, -5.2439027, -3.3536587, -6.9512196, -0.0359197
-1.0234375, -0.0610352, -0.1699219, -4.390244, -3.3536587, -6.1585369, -0.0359197
-1.0273438, -0.0546875, -0.1772461, -3.7804878, -3.4756098, -5.7317076, -0.0325628
-1.0317383, -0.0488281, -0.1796875, -3.3536587, -3.2926829, -4.7560978, -0.0298772
-1.0297852, -0.0375977, -0.1806641, -3.1707318, -3.2926829, -4.2682929, -0.0315557
-1.0302734, -0.0356445, -0.1816406, -2.1341465, -3.1707318, -3.1707318, -0.0285344
-1.0273438, -0.0219727, -0.1855469, -1.7073171, -3.2926829, -2.8658538, -0.0298772
-1.027832, -0.0151367, -0.1860352, -1.4634147, -3.3536587, -2.1341465, -0.03122
-1.0292969, -0.0107422, -0.1948242, -1.5243902, -3.5975611, -1.7682927, -0.0285344
-1.0253906, -0.0043945, -0.1992188, -1.402439, -3.5365853, -1.2195122, -0.0292058
-1.0214844, 0.0063477, -0.2114258, -1.5243902, -3.5975611, -1.0365853, -0.0298772
-1.0244141, 0.0126953, -0.2143555, -1.8902439, -4.0243902, -0.4878049, -0.0352483
-1.0224609, 0.0141602, -0.2148438, -2.3170731, -4.2682929, -0.2439024, -0.0365911
-1.019043, 0.0126953, -0.215332, -3.4146342, -5.1829271, 0.1219512, -0.0386053
-1.015625, 0.0063477, -0.2104492, -4.2073174, -5.609756, 0.3658537, -0.0386053
-1.0117188, 0.0014648, -0.2016602, -4.5121951, -5.670732, 0.4878049, -0.0399481
-1.0146484, -0.0009766, -0.199707, -5, -5.7317076, 0.9146342, -0.0379339
-1.0058594, -0.0126953, -0.1992188, -5, -5.7926831, 1.1585366, -0.0412909
-1.0068359, -0.0170898, -0.2001953, -4.8780489, -6.1585369, 1.8902439, -0.0412909
-1.0009766, -0.0253906, -0.1962891, -4.7560978, -6.1585369, 1.9512196, -0.0386053
-1.0014648, -0.0307617, -0.1904297, -4.1463413, -5.670732, 2.5, -0.0386053
-1.0024414, -0.0268555, -0.1835938, -3.9634147, -5.609756, 2.9268293, -0.0392767
-1.0043945, -0.0253906, -0.1831055, -2.9268293, -5.3658538, 4.0853658, -0.0412909
-1.0092773, -0.0166016, -0.1821289, -2.6829269, -5.1219511, 4.390244, -0.0433051
-1.0102539, -0.0146484, -0.1821289, -2.5, -4.8170733, 5.3048782, -0.0453193
-1.0083008, -0.0024414, -0.1787109, -2.6219513, -4.9390244, 6.1585369, -0.0459907
-1.0039062, 0.0029297, -0.1791992, -2.5609756, -5.1219511, 6.3414636, -0.0486763
-1.0043945, 0.0068359, -0.1787109, -2.9878049, -4.9390244, 6.890244, -0.0500191
-1.0058594, 0.012207, -0.1796875, -3.3536587, -4.4512196, 7.0121951, -0.0493477
-1.0009766, 0.0151367, -0.1811523, -3.9634147, -4.2073174, 7.5, -0.0473335
-0.9960938, 0.0146484, -0.1870117, -4.2073174, -4.0243902, 7.4390244, -0.0486763
-0.9936523, 0.0131836, -0.1899414, -4.8170733, -3.5975611, 7.7439027, -0.0520333
-0.9892578, 0.0083008, -0.1860352, -5.1219511, -3.7195122, 7.9268293, -0.0500191
-0.9902344, 0.0063477, -0.1855469, -5.7926831, -3.4146342, 8.2926826, -0.0540475
-0.9960938, -0.003418, -0.1889648, -5.8536587, -3.2317073, 8.5975609, -0.0520333
-0.9990234, -0.0048828, -0.1928711, -6.6463418, -3.1707318, 9.0243902, -0.0641184
-1.0019531, -0.0048828, -0.1982422, -6.890244, -2.3780489, 9.8780489, -0.0762036
-0.9936523, -0.0019531, -0.1992188, -7.0121951, -2.1341465, 10, -0.0782177
-0.9975586, -0.0029297, -0.2060547, -7.9268293, -2.1341465, 10.5487804, -0.0741894
-0.9985352, -0.0029297, -0.2060547, -8.4756098, -2.1341465, 10.7926836, -0.063447
-0.9960938, -0.003418, -0.2041016, -9.3292685, -2.2560976, 11.5243902, -0.0520333
-0.9980469, -0.003418, -0.2021484, -9.4512196, -2.3170731, 11.8292685, -0.0439765
-0.9946289, -0.0043945, -0.2011719, -10.5487804, -2.3780489, 12.6219511, -0.0369268
-0.9921875, -0.0039062, -0.1933594, -10.7926836, -2.195122, 12.6829271, -0.0285344
-0.9897461, -0.0053711, -0.1943359, -11.4024391, -1.4634147, 13.3536587, -0.024506
-0.9902344, -0.0078125, -0.2026367, -11.1585369, -1.5243902, 13.7195129, -0.0258488
-0.9873047, -0.0063477, -0.2075195, -10.7926836, -1.5853659, 13.780488, -0.0332341
-0.9931641, -0.0009766, -0.2084961, -10.4268293, -1.402439, 14.2073174, -0.0365911
-1.0014648, 0.0083008, -0.2080078, -10.4268293, -1.7073171, 14.6341467, -0.0382696
-1.003418, 0.0141602, -0.2099609, -10.7317076, -2.2560976, 14.8780489, -0.0433051
-1.0053711, 0.0317383, -0.2138672, -10.6707315, -2.195122, 15.060976, -0.0406195
-1.0083008, 0.0400391, -0.2202148, -11.0975609, -2.8658538, 15.5487804, -0.0446479
-1.0126953, 0.043457, -0.2285156, -12.0121956, -3.4146342, 15.6097565, -0.063447
-1.0136719, 0.050293, -0.2285156, -13.5365858, -4.3292685, 15.4878054, -0.0782177
-1.0097656, 0.0478516, -0.2314453, -14.3902445, -4.8170733, 15.3048782, -0.076875
-1.0102539, 0.0395508, -0.2319336, -15.3048782, -5.4268293, 15.4878054, -0.0704967
-1.0087891, 0.03125, -0.2304688, -15.7926836, -5.7926831, 15.4878054, -0.0691539
-1.0078125, 0.015625, -0.2363281, -15.8536587, -7.0731707, 15.9146347, -0.0607614
-1.0058594, 0.0175781, -0.2368164, -16.0975609, -8.1097565, 16.2195129, -0.049012
-1.0048828, 0.0131836, -0.237793, -16.0365849, -9.2073174, 16.6463413, -0.0449836
-1, 0.0126953, -0.2333984, -15.7317076, -10.6097565, 17.0731716, -0.0412909
-0.9975586, 0.0229492, -0.2280273, -15.4878054, -11.0365858, 17.3780499, -0.0365911
-0.9936523, 0.027832, -0.2270508, -14.8780489, -12.3780489, 17.560976, -0.0305486
-0.9868164, 0.0356445, -0.2280273, -15, -12.7439032, 17.3170738, -0.0339055
-0.9882812, 0.0405273, -0.2275391, -14.6341467, -13.7195129, 16.8902435, -0.0386053
-0.9892578, 0.0532227, -0.2211914, -15.060976, -14.3292685, 16.4634151, -0.0396124
-0.9897461, 0.0541992, -0.2236328, -15.3658543, -15.2439032, 15.9146347, -0.0433051
-0.9936523, 0.050293, -0.2231445, -15.7926836, -15.9756098, 15.7926836, -0.0426337
-1.0048828, 0.0517578, -0.2084961, -16.5853653, -17.5, 15.3658543, -0.0392767
-1, 0.0522461, -0.2070312, -17.6829281, -19.0243912, 15.6707325, -0.0419623
-0.9946289, 0.0488281, -0.1904297, -18.1097565, -19.8170738, 16.0365849, -0.0433051
-0.9892578, 0.0454102, -0.1860352, -18.5975609, -20.6707325, 16.7073174, -0.0715038
-0.980957, 0.0405273, -0.1694336, -18.6585369, -20.6707325, 16.9512196, -0.0933242
-0.9726562, 0.0351562, -0.1625977, -18.5975609, -21.4634151, 16.4024391, -0.0956741
-0.9550781, 0.0317383, -0.1430664, -18.780489, -21.3414631, 16.0365849, -0.0923171
-0.9541016, 0.0356445, -0.1342773, -18.2317085, -20.4878044, 15.6097565, -0.0795605
-0.9462891, 0.0400391, -0.121582, -18.1707325, -20.1219521, 15.060976, -0.0610971
-0.9458008, 0.0415039, -0.121582, -18.2317085, -19.0243912, 14.5731707, -0.0459907
-0.9438477, 0.0419922, -0.1318359, -18.1707325, -18.3536587, 14.2073174, -0.0275273
-0.9536133, 0.0424805, -0.1459961, -17.8048782, -17.6219521, 13.7195129, -0.017792
-0.9594727, 0.0424805, -0.1513672, -18.4146347, -16.9512196, 12.8658543, -0.0137636
-0.9677734, 0.0415039, -0.1591797, -19.1463413, -16.5853653, 12.6219511, -0.011078
-0.9731445, 0.0400391, -0.1611328, -20.1829281, -16.0365849, 11.5853662, -0.0151064
-0.9951172, 0.0375977, -0.1572266, -20.5487804, -15.6097565, 11.0975609, -0.0204776
-1.0087891, 0.0356445, -0.1494141, -21.7073174, -15.4878054, 10.3658543, -0.0231632
-1.0244141, 0.034668, -0.1469727, -21.7073174, -15.5487804, 10.5487804, -0.0292058
-1.03125, 0.0302734, -0.1445312, -21.8902435, -16.2195129, 10.3048782, -0.0325628
-1.0375977, 0.0307617, -0.1430664, -21.5243912, -16.2195129, 10.3658543, -0.0339055
-1.0361328, 0.0273438, -0.1489258, -20.8536587, -16.8902435, 10.3048782, -0.0352483
-1.0458984, 0.0146484, -0.1494141, -20.7317085, -17.3780499, 10.2439022, -0.0359197
-1.0395508, 0.0014648, -0.1474609, -20.6707325, -18.2317085, 9.8170738, -0.0379339
-1.0415039, -0.0092773, -0.1479492, -20.9146347, -19.3292694, 9.9390249, -0.0396124
-1.0390625, -0.0229492, -0.1411133, -20.9146347, -19.7560978, 9.9390249, -0.0379339
-1.0390625, -0.0244141, -0.1416016, -19.5121956, -20.6097565, 10.3658543, -0.0369268
-1.0302734, -0.0249023, -0.1347656, -18.5975609, -21.1585369, 10.5487804, -0.0386053
-1.0268555, -0.0244141, -0.1279297, -17.1951218, -21.8902435, 10.9756098, -0.0379339
-1.0170898, -0.0151367, -0.1210938, -17.1951218, -22.3170738, 10.9756098, -0.0392767
-1.0126953, -0.0112305, -0.1201172, -17.0121956, -22.560976, 10.6097565, -0.0372625
-1.0097656, -0.0014648, -0.112793, -17.0121956, -22.3170738, 10.3658543, -0.0365911
-1.0039062, 0.0014648, -0.1123047, -17.2560978, -22.3170738, 9.5731707, -0.0382696
-1.0014648, 0.0087891, -0.1020508, -17.5, -22.3170738, 9.2682924, -0.0379339
-1.0068359, 0.0141602, -0.0888672, -17.8658543, -21.7073174, 8.4756098, -0.0386053
-1.0068359, 0.0117188, -0.0849609, -17.8048782, -21.2195129, 7.8048782, -0.0399481
-1.0092773, 0.0200195, -0.081543, -17.560976, -20.9146347, 7.5, -0.0365911
-1.0097656, 0.0234375, -0.0810547, -17.6219521, -20.060976, 6.9512196, -0.0369268
-1.0180664, 0.0332031, -0.0893555, -17.8658543, -20, 6.7073174, -0.0379339
-1.0180664, 0.034668, -0.0874023, -18.7195129, -19.8780499, 6.0365853, -0.0406195
-1.0249023, 0.0327148, -0.1005859, -19.0243912, -19.4512196, 5.7926831, -0.0439765
-1.0283203, 0.034668, -0.1069336, -19.939024, -19.2682934, 5.2439027, -0.042298
-1.0253906, 0.0302734, -0.1210938, -20.2439022, -18.9634151, 4.6951222, -0.0409552
-1.0361328, 0.0244141, -0.1308594, -21.0365868, -18.5975609, 3.5975611, -0.0386053
-1.0400391, 0.0107422, -0.1435547, -22.5, -18.6585369, 2.5609756, -0.0392767
-1.0532227, -0.0058594, -0.1386719, -22.8048782, -19.0243912, 2.195122, -0.0379339
-1.0556641, -0.015625, -0.137207, -24.0243912, -20.1829281, 1.7073171, -0.0379339
-1.0532227, -0.0356445, -0.1289062, -24.0853672, -20.8536587, 1.7073171, -0.0352483
-1.0581055, -0.0429688, -0.1196289, -24.0853672, -22.0731716, 2.0731707, -0.0399481
-1.0546875, -0.0483398, -0.1088867, -23.6585369, -22.2560978, 2.3780489, -0.0392767
-1.0512695, -0.0493164, -0.1010742, -22.560976, -23.0487804, 2.5, -0.0372625
-1.0454102, -0.0400391, -0.0874023, -21.5853672, -23.4756107, 2.9878049, -0.0412909
-1.0395508, -0.03125, -0.0878906, -20, -23.4756107, 2.6829269, -0.0382696
-1.0371094, -0.0112305, -0.0917969, -19.2682934, -23.5975609, 2.9268293, -0.0392767
-1.0322266, 0, -0.0981445, -19.3292694, -23.5365868, 2.5, -0.0386053
-1.0283203, 0.0175781, -0.1064453, -21.0975609, -24.0243912, 1.3414634, -0.0352483
-1.0234375, 0.0234375, -0.1074219, -22.1341476, -23.9634151, 0.7317073, -0.0325628
-1.0209961, 0.0214844, -0.1083984, -25, -24.0853672, -0.7317073, -0.0359197
-1.0322266, 0.0097656, -0.1000977, -26.3414631, -23.5975609, -1.2195122, -0.0372625
-1.0307617, 0.0014648, -0.0932617, -27.9878063, -23.3536587, -1.5853659, -0.0342412
-1.0327148, -0.019043, -0.0771484, -28.9634151, -23.2926826, -1.5243902, -0.0345769
-1.034668, -0.03125, -0.0678711, -29.6341476, -23.7195129, -1.5853659, -0.0352483
-1.0283203, -0.0493164, -0.0522461, -29.2073174, -23.5365868, -1.1585366, -0.0328985
-1.0229492, -0.0541992, -0.0488281, -28.2317085, -22.6219521, -0.5487805, -0.0345769
-1.0161133, -0.0615234, -0.0429688, -27.7439022, -22.439024, -0.4268293, -0.0339055
-1.0112305, -0.0610352, -0.0458984, -26.3414631, -21.8292694, 0.3048781, -0.0339055
-0.9985352, -0.0527344, -0.0493164, -25.6097565, -21.2195129, 0.6707317, -0.0339055
-0.9931641, -0.0380859, -0.0717773, -25.3658543, -21.280489, 0.5487805, -0.0315557
-0.9921875, -0.0351562, -0.0771484, -24.9390259, -20.7926826, 0.3658537, -0.03122
-0.9956055, -0.0205078, -0.0991211, -24.8170738, -20.7926826, 0.2439024, -0.0332341
-0.9985352, -0.0136719, -0.1074219, -25.6707325, -20.9146347, -0.0609756, -0.0365911
-1.0141602, -0.012207, -0.1142578, -25.9756107, -21.3414631, -0.3658537, -0.0379339
-1.0166016, -0.0161133, -0.1157227, -26.8902454, -22.1951218, -0.6707317, -0.0379339
-1.0273438, -0.0097656, -0.1132812, -27.3780499, -22.560976, -0.7317073, -0.0419623
-1.0307617, -0.0087891, -0.105957, -27.7439022, -23.2926826, -0.7317073, -0.0426337
-1.0332031, -0.012207, -0.1010742, -27.6219521, -23.3536587, -0.4878049, -0.0406195
-1.0351562, -0.0112305, -0.1035156, -27.6829281, -24.1463413, -0.6097561, -0.0433051
-1.0371094, -0.0087891, -0.1054688, -27.2560978, -24.2682934, -1.097561, -0.0459907
-1.03125, -0.0131836, -0.1098633, -27.4390259, -24.6341476, -1.402439, -0.0436408
-1.0288086, -0.0136719, -0.1083984, -27.1951218, -25.3658543, -1.8292683, -0.0439765
-1.0239258, -0.0141602, -0.1074219, -27.1951218, -25.6707325, -1.9512196, -0.0365911
-1.015625, -0.0180664, -0.1074219, -27.2560978, -26.0975609, -1.7073171, -0.03122
-1.0083008, -0.0195312, -0.1088867, -27.1341476, -26.4634151, -1.7682927, -0.0315557
-1.0048828, -0.0195312, -0.1064453, -27.0121956, -26.4634151, -1.5243902, -0.0352483
-0.9907227, -0.0234375, -0.1005859, -27.0731716, -26.7682934, -1.3414634, -0.0396124
-0.9868164, -0.0239258, -0.0991211, -26.8902454, -27.1951218, -1.1585366, -0.0392767
-0.9833984, -0.0175781, -0.0952148, -26.8902454, -27.1341476, -1.2195122, -0.0396124
-0.9799805, -0.015625, -0.0908203, -27.1341476, -27.4390259, -2.0121951, -0.0412909
-0.980957, -0.0166016, -0.0771484, -27.6829281, -27.1341476, -2.195122, -0.0379339
-0.9853516, -0.0097656, -0.0722656, -28.3536587, -26.7073174, -2.2560976, -0.0399481
-0.9873047, -0.0068359, -0.0688477, -29.5121956, -26.1585369, -2.8658538, -0.0433051
-0.9907227, -0.012207, -0.0664062, -30.4878063, -25.9146347, -2.9878049, -0.0446479
-0.9863281, -0.0175781, -0.0683594, -32.0731697, -25.2439022, -3.4146342, -0.0412909
-0.9848633, -0.0249023, -0.0639648, -32.6219521, -24.3902435, -3.5365853, -0.0379339
-0.980957, -0.03125, -0.0610352, -33.9634171, -24.1463413, -2.9878049, -0.0406195
-0.9746094, -0.0361328, -0.0458984, -34.9390259, -23.9634151, -2.6829269, -0.0412909
-0.9726562, -0.0327148, -0.0341797, -35, -22.9268303, -2.0731707, -0.0446479
-0.9619141, -0.03125, -0.027832, -34.8170738, -22.5, -1.7682927, -0.0433051
-0.9560547, -0.0214844, -0.0258789, -33.2317085, -21.1585369, -1.8292683, -0.0476692
-0.9511719, -0.0043945, -0.0400391, -30.9146347, -18.9634151, -1.7073171, -0.0466621
-0.9570312, 0.0175781, -0.0595703, -30.2439022, -18.2317085, -2.2560976, -0.0409552
-0.9628906, 0.027832, -0.0727539, -29.6951218, -17.6219521, -2.9268293, -0.0379339
-0.9785156, 0.050293, -0.1010742, -30.1219521, -17.6829281, -3.2317073, -0.0352483
-0.9848633, 0.0585938, -0.1142578, -31.8902454, -18.2317085, -3.7195122, -0.0365911
-0.9951172, 0.0688477, -0.1352539, -32.9878044, -18.8414631, -4.1463413, -0.0352483
-1.0009766, 0.0727539, -0.140625, -35.3658562, -19.8170738, -5.2439027, -0.0339055
-1.0195312, 0.0634766, -0.1420898, -37.0121956, -20.3658543, -5.670732, -0.0399481
-1.0263672, 0.0639648, -0.1435547, -39.6951218, -21.6463413, -6.280488, -0.0352483
-1.0385742, 0.0546875, -0.1347656, -41.2804871, -22.3170738, -6.1585369, -0.03122
-1.0405273, 0.0478516, -0.1342773, -42.9878044, -23.6585369, -5.609756, -0.0379339
-1.0302734, 0.0307617, -0.1264648, -43.5975609, -25, -5.3658538, -0.0379339
-1.0117188, 0.0087891, -0.1225586, -43.9024391, -25.6097565, -5, -0.0379339
-1.0019531, -0.0083008, -0.1113281, -45.1219521, -26.7073174, -5.9146342, -0.0372625
-0.9897461, -0.0361328, -0.0874023, -45.3658562, -27.3170738, -6.7682929, -0.0396124
-0.9916992, -0.0410156, -0.0756836, -43.9634171, -27.2560978, -7.5, -0.0419623
-0.9912109, -0.0410156, -0.0600586, -42.5609779, -27.560976, -7.0121951, -0.042298
-0.9902344, -0.0302734, -0.0620117, -38.7804871, -27.6829281, -5, -0.0459907
-0.9731445, -0.0102539, -0.0761719, -37.5, -27.3170738, -4.6951222, -0.0439765
-0.9692383, 0.0073242, -0.0800781, -36.5853653, -27.4390259, -4.5731707, -0.042298
-0.9765625, 0.0332031, -0.0966797, -36.5243912, -27.6829281, -5.1829271, -0.0449836
-0.9907227, 0.0532227, -0.105957, -35.9146347, -29.0243912, -6.6463418, -0.0516976
-0.9926758, 0.0615234, -0.1103516, -35.2439041, -31.0365868, -7.8658538, -0.0480049
-1.0087891, 0.0693359, -0.1147461, -34.8170738, -32.3170738, -7.9268293, -0.0493477
-1.0097656, 0.0717773, -0.1181641, -35.1829262, -34.2073174, -8.719512, -0.0473335
-1.0219727, 0.0742188, -0.1225586, -35.4878044, -34.9390259, -9.0243902, -0.0426337
-1.0253906, 0.0761719, -0.1196289, -36.5243912, -35.9146347, -10, -0.0419623
-1.0375977, 0.0756836, -0.1254883, -37.3780479, -36.341465, -9.9390249, -0.0433051
-1.0371094, 0.0737305, -0.1289062, -39.4512215, -37.1951218, -9.8780489, -0.0426337
-1.0317383, 0.059082, -0.1186523, -40.9146347, -37.5, -9.8780489, -0.0493477
-1.0249023, 0.0473633, -0.112793, -44.3292694, -38.2926826, -10.3048782, -0.0553902
-1.0092773, 0.0151367, -0.0878906, -46.0975609, -37.9268303, -10.7926836, -0.063447
-0.9960938, -0.0317383, -0.0463867, -48.4146347, -37.6219521, -11.8902445, -0.0674754
-0.9902344, -0.0532227, -0.0302734, -48.1097565, -36.7682953, -12.1341467, -0.0678111
-0.9785156, -0.0874023, -0.0029297, -47.1951218, -35.9756088, -11.9512196, -0.0641184
-0.9755859, -0.0952148, 0.003418, -44.6951218, -34.5731697, -10.8536587, -0.0614328
-0.9672852, -0.1000977, 0.0073242, -43.4756126, -33.7195129, -10, -0.0547189
-0.9638672, -0.09375, 0.0024414, -40.1829262, -31.7073174, -8.1707315, -0.0527047
-0.9594727, -0.0688477, -0.0117188, -38.7804871, -31.0975609, -7.3780489, -0.049012
-0.9560547, -0.0532227, -0.019043, -36.4024391, -29.4512196, -6.890244, -0.0446479
-0.9599609, -0.0185547, -0.0454102, -35.6707344, -29.1463413, -7.3170733, -0.0453193
-0.9619141, -0.0068359, -0.0566406, -34.8780479, -28.4756107, -8.5365858, -0.0466621
-0.9775391, 0.0146484, -0.074707, -35.3048782, -28.1707325, -9.3292685, -0.0463264
-0.9926758, 0.0161133, -0.0927734, -36.8292694, -27.8048782, -10.3658543, -0.0459907
-1.0053711, 0.0131836, -0.0996094, -38.9634171, -27.4390259, -10.6707315, -0.0473335
-1.0224609, -0.0058594, -0.1103516, -40, -27.1951218, -10.7926836, -0.0527047
-1.027832, -0.0175781, -0.1098633, -42.1341476, -27.1341476, -9.8170738, -0.0513619
-1.0400391, -0.0463867, -0.1040039, -42.9268303, -26.9512196, -9.4512196, -0.0540475
-1.0390625, -0.0620117, -0.0986328, -43.5365868, -26.5853672, -8.841464, -0.0527047
-1.0361328, -0.0869141, -0.0864258, -43.4756126, -26.5853672, -8.5365858, -0.0543832
-1.0366211, -0.0922852, -0.0800781, -42.3170738, -26.0975609, -8.2317076, -0.0506905
-1.0371094, -0.1035156, -0.078125, -41.7073174, -26.0975609, -8.0487804, -0.0503548
-1.0380859, -0.1010742, -0.0649414, -40.3048782, -26.4634151, -7.3780489, -0.0506905
-1.0336914, -0.0864258, -0.0532227, -39.5731735, -26.4024391, -6.8292685, -0.0500191
-1.0263672, -0.0629883, -0.0507812, -37.6219521, -26.0975609, -5.3048782, -0.0493477
-1.0146484, -0.0571289, -0.050293, -35.8536606, -25.9146347, -4.3292685, -0.0480049
-0.9990234, -0.0361328, -0.0473633, -35.1219521, -25.9146347, -4.0853658, -0.0433051
-0.9916992, -0.0327148, -0.0493164, -34.9390259, -25.6707325, -5.0609756, -0.0399481
-0.9936523, -0.0258789, -0.0424805, -35.6097565, -25.6707325, -5.9756098, -0.0436408
-0.996582, -0.0244141, -0.0327148, -36.4024391, -25.1219521, -6.4024391, -0.0466621
-1.0058594, -0.0166016, -0.0131836, -36.7073174, -24.5121956, -6.7073174, -0.0540475
-1.0131836, -0.0131836, 0.0009766, -37.2560997, -22.7439022, -6.2195125, -0.0527047
-1.0229492, -0.0112305, 0.0170898, -37.1341476, -22.3170738, -6.0365853, -0.0446479
-1.0229492, -0.0180664, 0.0234375, -37.3170738, -20.7317085, -5.9146342, -0.0419623
-1.0151367, -0.0302734, 0.0249023, -37.0731697, -20.1219521, -5.9756098, -0.0459907
-1.015625, -0.0463867, 0.027832, -36.6463432, -18.780489, -6.5853658, -0.0459907
-1.0141602, -0.0522461, 0.0317383, -35.6707344, -17.439024, -6.7073174, -0.0436408
-1.0175781, -0.0581055, 0.0322266, -35, -16.6463413, -6.5243902, -0.0416266
-1.0151367, -0.0576172, 0.034668, -33.6585388, -15, -5.4878049, -0.0379339
-1.0097656, -0.0498047, 0.0249023, -33.0487823, -14.1463413, -5.0609756, -0.0419623
-1.0043945, -0.0444336, 0.0180664, -32.3170738, -13.1707315, -4.0853658, -0.0406195
-0.9941406, -0.03125, 0.0053711, -32.1951218, -12.6829271, -3.9024391, -0.0433051
-0.9887695, -0.0258789, -0.0004883, -32.1951218, -11.7073174, -3.7804878, -0.0453193
-0.9790039, -0.0209961, -0.0180664, -32.8048782, -11.7073174, -4.0243902, -0.0419623
-0.9790039, -0.0229492, -0.019043, -33.9024391, -10.3048782, -4.5121951, -0.0369268
-0.9770508, -0.0307617, -0.0180664, -34.5731697, -9.7560978, -4.5731707, -0.0379339
-0.9858398, -0.0410156, -0.0073242, -35.2439041, -9.0243902, -4.9390244, -0.0339055
-0.9897461, -0.0473633, 0.0019531, -35.3048782, -8.0487804, -4.8780489, -0.0352483
-0.9951172, -0.0615234, 0.0039062, -35.0609779, -7.9268293, -4.6341462, -0.03122
-0.9970703, -0.0649414, 0.0043945, -33.7195129, -6.5853658, -4.5731707, -0.0298772
-1.0078125, -0.078125, -0.0029297, -33.4146347, -5.9146342, -4.4512196, -0.0332341
-1.0146484, -0.0839844, -0.0068359, -32.1341476, -4.9390244, -4.2682929, -0.0365911
-1.0229492, -0.0869141, -0.0141602, -31.6463413, -4.6341462, -3.7804878, -0.0369268
-1.0273438, -0.0932617, -0.0170898, -30.7317085, -3.5365853, -2.8658538, -0.0359197
-1.0327148, -0.0991211, -0.0141602, -30, -3.2317073, -2.4390244, -0.0335698
-1.0361328, -0.1040039, -0.0166016, -27.7439022, -3.4756098, -1.6463414, -0.0359197
-1.034668, -0.1010742, -0.0161133, -25.8536587, -3.1707318, -1.2804878, -0.0325628
-1.0292969, -0.0869141, -0.015625, -22.6219521, -3.6585367, -0.2439024, -0.0318914
-1.0327148, -0.0751953, -0.0166016, -19.2682934, -4.2682929, 1.402439, -0.03122
-1.027832, -0.046875, -0.0151367, -17.9268303, -4.390244, 1.402439, -0.0318914
-1.0283203, -0.0341797, -0.0180664, -15.9146347, -4.8780489, 2.0731707, -0.0315557
-1.0185547, -0.0039062, -0.0209961, -15.1219511, -4.8170733, 2.2560976, -0.0339055
-1.0161133, 0.0097656, -0.0273438, -14.3902445, -5.0609756, 2.0121951, -0.0318914
-1.0131836, 0.0229492, -0.0356445, -14.2682934, -5.2439027, 1.4634147, -0.0298772
-1.0092773, 0.0253906, -0.0361328, -14.5121956, -5.5487804, 0.3658537, -0.0298772
-1.0117188, 0.0283203, -0.0405273, -15.060976, -5.5487804, 0.2439024, -0.0305486
-1.0131836, 0.0258789, -0.0390625, -16.280489, -5.8536587, -0.3048781, -0.0285344
-1.0102539, 0.0063477, -0.0444336, -16.9512196, -5.7926831, -0.2439024, -0.0292058
-1.0092773, -0.0185547, -0.0405273, -17.560976, -5.670732, -0.5487805, -0.0315557
-1.0048828, -0.0302734, -0.0385742, -17.560976, -5.670732, -0.6707317, -0.0328985
-1.0024414, -0.0595703, -0.0400391, -17.560976, -5.4268293, -0.3658537, -0.0352483
-1.0019531, -0.0737305, -0.0395508, -16.4024391, -5.4268293, -0.2439024, -0.0392767
-1.003418, -0.1079102, -0.0419922, -15.4878054, -5.3048782, 0.0609756, -0.0419623
-1.0053711, -0.1220703, -0.0400391, -13.4756098, -5.670732, 0.7317073, -0.0406195
-1.0053711, -0.1313477, -0.03125, -12.2560978, -5.4268293, 1.4634147, -0.0365911
-1.0043945, -0.137207, -0.0273438, -9.7560978, -5.0609756, 2.9268293, -0.0325628
-0.9980469, -0.1308594, -0.0209961, -8.2317076, -4.9390244, 3.4756098, -0.0325628
-0.996582, -0.1240234, -0.0209961, -5.4878049, -4.8780489, 5, -0.0342412
-0.9926758, -0.1025391, -0.0214844, -2.804878, -4.6341462, 5.7317076, -0.035584
-0.9936523, -0.081543, -0.0239258, -1.402439, -4.5731707, 5.8536587, -0.0379339
-0.9916992, -0.0664062, -0.0292969, 0.4878049, -4.6341462, 5.9756098, -0.0352483
-0.9970703, -0.0419922, -0.0356445, 0.8536586, -4.390244, 6.2195125, -0.0396124
-0.9995117, -0.0258789, -0.0380859, 1.1585366, -4.390244, 6.5243902, -0.0396124
-0.9995117, -0.0102539, -0.0361328, 0.9146342, -4.5121951, 6.4024391, -0.042298
-0.996582, -0.0019531, -0.0356445, 0.5487805, -4.390244, 5.8536587, -0.0412909
-0.9941406, -0.0004883, -0.0288086, 0.4268293, -4.390244, 5.4878049, -0.0352483
-0.9936523, 0.003418, -0.0263672, 0.2439024, -4.0853658, 5.3658538, -0.0332341
-0.9960938, -0.0063477, -0.0297852, -0.0609756, -3.9024391, 5.0609756, -0.0318914
-0.9921875, -0.0112305, -0.027832, -0.4878049, -3.7804878, 4.4512196, -0.0285344
-0.9936523, -0.0249023, -0.0263672, -0.4268293, -3.4756098, 4.2682929, -0.0339055
-0.9931641, -0.0297852, -0.0200195, -0.0609756, -3.1097562, 3.9024391, -0.0332341
-0.9941406, -0.0336914, -0.0141602, 1.0365853, -2.6829269, 3.7195122, -0.0359197
-0.9975586, -0.0302734, -0.0073242, 1.8902439, -2.6829269, 3.5975611, -0.0365911
-0.9990234, -0.0336914, -0.003418, 3.0487804, -2.3780489, 3.8414636, -0.0339055
-0.9931641, -0.0297852, 0.0039062, 3.5975611, -2.1341465, 3.4756098, -0.0339055
-0.9941406, -0.0317383, 0.0097656, 5.0609756, -1.7073171, 2.8658538, -0.0359197
-0.9907227, -0.0322266, 0.0107422, 5.670732, -1.7682927, 2.5, -0.0409552
-0.9868164, -0.0302734, 0.0102539, 7.6829271, -1.3414634, 1.8292683, -0.0406195
-0.9946289, -0.0180664, -0.012207, 8.841464, -0.8536586, 1.6463414, -0.0379339
-0.9946289, -0.0136719, -0.0327148, 10.1219511, -0.9146342, 1.9512196, -0.0372625
-0.987793, 0.0019531, -0.0717773, 9.8170738, -1.2804878, 2.5, -0.0352483
-0.9848633, 0.012207, -0.0966797, 8.9634151, -1.2804878, 2.7439024, -0.0325628
-0.9770508, 0.0112305, -0.0991211, 5.3048782, -2.2560976, 2.0731707, -0.0265202
-0.9736328, 0.0063477, -0.0820312, 3.6585367, -2.7439024, 1.7073171, -0.0251774
-0.9731445, -0.0004883, -0.0678711, 0.8536586, -3.4756098, 0.7926829, -0.0281987
-0.9682617, -0.0195312, -0.0429688, 0.4878049, -3.9634147, 0.3658537, -0.0298772
-0.9619141, -0.0219727, -0.0307617, 0.5487805, -4.0853658, 0.4268293, -0.0318914
-0.9575195, -0.0361328, -0.0175781, 0.8536586, -3.6585367, 0.4268293, -0.0325628
-0.9575195, -0.0395508, -0.012207, 1.7682927, -2.6219513, 1.097561, -0.0332341
-0.9604492, -0.0385742, -0.0117188, 1.8902439, -2.195122, 1.2195122, -0.0339055
-0.9584961, -0.0371094, -0.015625, 1.5243902, -1.7073171, 1.1585366, -0.035584
-0.9643555, -0.0322266, -0.0180664, 1.6463414, -1.0365853, 0.3658537, -0.0365911
-0.9726562, -0.0327148, -0.0175781, 1.7073171, -0.5487805, -0.3048781, -0.0365911
-0.9824219, -0.0356445, -0.019043, 1.8292683, 0.3658537, -1.8902439, -0.0392767
-1.0078125, -0.0439453, -0.0131836, 2.195122, 0.8536586, -2.6829269, -0.0412909
-1.0239258, -0.0410156, -0.0126953, 3.1707318, 0.9146342, -2.5, -0.0412909
-1.0449219, -0.0219727, -0.0151367, 3.6585367, 1.2195122, -1.8292683, -0.0459907
-1.0449219, -0.0107422, -0.0244141, 3.8414636, 1.5243902, 0.1829268, -0.0459907
-1.0341797, 0.003418, -0.0473633, 3.2317073, 1.7073171, 1.097561, -0.0516976
-1.0288086, 0.0102539, -0.059082, 0.8536586, 1.7073171, 0.9756098, -0.0486763
-1.0126953, 0.0161133, -0.0727539, -0.6097561, 1.6463414, 0.1829268, -0.0419623
-1.0087891, 0.0092773, -0.0712891, -3.2926829, 1.3414634, -1.6463414, -0.0419623
-1.0097656, -0.0068359, -0.0708008, -4.6951222, 0.8536586, -3.2317073, -0.0406195
-1.0136719, -0.0268555, -0.0717773, -5.3048782, 1.0365853, -3.4756098, -0.0386053
-1.0131836, -0.0366211, -0.0664062, -5.7317076, 1.097561, -3.5975611, -0.0406195
-1.019043, -0.0473633, -0.0537109, -5.609756, 1.097561, -3.5365853, -0.0446479
-1.0200195, -0.0541992, -0.050293, -5.4878049, 1.2804878, -3.1707318, -0.0392767
-1.0244141, -0.0664062, -0.0258789, -4.8780489, 1.2195122, -2.6219513, -0.0392767
-1.0268555, -0.065918, -0.0429688, -1.2195122, 0.7926829, -1.6463414, -0.0426337
-1.0302734, -0.0600586, -0.0737305, -0.8536586, 1.0365853, -1.7682927, -0.0433051
-1.0375977, -0.059082, -0.0737305, -3.2317073, 2.9878049, -1.5853659, -0.0399481
-1.0297852, -0.0698242, -0.0454102, -3.4756098, 3.5975611, -1.2195122, -0.0406195
-1.0161133, -0.0922852, -0.0078125, -4.8780489, 2.5, -2.4390244, -0.0419623
-1.0297852, -0.1000977, 0.0200195, -3.9024391, 2.195122, -4.4512196, -0.0392767
-1.0571289, -0.0927734, 0.0483398, -1.8292683, 2.5609756, -3.5975611, -0.0392767
-1.0541992, -0.0825195, 0.0395508, 3.7195122, 4.8780489, 0.2439024, -0.0419623
-1.0371094, -0.0449219, 0.0058594, 5.4878049, 5.8536587, 1.5243902, -0.0433051
-1.0297852, -0.0297852, -0.0043945, 6.2195125, 6.7682929, 0.9146342, -0.0433051
-1.0229492, -0.0092773, -0.0214844, 5.4268293, 7.0731707, -0.4878049, -0.0439765
-1.0239258, 0.0029297, -0.0244141, 2.6829269, 6.8292685, -2.2560976, -0.0412909
-1.0249023, 0.0200195, -0.0175781, 1.9512196, 7.0121951, -2.6219513, -0.0453193
-1.0170898, 0.0288086, -0.0151367, 0.4878049, 8.5975609, -2.2560976, -0.0486763
-1, 0.0400391, -0.0336914, 0.1829268, 9.2073174, -2.5, -0.0506905
-0.9868164, 0.0336914, -0.074707, -1.5853659, 10.2439022, -3.2317073, -0.0513619
-0.9829102, 0.0268555, -0.0869141, -3.2317073, 9.9390249, -5.1219511, -0.0540475
-0.9902344, 0.0263672, -0.0957031, -4.4512196, 9.7560978, -6.1585369, -0.0587472
-0.9990234, 0.0317383, -0.0932617, -7.0121951, 8.780488, -6.6463418, -0.070161
-1.0053711, 0.0390625, -0.0917969, -7.4390244, 8.780488, -6.7682929, -0.0708324
-1.0107422, 0.043457, -0.0947266, -10, 9.1463413, -7.2560978, -0.0661326
-1.0166016, 0.0400391, -0.097168, -11.6463413, 9.2682924, -7.3170733, -0.0553902
-1.0200195, 0.0288086, -0.0966797, -15, 9.3292685, -9.0853662, -0.0466621
-1.0195312, -0.0073242, -0.0942383, -16.7682934, 9.2682924, -9.9390249, -0.0406195
-1.0185547, -0.0292969, -0.0888672, -18.5975609, 8.2926826, -11.1585369, -0.03122
-1.0170898, -0.0805664, -0.065918, -18.7195129, 8.0487804, -11.5243902, -0.0231632
-1.0092773, -0.1132812, -0.0371094, -17.3780499, 8.1707315, -10.8536587, -0.0248417
-1.0087891, -0.1210938, -0.0170898, -14.6341467, 9.4512196, -9.3902445, -0.0238346
-1.0029297, -0.1157227, 0.0048828, -12.7439032, 10.1219511, -8.5975609, -0.0325628
-1.0039062, -0.1074219, 0.0141602, -8.841464, 11.5243902, -8.1097565, -0.0365911
-1.0151367, -0.0834961, 0.0151367, -7.1341467, 12.1951218, -8.2317076, -0.0382696
-1.0141602, -0.0708008, 0.0068359, -4.0853658, 13.5365858, -9.0243902, -0.0419623
-1.0234375, -0.0415039, -0.0224609, -2.9878049, 13.9024391, -9.6951218, -0.0500191
-1.0229492, -0.03125, -0.0395508, -2.804878, 14.6341467, -10, -0.0473335
-1.0185547, -0.0258789, -0.0610352, -3.2926829, 14.8780489, -10.1219511, -0.0466621
-1.015625, -0.0268555, -0.0766602, -4.4512196, 15.6707325, -9.7560978, -0.0500191
-1, -0.0371094, -0.1152344, -5.3048782, 16.2195129, -9.6341467, -0.0486763
-0.9824219, -0.0556641, -0.1645508, -7.6829271, 16.5243912, -9.3292685, -0.056733
-0.9741211, -0.0644531, -0.1923828, -9.8170738, 15, -9.6951218, -0.056733
-0.9785156, -0.0795898, -0.2211914, -10.4878054, 14.0853662, -10.1219511, -0.0560616
-0.9794922, -0.0742188, -0.2172852, -11.1585369, 12.1341467, -9.3902445, -0.0540475
-0.9907227, -0.0556641, -0.1835938, -12.0731707, 11.0975609, -8.2317076, -0.0547189
-0.9902344, -0.0380859, -0.1679688, -13.4146347, 10.4268293, -6.280488, -0.0520333
-0.9858398, -0.0185547, -0.1513672, -14.1463413, 10.7317076, -5.9146342, -0.0486763
-0.9829102, -0.0200195, -0.1586914, -16.8292694, 10.5487804, -6.9512196, -0.0540475
-0.9726562, -0.0512695, -0.1621094, -18.3536587, 10.060976, -8.1097565, -0.0533761
-0.9794922, -0.0717773, -0.1630859, -20.7926826, 8.2926826, -9.8780489, -0.0473335
-0.980957, -0.1186523, -0.1411133, -21.7073174, 7.8658538, -9.6951218, -0.0433051
-0.9921875, -0.1489258, -0.1098633, -22.0121956, 8.4146347, -7.2560978, -0.0459907
-0.9936523, -0.152832, -0.0932617, -20.060976, 9.6341467, -3.5365853, -0.0480049
-1.0048828, -0.1464844, -0.0820312, -18.9024391, 10.1829271, -2.2560976, -0.0476692
-1.0146484, -0.1357422, -0.0854492, -16.4634151, 10.3658543, -1.0365853, -0.0480049
-1.0283203, -0.1035156, -0.1030273, -15.8536587, 10.6707315, -0.6707317, -0.0527047
-1.0380859, -0.0776367, -0.1079102, -15.2439032, 10, -0.3658537, -0.0527047
-1.0600586, -0.0336914, -0.1010742, -15.9756098, 9.8170738, 0.1829268, -0.049012
-1.0703125, -0.0078125, -0.1064453, -18.7195129, 10.7317076, 1.9512196, -0.0513619
-1.0620117, 0.0322266, -0.1386719, -19.939024, 11.341464, 3.5975611, -0.0527047
-1.0336914, 0.0371094, -0.1547852, -22.6219521, 10.4268293, 3.9024391, -0.0560616
-0.9677734, 0.0073242, -0.1513672, -25, 9.5731707, 2.195122, -0.0513619
-0.9404297, -0.0649414, -0.1206055, -29.2073174, 9.6951218, -4.0243902, -0.0486763
-0.9418945, -0.1069336, -0.0991211, -30.8536587, 11.1585369, -7.3780489, -0.0486763
-0.965332, -0.1870117, -0.0566406, -30.3658543, 12.1341467, -7.5609756, -0.0466621
-0.9716797, -0.2167969, -0.0375977, -27.560976, 14.1463413, -4.4512196, -0.0446479
-0.9892578, -0.2509766, -0.0029297, -25, 14.8170738, -2.0121951, -0.0406195
-0.9941406, -0.2475586, 0.0107422, -18.9634151, 17.0121956, 2.804878, -0.0453193
-1.0058594, -0.2055664, 0.0180664, -15.7926836, 17.9268303, 4.2682929, -0.0446479
-1.0151367, -0.1713867, 0.0053711, -9.2682924, 20.1219521, 5.8536587, -0.0426337
-1.0253906, -0.0932617, -0.0371094, -7.0731707, 20.6707325, 5.609756, -0.0406195
-1.034668, -0.0600586, -0.0581055, -5.1219511, 21.280489, 4.9390244, -0.0419623
-1.0449219, -0.0097656, -0.0874023, -5.5487804, 21.4024391, 4.390244, -0.0412909
-1.0429688, 0.0083008, -0.1010742, -7.2560978, 21.0975609, 3.5975611, -0.0419623
-1.0366211, 0.012207, -0.1035156, -9.7560978, 21.2195129, 3.1097562, -0.0466621
-1.0141602, -0.003418, -0.1157227, -10.6707315, 20.9146347, 3.2317073, -0.0500191
-1.0102539, -0.0161133, -0.112793, -11.5853662, 21.0975609, 3.1707318, -0.0473335
-0.9946289, -0.0424805, -0.0986328, -12.0731707, 21.280489, 3.3536587, -0.0446479
-0.9951172, -0.0541992, -0.0893555, -12.1951218, 22.0121956, 3.1707318, -0.0459907
-0.9980469, -0.0737305, -0.0751953, -11.5853662, 22.1951218, 2.6829269, -0.0436408
-1.0024414, -0.0810547, -0.0698242, -9.8170738, 23.1097565, 2.3780489, -0.0426337
-1.0126953, -0.0908203, -0.0947266, -8.9634151, 23.2926826, 2.0731707, -0.0433051
-1.0180664, -0.0898438, -0.1069336, -7.8658538, 24.0243912, 2.7439024, -0.0446479
-1.0229492, -0.0888672, -0.1254883, -7.6829271, 24.2073174, 3.2926829, -0.0469978
-1.0161133, -0.1064453, -0.128418, -7.6829271, 24.3902435, 4.2073174, -0.0473335
-1.015625, -0.1171875, -0.1298828, -6.890244, 24.0243912, 3.7195122, -0.0439765
-1.0092773, -0.1333008, -0.144043, -6.0975609, 23.1707325, 3.2926829, -0.0409552
-1.0117188, -0.137207, -0.1547852, -3.1097562, 22.9268303, 3.8414636, -0.0433051
-1.0126953, -0.1323242, -0.1782227, -2.195122, 22.8048782, 4.6341462, -0.0480049
-1.0146484, -0.1298828, -0.1904297, -0.5487805, 22.3170738, 6.7073174, -0.0433051
-1.0063477, -0.1132812, -0.2021484, -0.4878049, 21.5853672, 7.6219516, -0.0392767
-1.003418, -0.1142578, -0.2050781, -0.1219512, 20.5487804, 9.0243902, -0.0392767
-0.9931641, -0.1113281, -0.2089844, 0, 19.939024, 9.2682924, -0.0382696
-0.9946289, -0.1088867, -0.2114258, 0.7926829, 18.8414631, 9.2682924, -0.0396124
-1.0053711, -0.1181641, -0.2138672, 1.9512196, 17.7439022, 9.4512196, -0.0379339
-1.0185547, -0.1201172, -0.2236328, 2.9268293, 17.1951218, 9.7560978, -0.0382696
-1.0268555, -0.1118164, -0.2329102, 4.4512196, 15.3658543, 11.0365858, -0.0379339
-1.0361328, -0.1000977, -0.2543945, 5.0609756, 14.5121956, 12.1951218, -0.0345769
-1.0415039, -0.0922852, -0.2636719, 5.4878049, 11.8292685, 13.7195129, -0.0379339
-1.0366211, -0.0771484, -0.2758789, 5.1829271, 10.7926836, 14.5121956, -0.0372625
-1.0283203, -0.074707, -0.2768555, 3.9024391, 8.3536587, 15.1829271, -0.0359197
-1.0234375, -0.0727539, -0.2705078, 3.2926829, 7.1951222, 15.060976, -0.0399481
-1.0180664, -0.0795898, -0.265625, 1.5853659, 4.9390244, 15.1829271, -0.0399481
-1.0107422, -0.0947266, -0.2680664, 0.8536586, 4.1463413, 15.3658543, -0.0365911
-1.0053711, -0.1010742, -0.2734375, -0.0609756, 2.195122, 15.9146347, -0.0406195
-0.9921875, -0.1225586, -0.2939453, -0.9146342, 0.2439024, 17.0731716, -0.0392767
-0.9833984, -0.1435547, -0.3017578, -1.097561, -0.2439024, 17.6829281, -0.0379339
-0.9775391, -0.1464844, -0.2998047, -2.3780489, -0.9146342, 18.6585369, -0.0406195
-0.9697266, -0.1611328, -0.2871094, -3.2926829, -1.4634147, 19.3902435, -0.0386053
-0.9628906, -0.1660156, -0.2763672, -4.8170733, -2.3170731, 20.6707325, -0.0365911
-0.9580078, -0.1865234, -0.2583008, -5.4268293, -2.6219513, 21.3414631, -0.0392767
-0.9609375, -0.1987305, -0.2543945, -5.9146342, -3.5975611, 22.9268303, -0.0406195
-0.9467773, -0.2138672, -0.2548828, -5.8536587, -3.9024391, 23.6585369, -0.0419623
-0.9458008, -0.2202148, -0.253418, -5.7317076, -3.7195122, 25.6097565, -0.042298
-0.9414062, -0.2250977, -0.2617188, -5.3048782, -3.3536587, 26.6463413, -0.0392767
-0.9379883, -0.2255859, -0.2670898, -4.390244, -3.0487804, 28.6585369, -0.0399481
-0.9423828, -0.2299805, -0.262207, -3.4756098, -3.1707318, 30.9146347, -0.0406195
-0.9536133, -0.2241211, -0.2514648, -2.6219513, -3.9024391, 31.6463413, -0.0412909
-0.9541016, -0.2246094, -0.2392578, 0.0609756, -5.4878049, 32.5609779, -0.0379339
-0.9614258, -0.2041016, -0.2055664, 2.3170731, -5.7317076, 32.8658562, -0.0382696
-0.965332, -0.1865234, -0.1738281, 7.6219516, -5, 33.5975609, -0.0379339
-0.9770508, -0.1445312, -0.1254883, 10.6097565, -4.8170733, 34.0243912, -0.0342412
-0.9799805, -0.1157227, -0.105957, 16.2195129, -4.1463413, 34.5121956, -0.0318914
-0.9931641, -0.0527344, -0.0849609, 18.6585369, -4.5121951, 34.6951218, -0.03122
-0.9960938, -0.015625, -0.0820312, 23.0487804, -4.5731707, 35.4268303, -0.0339055
-0.9970703, 0.0566406, -0.0942383, 24.4512196, -4.5731707, 35.9756088, -0.0288701
-0.9975586, 0.0834961, -0.1088867, 24.3902435, -4.3292685, 35.9756088, -0.0325628
-0.9814453, 0.1269531, -0.1333008, 21.8292694, -4.7560978, 35.3048782, -0.03122
-0.9731445, 0.1318359, -0.1313477, 20, -4.9390244, 34.5731697, -0.0325628
-0.9667969, 0.1245117, -0.1142578, 18.1097565, -6.5853658, 32.5, -0.0365911
-0.9648438, 0.0957031, -0.0722656, 17.439024, -7.3170733, 31.6463413, -0.0392767
-0.9682617, 0.0786133, -0.0585938, 18.5975609, -8.5365858, 30.1219521, -0.0446479
-0.9692383, 0.0444336, -0.0395508, 19.7560978, -8.5975609, 29.7560978, -0.0433051
-0.9702148, 0.0400391, -0.0390625, 23.5365868, -7.5609756, 29.5121956, -0.0446479
-0.9814453, 0.034668, -0.0429688, 25.1829281, -7.0121951, 29.3292694, -0.0419623
-0.9819336, 0.0341797, -0.0439453, 27.9268303, -5.2439027, 29.6951218, -0.0486763
-0.9941406, 0.0483398, -0.0395508, 28.841465, -4.9390244, 29.6951218, -0.0473335
-0.9960938, 0.0566406, -0.0302734, 30.6097565, -5.5487804, 29.5731716, -0.0419623
-0.9926758, 0.0761719, -0.0180664, 32.0731697, -6.0975609, 29.2682934, -0.0459907
-0.9926758, 0.0893555, -0.0102539, 32.6829262, -5.7926831, 28.9024391, -0.0473335
-0.9892578, 0.0952148, -0.0146484, 33.4756088, -4.5731707, 28.2926826, -0.0476692
-0.9848633, 0.1069336, -0.0205078, 33.4146347, -3.9634147, 28.4146347, -0.0449836
-0.9833984, 0.1191406, -0.0263672, 32.5609779, -1.8902439, 28.2926826, -0.042298
-0.9829102, 0.1425781, -0.0493164, 32.6219521, -0.4878049, 27.5, -0.0399481
-0.9838867, 0.1494141, -0.0698242, 33.1097565, 1.402439, 25.3048782, -0.0379339
-0.9951172, 0.1640625, -0.1162109, 32.9878044, 1.8902439, 23.9634151, -0.0379339
-0.9995117, 0.1582031, -0.1391602, 31.0365868, 2.5, 21.7682934, -0.0365911
-1.0107422, 0.137207, -0.1616211, 29.4512196, 2.5, 20.4878044, -0.0379339
-1.0244141, 0.1220703, -0.1640625, 25.7317085, 1.8292683, 18.5365849, -0.0406195
-1.0410156, 0.0996094, -0.1542969, 24.3292694, 1.8292683, 17.1341476, -0.0372625
-1.0620117, 0.0888672, -0.1518555, 24.5121956, 1.6463414, 16.7682934, -0.0345769
-1.0712891, 0.0839844, -0.1523438, 25.1829281, 1.8292683, 16.5243912, -0.0352483
-1.0883789, 0.0874023, -0.1713867, 25.3048782, 1.8902439, 16.4024391, -0.0325628
-1.0986328, 0.0898438, -0.1811523, 24.9390259, 1.2804878, 15.9756098, -0.0339055
-1.1137695, 0.0957031, -0.2084961, 24.3902435, 0.1829268, 15.5487804, -0.0352483
-1.1230469, 0.0966797, -0.21875, 23.2926826, -1.7073171, 15.3658543, -0.0369268
-1.1274414, 0.1025391, -0.2333984, 22.6829281, -2.7439024, 15.5487804, -0.0386053
-1.1274414, 0.1083984, -0.230957, 21.4634151, -5.670732, 15.3658543, -0.0369268
-1.128418, 0.1152344, -0.2202148, 20.7926826, -7.3170733, 15.6097565, -0.0352483
-1.1196289, 0.112793, -0.2148438, 19.0243912, -9.2073174, 15.6097565, -0.0372625
-1.1118164, 0.1113281, -0.2177734, 17.9268303, -10.9756098, 15.1829271, -0.0392767
-1.0922852, 0.1049805, -0.2314453, 17.6219521, -11.5243902, 15.1219511, -0.0409552
-1.0854492, 0.0932617, -0.237793, 16.1585369, -13.2317076, 14.6341467, -0.0382696
-1.0708008, 0.0571289, -0.2548828, 15.1829271, -13.9634151, 14.0243902, -0.0372625
-1.0673828, 0.0361328, -0.2553711, 13.2926836, -15.2439032, 13.4756098, -0.0369268
-1.0620117, -0.0029297, -0.2519531, 12.8048782, -16.1585369, 13.2317076, -0.0386053
-1.0546875, -0.015625, -0.2441406, 13.0487804, -18.1707325, 14.6341467, -0.0396124
-1.0507812, -0.0380859, -0.21875, 13.6585369, -18.9634151, 15.3048782, -0.0412909
-1.0439453, -0.0400391, -0.2026367, 15.3048782, -19.5731716, 16.8292694, -0.0365911
-1.0332031, -0.0449219, -0.1723633, 16.0365849, -19.5731716, 17.1951218, -0.0372625
-1.0209961, -0.0385742, -0.1494141, 17.8048782, -19.6951218, 17.1341476, -0.0365911
-1.0209961, -0.0385742, -0.140625, 19.7560978, -20.3048782, 16.4634151, -0.0339055
-1.0185547, -0.0371094, -0.137207, 21.0365868, -20.6097565, 16.2195129, -0.0271916
-1.019043, -0.03125, -0.1391602, 22.6219521, -20.6707325, 16.2195129, -0.0332341
-1.0112305, -0.0263672, -0.1342773, 23.1097565, -20.6707325, 16.3414631, -0.0352483
-1.0092773, -0.0224609, -0.1293945, 23.0487804, -19.8780499, 17.5, -0.0392767
-0.9892578, -0.0087891, -0.1342773, 22.6829281, -19.0853672, 18.3536587, -0.0379339
-0.9780273, -0.0063477, -0.1347656, 20.9756107, -17.2560978, 19.6951218, -0.0406195
-0.9453125, -0.0048828, -0.1171875, 19.6951218, -16.4024391, 19.5731716, -0.0433051
-0.9311523, -0.0073242, -0.0976562, 17.0121956, -15.6097565, 19.1463413, -0.0409552
-0.9013672, -0.0141602, -0.0507812, 15.7926836, -14.9390249, 18.8414631, -0.0406195
-0.8833008, -0.0136719, -0.0078125, 14.1463413, -12.4390249, 17.7439022, -0.0419623
-0.8798828, -0.0126953, 0.0053711, 14.8170738, -8.1097565, 17.0731716, -0.0406195
-0.8823242, 0.0009766, -0.0092773, 15.5487804, -5.3658538, 16.4024391, -0.0396124
-0.890625, 0.012207, -0.0258789, 15.9146347, -0.7926829, 14.9390249, -0.0433051
-0.921875, 0.0249023, -0.0727539, 15.3048782, 0.8536586, 14.1463413, -0.0439765
-0.9370117, 0.0351562, -0.0908203, 13.2926836, 2.6219513, 12.3780489, -0.0406195
-0.9741211, 0.0473633, -0.1279297, 12.1951218, 2.7439024, 11.7073174, -0.0386053
-0.9916992, 0.0439453, -0.1381836, 9.6951218, 3.1707318, 11.5853662, -0.0386053
-1.0078125, 0.0332031, -0.1538086, 8.2317076, 3.4146342, 11.0975609, -0.0419623
-1.0161133, 0.0253906, -0.1582031, 5.8536587, 3.5365853, 9.9390249, -0.042298
-1.0292969, 0.0014648, -0.159668, 4.6341462, 3.5365853, 9.5121956, -0.0466621
-1.0415039, -0.0239258, -0.1552734, 4.5121951, 2.8658538, 9.2682924, -0.0486763
-1.0463867, -0.0292969, -0.1533203, 5.8536587, 2.3170731, 9.5731707, -0.0473335
-1.0439453, -0.0366211, -0.1577148, 6.7073174, 2.3780489, 9.9390249, -0.0493477
-1.0444336, -0.0356445, -0.168457, 8.2317076, 2.4390244, 10.5487804, -0.0486763
-1.0327148, -0.0292969, -0.1889648, 9.1463413, 2.3780489, 10.7926836, -0.0476692
-1.0205078, -0.0258789, -0.2036133, 9.9390249, 1.5853659, 10.2439022, -0.0469978
-1.0058594, -0.0283203, -0.2202148, 10.1829271, 1.3414634, 9.7560978, -0.0486763
-1.003418, -0.0253906, -0.2270508, 10.6097565, -0.3048781, 8.780488, -0.0513619
-1.0024414, -0.0366211, -0.2285156, 10.9146347, -0.9146342, 8.2926826, -0.0530404
-0.9995117, -0.0405273, -0.2275391, 11.4024391, -1.8902439, 7.4390244, -0.0516976
-1.0029297, -0.0424805, -0.2109375, 11.8902445, -2.7439024, 7.3170733, -0.0527047
-1.0043945, -0.0419922, -0.1958008, 13.4146347, -3.6585367, 7.0121951, -0.0527047
-1.0063477, -0.0380859, -0.1860352, 15.7926836, -4.390244, 6.5243902, -0.0486763
-1.0166016, -0.0258789, -0.1923828, 17.0731716, -4.7560978, 6.0365853, -0.0486763
-1.0200195, -0.0209961, -0.1953125, 18.9634151, -5.609756, 5.670732, -0.0446479
-1.0234375, -0.015625, -0.2089844, 19.8780499, -5.9756098, 5.609756, -0.0459907
-1.0234375, -0.0131836, -0.2163086, 21.0365868, -6.8292685, 5.1219511, -0.0473335
-1.0249023, -0.0107422, -0.2275391, 21.0365868, -7.5, 5, -0.0419623
-1.0268555, -0.0083008, -0.2241211, 20.5487804, -8.6585369, 4.6341462, -0.0392767
-1.0224609, -0.0043945, -0.2197266, 20.3048782, -9.1463413, 4.4512196, -0.0433051
-1.0185547, -0.0029297, -0.2124023, 20.1219521, -10.6097565, 4.5731707, -0.0392767
-1.0112305, 0.0068359, -0.2207031, 20.3048782, -11.1585369, 4.7560978, -0.0396124
-0.9931641, 0.0131836, -0.2333984, 20.3658543, -12.560976, 4.6341462, -0.0392767
-0.9873047, 0.0087891, -0.2397461, 20.060976, -13.7195129, 4.0853658, -0.0406195
-0.9765625, 0.0014648, -0.2514648, 19.7560978, -14.6951227, 3.8414636, -0.0419623
-0.9726562, -0.0024414, -0.2548828, 18.4756107, -16.5853653, 3.1097562, -0.0459907
-0.9648438, -0.019043, -0.2568359, 17.9268303, -17.439024, 2.8658538, -0.0486763
-0.9628906, -0.0244141, -0.253418, 16.5853653, -18.9024391, 2.804878, -0.0553902
-0.9638672, -0.0439453, -0.2456055, 16.4024391, -19.6341476, 2.5609756, -0.0580758
-0.9648438, -0.0483398, -0.2407227, 16.5243912, -20.9756107, 2.6829269, -0.0587472
-0.9584961, -0.0698242, -0.2226562, 16.5243912, -21.5243912, 2.4390244, -0.0621042
-0.9628906, -0.0756836, -0.2119141, 17.5, -22.6219521, 2.4390244, -0.06009
-0.9658203, -0.0791016, -0.1879883, 18.4146347, -22.7439022, 2.5609756, -0.0607614
-0.972168, -0.0703125, -0.1762695, 20.3048782, -23.4146347, 2.9878049, -0.0647898
-0.9711914, -0.065918, -0.171875, 22.1951218, -23.8414631, 3.5975611, -0.0641184
-0.96875, -0.0498047, -0.1757812, 23.5975609, -23.780489, 3.4146342, -0.0553902
-0.9672852, -0.043457, -0.1728516, 25.2439022, -23.5975609, 3.4756098, -0.0553902
-0.9794922, -0.0180664, -0.1738281, 26.0365868, -24.0243912, 3.6585367, -0.056733
-0.9770508, -0.0126953, -0.1811523, 26.9512196, -25, 3.7195122, -0.0574044
-0.9741211, 0.0039062, -0.1875, 26.7073174, -24.8780499, 3.6585367, -0.0540475
-0.9770508, 0.0048828, -0.1811523, 26.4024391, -25.4878063, 3.4146342, -0.0527047
-0.9750977, 0.0083008, -0.1713867, 26.4024391, -26.2195129, 3.2926829, -0.0500191
-0.9731445, 0.0068359, -0.1625977, 26.6463413, -26.4024391, 2.3170731, -0.0486763
-0.9697266, -0.0009766, -0.1518555, 26.7682934, -27.0121956, 1.4634147, -0.0473335
-0.9716797, -0.0048828, -0.140625, 27.0121956, -26.8292694, 1.2195122, -0.0446479
-0.9760742, -0.0063477, -0.1318359, 28.4756107, -26.3414631, 0.8536586, -0.0433051
-0.9814453, -0.0029297, -0.1210938, 28.6585369, -25.9146347, 0.5487805, -0.0409552
-0.9824219, -0.0009766, -0.1201172, 30.1219521, -25.3658543, 0, -0.0412909
-0.9833984, 0.0112305, -0.1245117, 30.5487804, -24.7560978, -0.3658537, -0.0392767
-0.984375, 0.0146484, -0.1289062, 31.4634151, -24.3292694, -1.0365853, -0.0406195
-0.9794922, 0.0205078, -0.1396484, 31.6463413, -24.6341476, -1.7073171, -0.0406195
-0.9755859, 0.0209961, -0.1455078, 31.7073174, -24.3902435, -2.7439024, -0.0406195
-0.972168, 0.0141602, -0.1542969, 31.7073174, -24.3292694, -3.0487804, -0.0439765
-0.9648438, 0.0083008, -0.1542969, 31.4024391, -24.6951218, -3.9634147, -0.0453193
-0.9638672, -0.0161133, -0.1499023, 31.8902454, -25.060976, -5, -0.0446479
-0.9633789, -0.0410156, -0.1484375, 32.3780479, -24.9390259, -5.4878049, -0.0419623
-0.9672852, -0.0532227, -0.1474609, 34.1463432, -24.6341476, -6.0365853, -0.0396124
-0.9736328, -0.0712891, -0.1411133, 35.8536606, -24.5731716, -6.7073174, -0.0392767
-0.9775391, -0.0727539, -0.1435547, 38.2926826, -24.1463413, -6.6463418, -0.0352483
-0.9868164, -0.0776367, -0.1547852, 39.8780479, -24.2073174, -6.3414636, -0.0345769
-0.9916992, -0.0766602, -0.1582031, 42.1951218, -24.0853672, -6.0365853, -0.0459907
-0.9931641, -0.0693359, -0.1738281, 43.0487823, -24.0243912, -5.5487804, -0.0473335
-0.9995117, -0.0664062, -0.1826172, 43.5975609, -24.3902435, -5.7317076, -0.0469978
-1.0117188, -0.0615234, -0.190918, 44.5731735, -24.5731716, -5.670732, -0.0433051
-1.0170898, -0.0527344, -0.1889648, 45.6097565, -25.4268303, -5.609756, -0.0463264
-1.0214844, -0.0380859, -0.1821289, 46.2195129, -25.9146347, -5.1219511, -0.0493477
-1.027832, -0.0141602, -0.1728516, 46.6463432, -26.280489, -5.0609756, -0.0520333
-1.0297852, -0.003418, -0.1660156, 47.1341476, -26.280489, -4.7560978, -0.0486763
-1.0258789, 0.0205078, -0.1582031, 47.0731735, -25.9756107, -4.8780489, -0.0466621
-1.0253906, 0.0351562, -0.1518555, 47.5, -25.6097565, -5.1829271, -0.0453193
-1.0234375, 0.0581055, -0.1547852, 47.6829262, -25.2439022, -5.670732, -0.0459907
-1.0170898, 0.0668945, -0.1650391, 46.7073174, -24.5121956, -6.5853658, -0.0466621
-1.0117188, 0.0810547, -0.171875, 46.2804871, -24.2073174, -7.4390244, -0.0520333
-1.0087891, 0.0810547, -0.1806641, 44.6341476, -24.5121956, -8.2926826, -0.0493477
-1.0048828, 0.0776367, -0.1855469, 43.3536606, -24.3902435, -8.9024391, -0.0459907
-1.0048828, 0.0654297, -0.184082, 40.3048782, -24.5121956, -9.6341467, -0.0480049
-0.9926758, 0.0380859, -0.1738281, 37.1951218, -24.5731716, -10.060976, -0.0459907
-0.9868164, 0.0063477, -0.1542969, 36.0365868, -24.4512196, -10.4268293, -0.0459907
-0.9897461, -0.0102539, -0.144043, 34.6341476, -24.4512196, -10.4878054, -0.0459907
-0.9907227, -0.0332031, -0.1318359, 34.8780479, -24.1463413, -10.4878054, -0.0419623
-0.9892578, -0.0395508, -0.1269531, 36.0365868, -22.560976, -9.5121956, -0.0433051
-0.9902344, -0.0488281, -0.128418, 37.1951218, -21.6463413, -9.2682924, -0.0433051
-0.9921875, -0.0463867, -0.128418, 39.1463432, -20.3048782, -8.5975609, -0.0399481
-1.0043945, -0.0444336, -0.1381836, 39.5121956, -19.4512196, -8.4146347, -0.0406195
-1.0083008, -0.0419922, -0.1391602, 40.1219521, -18.9024391, -8.4146347, -0.0399481
-1.0244141, -0.0385742, -0.1523438, 40.5487823, -18.9024391, -8.2926826, -0.0392767
-1.0356445, -0.0424805, -0.1572266, 41.0365868, -18.3536587, -8.0487804, -0.0372625
-1.050293, -0.0400391, -0.1616211, 41.5853653, -18.7195129, -7.6829271, -0.0406195
-1.059082, -0.0366211, -0.1616211, 41.9512215, -19.0243912, -7.1951222, -0.0426337
-1.0639648, -0.0322266, -0.1591797, 42.2560997, -19.2073174, -5.5487804, -0.0412909
-1.0698242, -0.0234375, -0.1533203, 42.2560997, -19.2682934, -4.8780489, -0.0419623
-1.0693359, -0.0200195, -0.1479492, 43.1707344, -19.6951218, -3.0487804, -0.0412909
-1.065918, -0.0175781, -0.1381836, 43.5365868, -19.6341476, -2.2560976, -0.0392767
-1.0654297, -0.0185547, -0.128418, 44.5731735, -20.4268303, -1.2195122, -0.0396124
-1.0498047, -0.0170898, -0.1264648, 45, -20.7317085, -0.7317073, -0.0412909
-1.0419922, -0.0107422, -0.1201172, 46.341465, -21.0365868, -0.2439024, -0.0392767
-1.0297852, -0.0039062, -0.1049805, 46.8902435, -20.6097565, 0, -0.0392767
-1.0209961, 0.0058594, -0.1020508, 47.6829262, -19.8170738, 0.9146342, -0.0392767
-1.0107422, 0.0170898, -0.0976562, 47.6219521, -18.7195129, 0.8536586, -0.0406195
-1.0024414, 0.027832, -0.1000977, 47.7439041, -17.7439022, 0.8536586, -0.0409552
-0.9970703, 0.0380859, -0.1040039, 47.6829262, -16.7073174, 0.4878049, -0.0392767
-0.9990234, 0.0463867, -0.1186523, 47.3170738, -16.5853653, 0.1829268, -0.0412909
-0.9995117, 0.0512695, -0.1201172, 45.9146347, -15.9756098, -0.7926829, -0.0433051
-1.0004883, 0.0532227, -0.1279297, 44.8170738, -15.4878054, -1.1585366, -0.0433051
-1.0019531, 0.0546875, -0.1245117, 42.3780479, -15, -1.5243902, -0.0386053
-1.003418, 0.0512695, -0.1113281, 40.9756088, -14.7560978, -1.7682927, -0.0365911
-1.0097656, 0.046875, -0.1074219, 39.5121956, -14.0853662, -1.8902439, -0.0365911
-1.0141602, 0.0415039, -0.105957, 38.6585388, -14.1463413, -2.1341465, -0.0392767
-1.0180664, 0.034668, -0.1137695, 38.2317085, -14.6341467, -2.9878049, -0.0396124
-1.0288086, 0.0249023, -0.1162109, 37.5609779, -15.4878054, -3.4146342, -0.0372625
-1.0351562, 0.0224609, -0.1186523, 37.2560997, -15.7926836, -3.2317073, -0.0352483
-1.0375977, 0.0234375, -0.1147461, 36.5243912, -16.4024391, -2.9268293, -0.0365911
-1.0400391, 0.0332031, -0.0981445, 36.1585388, -16.4634151, -2.8658538, -0.0386053
-1.043457, 0.0361328, -0.0927734, 35.6707344, -17.1341476, -1.8902439, -0.035584
-1.046875, 0.0410156, -0.0795898, 35.1829262, -17.3780499, -1.8902439, -0.0345769
-1.0444336, 0.0400391, -0.0722656, 35.2439041, -18.1707325, -2.3170731, -0.0318914
-1.0410156, 0.0366211, -0.0649414, 35.2439041, -18.6585369, -2.4390244, -0.0352483
-1.0424805, 0.0361328, -0.0566406, 36.0975609, -19.5731716, -2.7439024, -0.0318914
-1.0356445, 0.0273438, -0.0507812, 36.341465, -19.8170738, -2.804878, -0.0325628
-1.0273438, 0.0175781, -0.0483398, 37.4390259, -20.6097565, -2.5, -0.0352483
-1.0273438, 0.0131836, -0.0493164, 39.2682953, -20.6097565, -2.3170731, -0.03122
-1.0175781, 0.0112305, -0.0537109, 40.6097565, -20.4878044, -2.195122, -0.0292058
-1.0131836, 0.0151367, -0.0527344, 43.4146347, -20.7317085, -1.402439, -0.027863
-1.0087891, 0.0219727, -0.0600586, 44.2073174, -20.5487804, -1.2804878, -0.0308843
-1.0087891, 0.0302734, -0.0634766, 46.2804871, -21.6463413, -0.6707317, -0.0352483
-1.0029297, 0.0385742, -0.0615234, 46.5853653, -22.1951218, -0.5487805, -0.0305486
-0.9975586, 0.0405273, -0.0610352, 47.9268303, -23.2317085, -0.8536586, -0.0275273
-0.987793, 0.0493164, -0.0708008, 48.2317085, -23.780489, -0.9146342, -0.0298772
-0.9868164, 0.0522461, -0.0776367, 49.6951218, -24.0243912, -1.4634147, -0.0288701
-0.9897461, 0.065918, -0.0908203, 50.6097565, -24.3902435, -1.7073171, -0.0285344
-0.9995117, 0.081543, -0.1044922, 50.7926826, -25.3658543, -1.5243902, -0.0271916
-1.0024414, 0.0917969, -0.1069336, 49.8780518, -26.4634151, -1.2195122, -0.0271916
-1.0083008, 0.1044922, -0.1005859, 48.9024391, -27.3170738, -0.7317073, -0.0265202
-1.0087891, 0.1142578, -0.1025391, 46.7073174, -28.1707325, -0.4268293, -0.0265202
-1.0107422, 0.1210938, -0.0893555, 45.6097565, -28.6585369, -0.6707317, -0.0298772
-1.0131836, 0.1230469, -0.0805664, 43.6585388, -30.4268303, -0.6707317, -0.0298772
-1.012207, 0.1235352, -0.0668945, 42.9268303, -31.4024391, -0.9146342, -0.0318914
-1.0151367, 0.1171875, -0.0585938, 41.8902435, -33.1097565, -1.2195122, -0.0325628
-1.0146484, 0.1040039, -0.0463867, 40.9756088, -33.5365868, -1.2804878, -0.0325628
-1.0131836, 0.1020508, -0.043457, 39.9390259, -34.5731697, -0.7317073, -0.0305486
-1.0117188, 0.0805664, -0.0341797, 39.8170738, -34.6951218, -0.4878049, -0.0305486
-1.0219727, 0.0610352, -0.0209961, 39.7560997, -35, -0.0609756, -0.0339055
-1.027832, 0.0537109, -0.0136719, 40.9756088, -36.0975609, 1.3414634, -0.0392767
-1.0263672, 0.0351562, -0.0078125, 42.1341476, -36.2804871, 2.3170731, -0.0392767
-1.0288086, 0.0268555, -0.0068359, 45.1219521, -36.341465, 3.9024391, -0.0379339
-1.034668, 0.0166016, -0.015625, 46.7073174, -36.5243912, 4.7560978, -0.0352483
-1.0415039, 0.0219727, -0.0185547, 49.5731735, -36.8902435, 6.7073174, -0.0399481
-1.046875, 0.0302734, -0.0200195, 50.7926826, -37.3780479, 7.5609756, -0.0379339
-1.0488281, 0.0366211, -0.0209961, 52.2560997, -38.6585388, 10, -0.0406195
-1.0512695, 0.0585938, -0.0112305, 52.6829262, -38.9634171, 11.1585369, -0.0392767
-1.0522461, 0.0727539, -0.012207, 54.2073174, -39.6341476, 13.4146347, -0.0392767
-1.0390625, 0.1030273, -0.0146484, 55.2439041, -40.0609779, 14.5121956, -0.0379339
-1.0317383, 0.1264648, -0.0195312, 56.9512215, -40.3658562, 16.3414631, -0.0365911
-1.0268555, 0.1411133, -0.0234375, 57.8658562, -41.5853653, 17.560976, -0.0339055
-1.0219727, 0.1630859, -0.0273438, 58.0487823, -41.9512215, 17.9268303, -0.0352483
-1.015625, 0.1708984, -0.0302734, 57.1951218, -42.9878044, 18.3536587, -0.0352483
-1.0117188, 0.1850586, -0.0234375, 56.2804909, -42.9268303, 18.8414631, -0.0379339
-1.0087891, 0.1865234, -0.019043, 54.9390259, -43.1707344, 19.2073174, -0.0392767
-1.0083008, 0.1894531, -0.0185547, 54.0853653, -43.5365868, 19.5731716, -0.0369268
-1.0107422, 0.1879883, -0.0200195, 53.2317085, -43.7195129, 20.3658543, -0.0365911
-1.0024414, 0.1738281, -0.0200195, 52.2560997, -43.841465, 20.4878044, -0.0325628
-1.0014648, 0.1621094, -0.0195312, 50.3658562, -43.841465, 21.2195129, -0.0365911
-1.0087891, 0.1459961, -0.0146484, 49.3902435, -43.7804871, 21.6463413, -0.0412909
-1.0297852, 0.1323242, 0.003418, 47.9268303, -43.4756126, 22.5, -0.0392767
-1.0371094, 0.1245117, 0.015625, 48.3536606, -43.6585388, 24.5121956, -0.0369268
-1.0473633, 0.1313477, 0.03125, 49.0853653, -43.3536606, 25.7317085, -0.0386053
-1.0541992, 0.1391602, 0.0380859, 50.7926826, -43.2317085, 27.8048782, -0.0406195
-1.0639648, 0.1625977, 0.0361328, 51.5853653, -42.8048782, 28.5365868, -0.0382696
-1.0605469, 0.1704102, 0.027832, 52.8048782, -41.9512215, 29.6341476, -0.0365911
-1.0664062, 0.1850586, 0.0185547, 53.2317085, -41.9512215, 30.2439022, -0.0365911
-1.0688477, 0.1918945, 0.0083008, 54.0243912, -41.8902435, 31.280489, -0.0419623
-1.0722656, 0.2011719, 0.0009766, 54.2073174, -42.2560997, 32.0121956, -0.0426337
-1.0698242, 0.2050781, -0.0024414, 54.5731735, -42.6829262, 33.841465, -0.0419623
-1.0683594, 0.2089844, -0.015625, 54.8170738, -42.9878044, 34.8780479, -0.0433051
-1.0639648, 0.2001953, -0.0244141, 54.6341476, -43.4756126, 36.6463432, -0.0419623
-1.0600586, 0.1962891, -0.0307617, 54.7560997, -44.2682953, 38.4756088, -0.0412909
-1.0556641, 0.1953125, -0.0512695, 54.6951218, -44.7560997, 39.0243912, -0.0433051
-1.0561523, 0.190918, -0.0566406, 54.5121956, -46.2804871, 40.1219521, -0.0466621
-1.0532227, 0.1879883, -0.0620117, 54.4512215, -47.5609779, 40.9756088, -0.0449836
-1.0561523, 0.1875, -0.0546875, 55.6097565, -49.2073174, 42.1951218, -0.0503548
-1.0527344, 0.1987305, -0.0385742, 56.9512215, -49.8170738, 42.7439041, -0.0493477
-1.050293, 0.206543, -0.0361328, 60.0609779, -49.7560997, 44.4512215, -0.0459907
-1.0473633, 0.2231445, -0.043457, 61.6463432, -49.8780518, 45.2439041, -0.0439765
-1.0473633, 0.2294922, -0.0488281, 63.2926826, -49.6951218, 46.341465, -0.0433051
-1.0449219, 0.2543945, -0.0522461, 63.5365868, -50.0609779, 46.6463432, -0.0473335
-1.0449219, 0.2797852, -0.0292969, 62.3780518, -50.9756126, 47.3780518, -0.0480049
-1.0429688, 0.2954102, -0.0097656, 60.9146347, -51.5853653, 48.4146347, -0.0426337
-1.0371094, 0.3183594, 0.0322266, 60.18293, -51.2804909, 49.3292694, -0.0412909
-1.0307617, 0.3251953, 0.0507812, 57.7439041, -49.9390259, 50.6097565, -0.0419623
-1.0078125, 0.3193359, 0.0742188, 56.5853653, -48.1707344, 50.8536606, -0.0406195
-0.9956055, 0.3120117, 0.0844727, 54.6951218, -45.2439041, 51.2195129, -0.0406195
-0.9775391, 0.2856445, 0.0869141, 53.9024391, -43.3536606, 51.1585388, -0.0446479
-0.9677734, 0.2714844, 0.0820312, 52.6829262, -40.1219521, 51.5243912, -0.0459907
-0.9599609, 0.2416992, 0.0756836, 52.4390259, -38.4146347, 52.0121956, -0.0466621
-0.9550781, 0.2299805, 0.0732422, 52.2560997, -35.7317085, 53.4756126, -0.0513619
-0.953125, 0.2114258, 0.0566406, 53.0487823, -33.2317085, 55.9146347, -0.0516976
-0.9506836, 0.2104492, 0.0424805, 54.0243912, -32.0731697, 57.1951218, -0.0506905
-0.9477539, 0.2148438, 0.0400391, 54.9390259, -30.4268303, 59.2073174, -0.0513619
-0.9526367, 0.2446289, 0.0283203, 55.9146347, -29.3902454, 60.2439041, -0.0533761
-0.9521484, 0.2607422, 0.0268555, 57.4390259, -27.6829281, 61.4024391, -0.0527047
-0.9624023, 0.2924805, 0.0209961, 58.4756126, -27.1951218, 62.0121956, -0.0513619
-0.9663086, 0.3125, 0.0166016, 60.4268303, -26.7682934, 62.7439041, -0.0580758
-0.9731445, 0.3491211, 0.0083008, 61.5243912, -26.4024391, 62.68293, -0.0540475
-0.9746094, 0.3623047, -0.003418, 62.8048782, -25.8536587, 62.8048782, -0.0547189
-0.9770508, 0.3969727, -0.0253906, 62.9268303, -25.6097565, 62.9878082, -0.0527047
-0.9794922, 0.4082031, -0.0317383, 62.0121956, -24.4512196, 63.2317085, -0.0513619
-0.9775391, 0.4306641, -0.0541992, 60.2439041, -23.4756107, 63.5975609, -0.0540475
-0.9804688, 0.4448242, -0.0756836, 59.0243912, -22.6829281, 63.7195129, -0.0503548
-0.9775391, 0.4492188, -0.0810547, 56.2804909, -22.1341476, 63.841465, -0.0453193
-0.9755859, 0.4458008, -0.0874023, 54.5731735, -22.3170738, 63.6585388, -0.0473335
-0.9746094, 0.4433594, -0.081543, 51.6463432, -22.8658543, 62.8658562, -0.0513619
-0.9716797, 0.4238281, -0.065918, 50.7317085, -23.4756107, 62.8048782, -0.0513619
-0.9663086, 0.4116211, -0.0605469, 49.6951218, -24.0853672, 62.6219521, -0.0513619
-0.9628906, 0.3818359, -0.0610352, 49.5121956, -23.9634151, 62.5609779, -0.0527047
-0.9643555, 0.3608398, -0.0620117, 49.6951218, -22.7439022, 63.1707344, -0.0513619
-0.9702148, 0.3222656, -0.0810547, 50.0609779, -22.9268303, 63.1707344, -0.0473335
-0.9785156, 0.3032227, -0.0830078, 51.5243912, -23.780489, 64.2682953, -0.0446479
-1.0004883, 0.2817383, -0.0844727, 54.0243912, -25, 67.0731735, -0.0399481
-1.0151367, 0.277832, -0.065918, 55.2439041, -25.3658543, 68.9634171, -0.0473335
