Application:, Trigno Discover (1.6.5)
Date/Time:, 03/02/2025 10:48:19
Collection Length (seconds):, 51.0705
wrist (81457), , , , , , bicep (81139)
sensor mode: 609, , , , , , sensor mode: 40
ACC X (G), ACC Y (G), ACC Z (G), GYRO X (deg/s), GYRO Y (deg/s), GYRO Z (deg/s), EMG 1 (mV)
370.3704 Hz, 370.3704 Hz, 370.3704 Hz, 370.3704 Hz, 370.3704 Hz, 370.3704 Hz, 2148.1481 Hz
-0.9306641, 0.0698242, 0.3056641, -14.5731707, -6.890244, 4.6951222, -0.1104448
-0.9291992, 0.0708008, 0.3037109, -13.4756098, -6.2195125, 4.0243902, -0.0956741
-0.9326172, 0.0634766, 0.3027344, -12.2560978, -5.4268293, 3.0487804, -0.0715038
-0.9428711, 0.0639648, 0.2944336, -11.6463413, -5.1829271, 2.5609756, -0.0500191
-0.953125, 0.0581055, 0.2841797, -10.9756098, -4.8780489, 2.3170731, -0.0352483
-0.9604492, 0.0546875, 0.2568359, -10.1829271, -4.4512196, 2.3170731, -0.0305486
-0.9682617, 0.0532227, 0.2407227, -9.5731707, -4.8170733, 2.5, -0.024506
-0.984375, 0.050293, 0.2011719, -9.3902445, -5.0609756, 2.7439024, -0.0231632
-0.9868164, 0.0541992, 0.1835938, -9.2073174, -5.5487804, 2.6829269, -0.0271916
-0.9912109, 0.0527344, 0.1669922, -8.9634151, -5.7926831, 2.5609756, -0.024506
-1.0083008, 0.0478516, 0.1689453, -9.4512196, -6.9512196, 2.2560976, -0.0339055
-1.0136719, 0.043457, 0.1777344, -9.6951218, -7.9268293, 1.8902439, -0.0520333
-1.0170898, 0.0356445, 0.1962891, -8.841464, -8.9024391, 2.2560976, -0.0587472
-1.0146484, 0.0395508, 0.206543, -7.9268293, -9.1463413, 3.1707318, -0.0580758
-1.0024414, 0.0395508, 0.2348633, -7.8658538, -9.5731707, 3.3536587, -0.0627756
-0.9985352, 0.0395508, 0.2392578, -7.3170733, -9.5731707, 4.3292685, -0.0694896
-0.9770508, 0.0546875, 0.2470703, -7.3170733, -9.4512196, 4.5731707, -0.0688182
-0.9643555, 0.0629883, 0.2470703, -7.2560978, -9.5121956, 4.9390244, -0.0694896
-0.9604492, 0.0854492, 0.2490234, -7.5, -9.6341467, 4.8780489, -0.0674754
-0.9506836, 0.0966797, 0.2480469, -7.7439027, -10.2439022, 4.7560978, -0.0540475
-0.9448242, 0.1152344, 0.2519531, -7.7439027, -10.6097565, 4.390244, -0.0433051
-0.9399414, 0.125, 0.2490234, -8.1097565, -10.6097565, 3.3536587, -0.0238346
-0.9375, 0.1259766, 0.25, -8.4146347, -10.5487804, 3.0487804, -0.0003357
-0.9506836, 0.1088867, 0.2514648, -9.2682924, -9.6951218, 1.8292683, 0.0124208
-0.9575195, 0.1020508, 0.2480469, -9.5731707, -9.7560978, 0.8536586, 0.0231632
-0.9672852, 0.0771484, 0.2402344, -9.8170738, -9.5731707, 0.4878049, 0.0332341
-0.9716797, 0.0634766, 0.2348633, -9.4512196, -9.3902445, 0.3658537, 0.0480049
-0.980957, 0.0390625, 0.2265625, -9.2682924, -9.3292685, 0.9756098, 0.0624399
-0.9770508, 0.0336914, 0.2241211, -8.4756098, -9.3902445, 1.6463414, 0.0728466
-0.984375, 0.0239258, 0.222168, -8.1097565, -9.4512196, 1.7073171, 0.0721752
-0.9853516, 0.0195312, 0.2250977, -7.2560978, -10.2439022, 2.3170731, 0.0721752
-0.9848633, 0.0161133, 0.21875, -6.7682929, -10.5487804, 2.4390244, 0.0741894
-0.9853516, 0.0209961, 0.1992188, -6.280488, -11.1585369, 3.2317073, 0.0661326
-0.9853516, 0.0273438, 0.1953125, -5.7926831, -11.4024391, 3.6585367, 0.0500191
-0.9853516, 0.0458984, 0.1835938, -5.7926831, -12.4390249, 4.0243902, 0.0392767
-0.9833984, 0.0493164, 0.1879883, -6.280488, -13.5365858, 4.4512196, 0.0399481
-0.9780273, 0.0683594, 0.2089844, -6.280488, -14.0853662, 4.3292685, 0.0261845
-0.9829102, 0.0786133, 0.21875, -5.9146342, -13.9024391, 4.2682929, 0.0271916
-0.9873047, 0.0898438, 0.2241211, -5.8536587, -13.9634151, 4.0853658, 0.0130922
-0.9848633, 0.0917969, 0.2265625, -5.8536587, -13.9024391, 3.6585367, 0.0006714
-0.9794922, 0.0922852, 0.2329102, -5.7926831, -14.1463413, 3.3536587, -0.021149
-0.9794922, 0.0908203, 0.2314453, -6.280488, -14.2073174, 3.0487804, -0.0332341
-0.9785156, 0.0844727, 0.2211914, -6.3414636, -14.0853662, 3.0487804, -0.0339055
-0.9804688, 0.0883789, 0.2114258, -7.3170733, -13.9634151, 2.8658538, -0.0439765
-0.9819336, 0.0893555, 0.2055664, -7.6829271, -14.1463413, 2.9268293, -0.0540475
-0.9926758, 0.0834961, 0.203125, -7.9878049, -14.3292685, 2.804878, -0.056733
-0.9946289, 0.081543, 0.2075195, -7.8658538, -14.8170738, 2.5, -0.0580758
-0.9975586, 0.0737305, 0.2177734, -7.5609756, -14.9390249, 2.0121951, -0.0715038
-0.9990234, 0.0673828, 0.2211914, -6.6463418, -14.8780489, 1.7073171, -0.0694896
-0.9995117, 0.0458984, 0.2431641, -6.2195125, -14.5121956, 1.7682927, -0.0741894
-0.996582, 0.0415039, 0.2568359, -5.5487804, -14.2073174, 2.1341465, -0.0782177
-0.9838867, 0.0356445, 0.2709961, -4.7560978, -13.7195129, 2.4390244, -0.0809033
-0.9741211, 0.0307617, 0.2758789, -3.2926829, -12.7439032, 3.3536587, -0.0956741
-0.9599609, 0.0327148, 0.2827148, -2.3780489, -12.0731707, 3.7804878, -0.1131304
-0.9404297, 0.043457, 0.2797852, -1.3414634, -11.4024391, 4.3292685, -0.1171588
-0.9355469, 0.0507812, 0.2758789, -0.8536586, -10.7926836, 4.3292685, -0.1144732
-0.9321289, 0.0600586, 0.2758789, 0, -10.5487804, 3.7804878, -0.1252155
-0.9370117, 0.0600586, 0.2685547, 0.9146342, -11.0365858, 2.804878, -0.1171588
-0.9462891, 0.0688477, 0.2504883, 1.2804878, -10.5487804, 2.3780489, -0.1198444
-0.9580078, 0.0678711, 0.2421875, 0.6707317, -10.6097565, 2.3780489, -0.1265583
-0.9790039, 0.0727539, 0.2304688, 0.1219512, -10.7926836, 2.5, -0.1312581
-0.9794922, 0.0742188, 0.2207031, -0.9146342, -11.0365858, 2.9878049, -0.1366293
-0.9936523, 0.0776367, 0.2011719, -1.2804878, -10.9756098, 3.1707318, -0.1312581
-0.9975586, 0.0766602, 0.1918945, -2.9268293, -10, 4.0243902, -0.1218585
-1.0078125, 0.0722656, 0.1821289, -3.7804878, -10.2439022, 3.9024391, -0.0990311
-1.0131836, 0.0654297, 0.1904297, -4.6341462, -10.4268293, 4.390244, -0.0835889
-1.0117188, 0.0615234, 0.1977539, -5.1219511, -10.6097565, 4.6341462, -0.0721752
-1.0078125, 0.0507812, 0.2158203, -4.8780489, -10.6707315, 4.6951222, -0.0624399
-1.0019531, 0.0390625, 0.2231445, -5.1829271, -10.1219511, 5, -0.0449836
-0.9926758, 0.027832, 0.2329102, -5, -10.060976, 4.9390244, -0.0540475
-0.9863281, 0.0288086, 0.2368164, -4.1463413, -9.9390249, 5.9146342, -0.0500191
-0.9716797, 0.0332031, 0.2338867, -3.6585367, -10.1219511, 6.2195125, -0.0459907
-0.9658203, 0.0375977, 0.2314453, -3.1097562, -10.6097565, 7.0121951, -0.0493477
-0.956543, 0.0625, 0.2338867, -2.6219513, -11.0365858, 7.4390244, -0.0540475
-0.949707, 0.0688477, 0.2373047, -2.0731707, -11.7682934, 7.5, -0.0540475
-0.9428711, 0.090332, 0.2373047, -1.7682927, -11.8902445, 7.0731707, -0.063447
-0.9521484, 0.1015625, 0.234375, -1.402439, -11.9512196, 6.4024391, -0.070161
-0.956543, 0.1040039, 0.2358398, -1.1585366, -11.6463413, 5.1219511, -0.0691539
-0.9638672, 0.0917969, 0.2348633, -0.9146342, -11.4024391, 4.2073174, -0.0647898
-0.9697266, 0.0830078, 0.2358398, -0.6707317, -11.1585369, 3.2317073, -0.0496834
-0.9804688, 0.0605469, 0.25, -0.6707317, -10.7317076, 3.1097562, -0.0372625
-0.9882812, 0.050293, 0.2543945, 0, -10.3048782, 3.4756098, -0.024506
-0.9873047, 0.0424805, 0.2451172, 0.1219512, -10.3048782, 4.0243902, -0.0030213
-0.9873047, 0.0380859, 0.2358398, 0.3048781, -9.5121956, 4.9390244, 0.0224918
-0.9863281, 0.0493164, 0.2216797, 0.4878049, -9.7560978, 5.5487804, 0.0553902
-0.9848633, 0.0625, 0.2158203, 0.4268293, -10.4878054, 6.3414636, 0.0597543
-0.9829102, 0.0859375, 0.2050781, 0.6707317, -10.7317076, 6.5853658, 0.0641184
-0.9750977, 0.0947266, 0.1982422, 1.3414634, -11.280488, 6.5243902, 0.0842603
-0.9760742, 0.0966797, 0.1928711, 0.8536586, -11.280488, 5.670732, 0.0936599
-0.9755859, 0.0947266, 0.1962891, 0.1829268, -11.1585369, 5.1829271, 0.0983597
-0.9770508, 0.0893555, 0.203125, -0.8536586, -11.219512, 4.2073174, 0.0963455
-0.9824219, 0.074707, 0.2260742, -1.0365853, -11.1585369, 4.2073174, 0.0802319
-0.9819336, 0.0673828, 0.234375, -0.7317073, -11.5853662, 5.4878049, 0.0647898
-0.9726562, 0.0732422, 0.2416992, -0.1829268, -11.8902445, 6.2195125, 0.0641184
-0.9667969, 0.081543, 0.2416992, 0.1219512, -12.0121956, 7.3780489, 0.0453193
-0.949707, 0.1005859, 0.2436523, -0.3658537, -11.5853662, 7.6219516, 0.0359197
-0.9443359, 0.1069336, 0.2470703, -1.3414634, -11.9512196, 7.6219516, 0.0305486
-0.9404297, 0.1269531, 0.2553711, -1.8292683, -12.2560978, 7.1951222, 0.010071
-0.9360352, 0.1391602, 0.25, -2.0731707, -11.9512196, 6.6463418, -0.0124208
-0.9335938, 0.1464844, 0.2485352, -2.9268293, -11.5243902, 5.7926831, -0.0124208
-0.940918, 0.1411133, 0.2353516, -3.5365853, -11.4024391, 5.1829271, -0.0083925
-0.9414062, 0.1323242, 0.2363281, -4.2073174, -10.8536587, 4.2073174, -0.0130922
-0.9550781, 0.1132812, 0.246582, -4.0243902, -10.7926836, 3.5975611, -0.010071
-0.9628906, 0.1025391, 0.2485352, -4.0853658, -10.5487804, 2.8658538, -0.0003357
-0.9707031, 0.0922852, 0.2426758, -4.0243902, -10.6097565, 2.3780489, -0.0030213
-0.9770508, 0.0869141, 0.2456055, -4.0853658, -10.2439022, 2.804878, 0.0063783
-0.984375, 0.0849609, 0.2387695, -3.8414636, -10, 3.3536587, 0.0218204
-0.9838867, 0.0854492, 0.2319336, -3.2317073, -9.3292685, 4.3292685, 0.03122
-0.9726562, 0.0888672, 0.2177734, -3.0487804, -9.3902445, 4.6951222, 0.027863
-0.9619141, 0.0844727, 0.1943359, -3.2317073, -8.780488, 4.7560978, 0.0292058
-0.9614258, 0.0825195, 0.1831055, -3.3536587, -8.0487804, 4.2073174, 0.0265202
-0.9555664, 0.0664062, 0.1694336, -3.4756098, -8.1707315, 4.0243902, -0.0057069
-0.9575195, 0.0639648, 0.1689453, -3.9634147, -9.0853662, 3.4146342, -0.0130922
-0.9658203, 0.0454102, 0.1723633, -3.9024391, -9.7560978, 3.1097562, -0.003357
-0.9648438, 0.0449219, 0.1811523, -3.1097562, -11.0365858, 3.4756098, 0.003357
-0.96875, 0.0473633, 0.1967773, -2.5609756, -11.280488, 3.7804878, 0.0137636
-0.972168, 0.0488281, 0.2060547, -1.3414634, -12.3780489, 4.5121951, 0.0224918
-0.9692383, 0.0712891, 0.2280273, -1.1585366, -12.560976, 4.8780489, 0.0285344
-0.9619141, 0.1074219, 0.2363281, -0.8536586, -13.3536587, 5.4878049, 0.0318914
-0.956543, 0.1254883, 0.2387695, -1.1585366, -12.9878054, 5.670732, 0.0285344
-0.9521484, 0.1538086, 0.2470703, -2.0121951, -12.1951218, 5.7317076, 0.0345769
-0.9482422, 0.1630859, 0.246582, -2.4390244, -11.5853662, 5.5487804, 0.0261845
-0.9404297, 0.1782227, 0.2426758, -3.2926829, -11.4634151, 5.2439027, 0.0332341
-0.9282227, 0.175293, 0.2387695, -4.8780489, -10.7317076, 4.2073174, 0.0265202
-0.9296875, 0.1611328, 0.2382812, -5.4268293, -10.3658543, 3.4756098, 0.0151064
-0.9272461, 0.15625, 0.2348633, -7.1341467, -9.8170738, 1.9512196, 0.0063783
-0.9345703, 0.1313477, 0.2333984, -7.6829271, -9.6951218, 1.7073171, -0.0016785
-0.9379883, 0.1186523, 0.2368164, -8.9024391, -9.2073174, 1.2195122, -0.0285344
-0.9516602, 0.0922852, 0.2475586, -8.9634151, -8.9634151, 1.2195122, -0.0439765
-0.9594727, 0.0737305, 0.2514648, -8.6585369, -8.780488, 1.0365853, -0.024506
-0.9643555, 0.0644531, 0.2514648, -8.4756098, -8.2317076, 1.3414634, -0.0184634
-0.9711914, 0.0522461, 0.2485352, -8.2317076, -7.6829271, 1.8902439, -0.0231632
-0.9702148, 0.0498047, 0.25, -7.6829271, -7.6829271, 2.804878, -0.0298772
-0.9682617, 0.0581055, 0.2597656, -7.1951222, -7.6219516, 3.0487804, -0.0359197
-0.9702148, 0.0620117, 0.262207, -6.4024391, -6.9512196, 4.0243902, -0.0493477
-0.9633789, 0.074707, 0.2475586, -5.9756098, -6.7682929, 4.0853658, -0.0527047
-0.9619141, 0.0805664, 0.2353516, -5.4878049, -5.9756098, 4.4512196, -0.0621042
-0.9589844, 0.0942383, 0.2182617, -6.1585369, -5.9756098, 4.6341462, -0.0694896
-0.9599609, 0.1000977, 0.2119141, -7.2560978, -5.5487804, 4.2073174, -0.0916457
-0.9682617, 0.1044922, 0.2089844, -7.5609756, -4.6951222, 4.2073174, -0.105745
-0.972168, 0.1030273, 0.2104492, -7.6219516, -4.5731707, 3.6585367, -0.119173
-0.9736328, 0.1020508, 0.2104492, -7.4390244, -4.8780489, 3.5365853, -0.1339437
-0.9780273, 0.1005859, 0.2070312, -7.0121951, -5.4878049, 3.3536587, -0.1373007
-0.9785156, 0.097168, 0.2045898, -6.7073174, -5.7926831, 3.1707318, -0.1389792
-0.9770508, 0.09375, 0.199707, -6.4634147, -6.0365853, 3.1707318, -0.1440146
-0.9794922, 0.1005859, 0.2001953, -6.5853658, -6.4634147, 3.7804878, -0.1487144
-0.9804688, 0.1123047, 0.2011719, -6.5853658, -6.890244, 4.0243902, -0.1409934
-0.9824219, 0.1186523, 0.1982422, -7.0121951, -7.9268293, 3.7804878, -0.1319295
-0.9765625, 0.1328125, 0.1948242, -7.1951222, -8.1097565, 4.0243902, -0.1319295
-0.9755859, 0.1328125, 0.1889648, -7.8658538, -8.4756098, 3.9024391, -0.1164874
-0.9741211, 0.1347656, 0.1821289, -8.1707315, -8.719512, 3.9024391, -0.1084306
-0.9750977, 0.1293945, 0.1835938, -8.780488, -9.0853662, 3.1097562, -0.0936599
-0.9765625, 0.1240234, 0.1889648, -9.2682924, -9.3292685, 2.8658538, -0.0795605
-0.9785156, 0.1005859, 0.2158203, -9.6341467, -9.3292685, 2.3780489, -0.0654612
-0.9829102, 0.0913086, 0.222168, -9.4512196, -9.2073174, 2.3170731, -0.0560616
-0.9848633, 0.0791016, 0.2431641, -9.2682924, -8.780488, 2.5, -0.0459907
-0.987793, 0.0737305, 0.2421875, -8.2926826, -8.2317076, 3.4756098, -0.0476692
-0.9750977, 0.0688477, 0.2397461, -7.9878049, -7.8658538, 4.1463413, -0.0439765
-0.9692383, 0.0664062, 0.2353516, -7.5609756, -7.3780489, 5.5487804, -0.024506
-0.9580078, 0.0683594, 0.2363281, -7.6829271, -7.5, 5.609756, -0.0198062
-0.9516602, 0.0732422, 0.2353516, -7.0121951, -7.8048782, 5.3658538, -0.0157778
-0.9492188, 0.0805664, 0.2329102, -6.5243902, -7.7439027, 5.4268293, -0.0258488
-0.9545898, 0.0883789, 0.237793, -6.5243902, -7.8048782, 5.3048782, -0.0369268
-0.9599609, 0.0913086, 0.2387695, -5.8536587, -7.8658538, 5.2439027, -0.0433051
-0.9731445, 0.0981445, 0.2441406, -5.8536587, -8.0487804, 5, -0.0332341
-0.9726562, 0.1074219, 0.2363281, -5.4268293, -7.6219516, 5.3658538, -0.0365911
-0.9794922, 0.109375, 0.2275391, -6.0365853, -7.0121951, 5.4268293, -0.0379339
-0.9838867, 0.112793, 0.2236328, -6.4634147, -5.7317076, 5.4268293, -0.0409552
-0.987793, 0.1098633, 0.2148438, -6.4024391, -5.3658538, 5.1219511, -0.0543832
-0.9897461, 0.1123047, 0.2099609, -6.9512196, -5.5487804, 5.2439027, -0.0540475
-0.9912109, 0.1010742, 0.2070312, -7.0121951, -5.5487804, 5.0609756, -0.0755322
-0.9897461, 0.0957031, 0.2099609, -7.0731707, -5.3658538, 4.7560978, -0.076875
-1.0009766, 0.0854492, 0.2202148, -7.1951222, -5.5487804, 4.5731707, -0.0869459
-0.9995117, 0.0834961, 0.2236328, -6.9512196, -5.4268293, 4.6951222, -0.1151446
-1.0004883, 0.0820312, 0.2260742, -6.7073174, -5.609756, 5.2439027, -0.1399863
-0.9980469, 0.0849609, 0.2231445, -6.3414636, -5.609756, 5.5487804, -0.1493858
-0.9951172, 0.0893555, 0.2197266, -6.4634147, -5.7926831, 6.0365853, -0.1587854
-0.9887695, 0.0917969, 0.2172852, -6.4634147, -5.7317076, 5.9756098, -0.1806058
-0.9887695, 0.0957031, 0.2094727, -6.890244, -5.4878049, 5.5487804, -0.1990692
-0.984375, 0.1025391, 0.203125, -6.7682929, -5.3658538, 5.670732, -0.2205539
-0.9858398, 0.1020508, 0.2021484, -7.1951222, -6.2195125, 5.7317076, -0.2312963
-0.9882812, 0.105957, 0.1982422, -7.4390244, -6.5243902, 5.7317076, -0.2353246
-0.9892578, 0.1044922, 0.203125, -7.7439027, -6.7682929, 5.1219511, -0.239353
-0.9873047, 0.1005859, 0.2124023, -7.7439027, -6.890244, 5.1829271, -0.2286107
-0.9907227, 0.0966797, 0.2231445, -8.2926826, -6.5853658, 5.3048782, -0.1983978
-0.9863281, 0.0859375, 0.2290039, -8.2926826, -6.4634147, 5.3658538, -0.1742275
-0.9804688, 0.0805664, 0.2353516, -8.719512, -6.0365853, 5.4268293, -0.148043
-0.9790039, 0.0771484, 0.2368164, -8.9024391, -5.609756, 5.609756, -0.1080949
-0.9692383, 0.0751953, 0.2402344, -9.0853662, -5.609756, 5.670732, -0.0869459
-0.9711914, 0.0732422, 0.2402344, -8.9634151, -5.0609756, 6.1585369, -0.0637827
-0.9736328, 0.0737305, 0.2421875, -8.9024391, -5.1829271, 6.1585369, -0.027863
-0.972168, 0.074707, 0.246582, -8.4756098, -5.1829271, 6.4634147, -0.0124208
-0.9736328, 0.0742188, 0.2539062, -8.3536587, -5.3048782, 6.280488, 0.0010071
-0.9765625, 0.0698242, 0.2548828, -8.1707315, -4.2073174, 6.0975609, 0.0375982
-0.9765625, 0.0615234, 0.2553711, -8.0487804, -4.0243902, 6.1585369, 0.0560616
-0.9770508, 0.0507812, 0.253418, -7.6219516, -3.2317073, 6.2195125, 0.0721752
-0.9755859, 0.0488281, 0.2495117, -7.3780489, -2.8658538, 6.2195125, 0.0976883
-0.9760742, 0.0517578, 0.2514648, -6.6463418, -2.5, 6.7073174, 0.1205158
-0.972168, 0.0517578, 0.2539062, -6.1585369, -2.0731707, 7.3780489, 0.1252155
-0.9692383, 0.050293, 0.2475586, -5.7926831, -1.6463414, 7.3780489, 0.1144732
-0.9707031, 0.0532227, 0.2392578, -5.3048782, -1.097561, 7.8658538, 0.119173
-0.9726562, 0.0615234, 0.2143555, -4.8780489, -0.7317073, 8.1097565, 0.0970169
-0.9750977, 0.065918, 0.2070312, -5.4878049, -1.5853659, 8.4756098, 0.0835889
-0.9755859, 0.0756836, 0.2055664, -5.5487804, -1.7073171, 8.5365858, 0.0815747
-0.9746094, 0.0844727, 0.2070312, -5.670732, -2.0731707, 8.2926826, 0.0802319
-0.9765625, 0.0859375, 0.2182617, -5.5487804, -2.2560976, 8.4146347, 0.0829175
-0.9824219, 0.0898438, 0.2270508, -5.4878049, -2.4390244, 8.1097565, 0.0681468
-0.9790039, 0.0878906, 0.2255859, -5.4878049, -2.4390244, 7.6219516, 0.0520333
-0.9760742, 0.0883789, 0.2280273, -5.670732, -2.3780489, 7.7439027, 0.0365911
-0.9736328, 0.0825195, 0.2338867, -5.7317076, -2.0121951, 7.7439027, 0.0466621
-0.9711914, 0.0825195, 0.2436523, -5.8536587, -1.5853659, 7.3780489, 0.0500191
-0.9648438, 0.0830078, 0.2504883, -6.1585369, -1.2195122, 7.7439027, 0.0352483
-0.9614258, 0.0786133, 0.2563477, -6.0975609, -0.9146342, 7.9268293, 0.0258488
-0.9555664, 0.0766602, 0.253418, -6.3414636, -0.7317073, 8.2317076, 0.0130922
-0.9448242, 0.0742188, 0.2539062, -6.4024391, -0.1829268, 8.2317076, -0.0124208
-0.9418945, 0.0756836, 0.2592773, -7.0121951, 0.2439024, 8.0487804, -0.0325628
-0.9379883, 0.0751953, 0.2768555, -7.6219516, 0.1829268, 7.8658538, -0.0305486
-0.9345703, 0.0786133, 0.3007812, -7.9878049, 0.6707317, 7.8048782, -0.0406195
-0.9311523, 0.0839844, 0.3110352, -7.8048782, 2.0121951, 8.3536587, -0.0473335
-0.9208984, 0.0913086, 0.3232422, -7.3170733, 2.5609756, 8.2926826, -0.0493477
-0.9179688, 0.0947266, 0.3232422, -7.3780489, 4.2682929, 8.1707315, -0.0574044
-0.9072266, 0.0947266, 0.3266602, -7.3780489, 5.0609756, 7.6219516, -0.0661326
-0.9057617, 0.09375, 0.3276367, -8.1707315, 6.5243902, 6.6463418, -0.0607614
-0.9086914, 0.0917969, 0.3334961, -8.3536587, 7.2560978, 6.4024391, -0.0621042
-0.9086914, 0.0986328, 0.3359375, -8.9024391, 8.4146347, 6.4024391, -0.070161
-0.9116211, 0.1044922, 0.331543, -9.3902445, 9.4512196, 6.4024391, -0.0862745
-0.9135742, 0.1054688, 0.3271484, -9.4512196, 10.9146347, 6.7073174, -0.1050736
-0.9155273, 0.1083984, 0.3154297, -9.7560978, 11.8902445, 6.5243902, -0.1292439
-0.9155273, 0.1054688, 0.315918, -10.1829271, 13.2317076, 6.1585369, -0.1534142
-0.9140625, 0.1064453, 0.3188477, -10.4268293, 14.2682934, 5.670732, -0.1789273
-0.9223633, 0.1015625, 0.3256836, -10.3048782, 15, 5.1829271, -0.1896696
-0.9233398, 0.0942383, 0.3261719, -10.1829271, 16.7682934, 4.5731707, -0.1910124
-0.9145508, 0.0810547, 0.3256836, -9.5731707, 17.9268303, 4.390244, -0.175906
-0.9145508, 0.0717773, 0.3100586, -7.4390244, 21.0365868, 4.0243902, -0.1376364
-0.9077148, 0.0512695, 0.2602539, -5.9146342, 22.7439022, 3.9634147, -0.0976883
-0.9038086, 0.0332031, 0.2246094, -3.8414636, 25.3048782, 3.9634147, -0.0594186
-0.9038086, 0.0053711, 0.1723633, -3.4756098, 25.8536587, 3.7804878, -0.024506
-0.9067383, -0.0112305, 0.1572266, -4.0853658, 26.0975609, 3.0487804, -0.0016785
-0.9194336, -0.050293, 0.1552734, -4.4512196, 25.7926826, 2.5609756, 0.0184634
-0.9331055, -0.0839844, 0.1762695, -3.4756098, 24.9390259, 2.1341465, 0.0171206
-0.9384766, -0.0888672, 0.1816406, -0.1219512, 23.780489, 3.1707318, 0.010071
-0.9458008, -0.0776367, 0.1748047, 1.7682927, 23.7195129, 3.9634147, 0.0003357
-0.9492188, -0.0625, 0.1621094, 4.4512196, 23.2317085, 6.0365853, -0.0137636
-0.9501953, -0.0112305, 0.1274414, 5.1219511, 23.1097565, 7.3780489, -0.0379339
-0.9477539, 0.0161133, 0.1157227, 4.7560978, 21.8902435, 8.841464, -0.0527047
-0.9394531, 0.0800781, 0.109375, 4.4512196, 21.3414631, 9.0853662, -0.0557259
-0.9345703, 0.1064453, 0.1123047, 3.2926829, 19.939024, 8.4756098, -0.063447
-0.9262695, 0.1542969, 0.1274414, 2.0121951, 19.5731716, 7.5609756, -0.0909743
-0.9238281, 0.1645508, 0.1362305, -0.2439024, 19.7560978, 5.3658538, -0.1205158
-0.9248047, 0.1782227, 0.1499023, -1.2804878, 19.8780499, 4.2682929, -0.1326009
-0.9155273, 0.1748047, 0.1655273, -3.5365853, 21.2195129, 2.6219513, -0.1467002
-0.9121094, 0.1694336, 0.1757812, -6.4024391, 22.8658543, 1.402439, -0.1238727
-0.90625, 0.1313477, 0.1933594, -7.6219516, 23.2926826, 0.7317073, -0.1013809
-0.9013672, 0.1054688, 0.2094727, -10.1829271, 25.1829281, -0.7926829, -0.0909743
-0.9013672, 0.0585938, 0.2456055, -11.0975609, 25.8536587, -1.2195122, -0.0728466
-0.9052734, 0.0361328, 0.2646484, -11.6463413, 28.0487804, -1.5853659, -0.0594186
-0.9091797, 0.0024414, 0.2871094, -11.4634151, 29.2682934, -0.8536586, -0.0527047
-0.9033203, -0.0087891, 0.2924805, -10.5487804, 31.280489, 0.9756098, -0.0352483
-0.8959961, -0.0302734, 0.3076172, -9.8780489, 32.3170738, 2.0731707, 0.0060426
-0.9003906, -0.0395508, 0.3120117, -8.5975609, 34.0243912, 3.6585367, 0.0439765
-0.9008789, -0.0307617, 0.3134766, -7.5609756, 35.1829262, 4.0243902, 0.0856031
-0.9135742, -0.0068359, 0.3120117, -5.9756098, 36.8902435, 4.7560978, 0.1285725
-0.9145508, 0.0078125, 0.309082, -4.2073174, 38.6585388, 6.4024391, 0.1473716
-0.9204102, 0.0351562, 0.2929688, -3.9634147, 39.6341476, 7.0121951, 0.1701991
-0.9243164, 0.046875, 0.2768555, -2.804878, 41.9512215, 7.5609756, 0.1705348
-0.9360352, 0.0756836, 0.2504883, -2.6219513, 43.2926826, 7.6219516, 0.1420005
-0.9423828, 0.0898438, 0.2329102, -3.2926829, 45.1829262, 7.6829271, 0.1077592
-0.9560547, 0.1079102, 0.2104492, -4.3292685, 45.6707344, 7.5609756, 0.0741894
-0.9575195, 0.1171875, 0.2036133, -7.1951222, 46.9512215, 7.5, 0.0372625
-0.972168, 0.1210938, 0.1948242, -8.719512, 47.9268303, 7.5, -0.0036927
-0.972168, 0.1074219, 0.1743164, -11.280488, 49.7560997, 7.9878049, -0.0466621
-0.96875, 0.0908203, 0.1547852, -12.6219511, 51.2195129, 8.2926826, -0.0856031
-0.9658203, 0.0551758, 0.128418, -14.7560978, 52.9878044, 7.8658538, -0.1279011
-0.9682617, 0.0341797, 0.1225586, -16.0975609, 53.9024391, 7.0731707, -0.1510643
-0.9702148, -0.0166016, 0.1171875, -16.4634151, 53.7195129, 6.5853658, -0.1389792
-0.9765625, -0.034668, 0.1254883, -15.6097565, 52.9268303, 5.7926831, -0.1373007
-0.9916992, -0.0673828, 0.1391602, -14.5731707, 52.6829262, 5.7317076, -0.1292439
-1.0014648, -0.0756836, 0.1425781, -11.0975609, 51.7073174, 6.0975609, -0.1077592
-1.0073242, -0.0952148, 0.159668, -8.780488, 51.2195129, 6.1585369, -0.0755322
-0.9951172, -0.1191406, 0.1694336, -4.6951222, 50.6707344, 1.6463414, -0.0513619
-1.0141602, -0.1972656, 0.2509766, -2.5609756, 50.4268303, -4.6951222, -0.0137636
-1.1884766, -0.1586914, 0.3017578, 9.0243902, 49.6951218, -11.7682934, 0.0130922
-1.2641602, -0.0751953, 0.2509766, 17.3170738, 49.0853653, -6.3414636, 0.0318914
-1.2319336, 0.1391602, 0.1171875, 28.9634151, 48.6585388, 19.1463413, 0.0345769
-1.1367188, 0.2446289, 0.050293, 27.7439022, 48.9634171, 36.9512215, 0.03122
-0.9296875, 0.3710938, -0.0048828, 22.9878063, 47.4390259, 36.2804871, 0.027863
-0.8549805, 0.3833008, 0.0063477, 11.219512, 42.9268303, 18.5975609, 0.0238346
-0.8115234, 0.3251953, 0.0405273, 7.4390244, 43.1097565, 6.280488, 0.021149
-0.8383789, 0.2763672, 0.0424805, 7.1951222, 47.3780518, -10.3048782, 0.0130922
-0.9384766, 0.2094727, -0.0078125, 8.719512, 49.5731735, -11.5853662, 0.0157778
-0.9726562, 0.1923828, -0.0444336, 8.9634151, 50.6707344, -0.9146342, 0.0063783
-0.9658203, 0.1679688, -0.0810547, 6.9512196, 50.7926826, 6.4024391, 0.0030213
-0.9204102, 0.1289062, -0.0419922, 0.9146342, 51.5243912, 14.0853662, -0.0057069
-0.9116211, 0.1035156, -0.0039062, -0.8536586, 51.8292694, 13.2317076, 0.0003357
-0.9501953, 0.0649414, 0.0693359, 1.1585366, 50.9756126, 5.1829271, -0.0057069
-0.9804688, 0.0512695, 0.0844727, 7.9878049, 47.7439041, -1.5853659, -0.0198062
-1.0239258, 0.0517578, 0.0703125, 11.8292685, 46.2195129, -2.3780489, -0.0154421
-1.0356445, 0.0698242, 0.0415039, 16.4024391, 45.6707344, 0.4878049, -0.0157778
-1.0498047, 0.1289062, -0.0200195, 16.4024391, 46.1585388, 2.6219513, -0.0271916
-1.0493164, 0.1630859, -0.0410156, 13.3536587, 47.3170738, 6.5243902, -0.0527047
-1.046875, 0.2084961, -0.0488281, 11.219512, 47.5, 7.1951222, -0.0762036
-1.0483398, 0.2231445, -0.0375977, 8.9634151, 47.0731735, 6.5853658, -0.102388
-1.0576172, 0.2231445, -0.0297852, 8.2926826, 46.2804871, 5.4268293, -0.1104448
-1.0732422, 0.2075195, -0.0322266, 7.3170733, 45.3658562, 4.2073174, -0.1037308
-1.0722656, 0.1884766, -0.0297852, 6.1585369, 45.2439041, 3.4146342, -0.0990311
-1.0698242, 0.1411133, -0.0039062, 4.2073174, 44.9390259, 2.5, -0.0862745
-1.0737305, 0.1103516, 0.012207, 3.6585367, 44.1463432, 1.7682927, -0.0762036
-1.0878906, 0.0634766, 0.0375977, 4.3292685, 43.841465, 1.9512196, -0.0815747
-1.090332, 0.0444336, 0.0512695, 6.280488, 42.8658562, 3.7804878, -0.1252155
-1.0786133, 0.0292969, 0.074707, 7.4390244, 42.6219521, 5.1829271, -0.1520714
-1.0698242, 0.0239258, 0.0883789, 10.5487804, 42.0731735, 7.1341467, -0.1661707
-1.0473633, 0.0219727, 0.0991211, 12.0121956, 41.9512215, 7.6829271, -0.1940337
-1.0405273, 0.0317383, 0.105957, 15.3048782, 41.2195129, 7.3780489, -0.2185397
-1.0380859, 0.0527344, 0.1166992, 17.2560978, 40.7926826, 7.6829271, -0.252781
-1.0224609, 0.0844727, 0.1206055, 21.4024391, 39.4512215, 9.2073174, -0.288365
-1.0058594, 0.09375, 0.1152344, 23.2926826, 39.1463432, 9.8170738, -0.3091783
-0.9912109, 0.1025391, 0.105957, 26.0975609, 39.8170738, 9.2073174, -0.3118639
-0.9873047, 0.1103516, 0.1064453, 28.5975609, 39.5121956, 7.2560978, -0.2930648
-0.987793, 0.1196289, 0.1118164, 29.8780499, 39.3902435, 6.5243902, -0.252781
-0.9907227, 0.1279297, 0.1162109, 32.8658562, 38.4146347, 5.0609756, -0.1910124
-1.012207, 0.159668, 0.1157227, 34.4512215, 38.5975609, 5.2439027, -0.1040665
-1.0136719, 0.1894531, 0.1035156, 37.5609779, 37.8048782, 6.4634147, -0.0198062
-1.0200195, 0.2480469, 0.0634766, 38.0487823, 37.8658562, 6.7073174, 0.0493477
-1.0224609, 0.28125, 0.0356445, 37.4390259, 36.6463432, 6.280488, 0.1080949
-1.0380859, 0.3339844, -0.0083008, 36.2195129, 35.6707344, 5.3658538, 0.1376364
-1.0429688, 0.3803711, -0.027832, 31.5853672, 33.5975609, 3.6585367, 0.1524071
-1.0507812, 0.3935547, -0.0307617, 28.7195129, 32.8658562, 3.1097562, 0.1420005
-1.0507812, 0.3813477, -0.034668, 23.2926826, 32.6219521, 3.2317073, 0.1285725
-1.0429688, 0.3637695, -0.0371094, 17.7439022, 32.8658562, 3.0487804, 0.1070878
-1.0244141, 0.2954102, -0.0283203, 15.060976, 33.1707306, 2.3780489, 0.0876173
-1.0219727, 0.2543945, -0.03125, 11.219512, 33.2317085, 1.2804878, 0.0641184
-1.015625, 0.1591797, -0.0219727, 10.7317076, 32.5609779, 0.9756098, 0.0459907
-1.0126953, 0.105957, -0.0078125, 9.0243902, 31.5243912, -0.0609756, 0.0399481
-1.0224609, 0.0341797, 0.0327148, 8.719512, 31.0975609, -0.7317073, 0.0318914
-1.0332031, 0.015625, 0.0463867, 10.7317076, 30, -0.4268293, 0.021149
-1.0439453, -0.0078125, 0.0498047, 12.9878054, 29.8780499, 0.3048781, 0.0157778
-1.0444336, -0.003418, 0.0473633, 17.439024, 29.7560978, 3.2926829, 0.0010071
-1.0395508, 0.0092773, 0.0541992, 19.0243912, 29.5121956, 4.0853658, -0.0164492
-1.043457, 0.0234375, 0.0493164, 20.9756107, 30.6707325, 3.5975611, -0.0097353
-1.0527344, 0.0185547, 0.0302734, 25.4268303, 32.1951218, 2.3780489, -0.0130922
-1.0717773, 0.0268555, -0.0166016, 27.560976, 31.7682934, 3.2926829, -0.024506
-1.0771484, 0.0424805, -0.0283203, 30.9756107, 31.0975609, 7.1951222, -0.0365911
-1.0610352, 0.0834961, -0.019043, 31.8902454, 30.4878063, 9.3902445, -0.0493477
-1.0454102, 0.1040039, -0.0043945, 32.6219521, 30.4878063, 10.9146347, -0.073518
-1.0332031, 0.1264648, 0.0175781, 33.0487823, 30.9756107, 10, -0.0943313
-1.0405273, 0.1347656, 0.0180664, 33.9634171, 31.4634151, 8.4756098, -0.1003738
-1.0556641, 0.1484375, 0.0136719, 34.2682953, 31.6463413, 8.5975609, -0.1070878
-1.0419922, 0.1455078, -0.0029297, 34.9390259, 31.9512196, 10.1219511, -0.109102
-1.03125, 0.137207, -0.0068359, 33.9024391, 33.5365868, 10.8536587, -0.1211872
-1.0205078, 0.1098633, 0.0039062, 33.4756088, 33.9634171, 10.4878054, -0.1225299
-1.0234375, 0.1035156, 0.0170898, 33.5975609, 34.6341476, 9.4512196, -0.1211872
-1.0390625, 0.1054688, 0.034668, 34.0853653, 34.2073174, 9.5731707, -0.1201801
-1.0439453, 0.1210938, 0.0341797, 34.7560997, 33.7804871, 10.1219511, -0.1265583
-1.0444336, 0.1547852, 0.0214844, 35.1219521, 33.841465, 10.5487804, -0.1352865
-1.0410156, 0.1708984, 0.0170898, 33.9634171, 34.3902435, 11.280488, -0.130251
-1.0244141, 0.1977539, 0.0229492, 33.1097565, 35.1829262, 11.5853662, -0.1252155
-1.0214844, 0.2021484, 0.0317383, 31.4024391, 36.2195129, 11.341464, -0.1245441
-1.0058594, 0.1801758, 0.0537109, 30.7926846, 36.1585388, 10.8536587, -0.1272297
-0.9946289, 0.1503906, 0.0322266, 31.7073174, 36.4634171, 9.5121956, -0.1211872
-1.0039062, 0.1435547, 0.015625, 32.3170738, 37.3780479, 8.780488, -0.1252155
-1.0317383, 0.1542969, -0.0112305, 32.3780479, 37.3780479, 9.1463413, -0.1319295
-1.046875, 0.1748047, -0.0263672, 31.2195129, 37.3170738, 10.4268293, -0.1279011
-1.0595703, 0.215332, -0.0649414, 30.060976, 37.1951218, 11.0365858, -0.1211872
-1.0629883, 0.2294922, -0.0791016, 28.1707325, 36.5243912, 11.8902445, -0.1198444
-1.0600586, 0.2392578, -0.1035156, 26.7682934, 36.0975609, 12.1341467, -0.1201801
-1.0585938, 0.2431641, -0.112793, 24.1463413, 35.7926826, 11.5853662, -0.1144732
-1.0498047, 0.2324219, -0.1254883, 22.3780499, 35.5487823, 10.9756098, -0.1121233
-1.0532227, 0.2192383, -0.1245117, 19.8170738, 34.9390259, 10.3658543, -0.0973526
-1.0639648, 0.1992188, -0.1186523, 19.2073174, 34.3292694, 10, -0.0762036
-1.0727539, 0.203125, -0.1318359, 18.4146347, 33.9024391, 9.7560978, -0.0614328
-1.0791016, 0.2026367, -0.1298828, 16.7682934, 32.3170738, 9.8780489, -0.0352483
-1.0839844, 0.1918945, -0.1333008, 16.0975609, 31.341465, 9.5121956, -0.0218204
-1.0805664, 0.1889648, -0.1362305, 15.8536587, 30.060976, 10.060976, -0.024506
-1.0795898, 0.1674805, -0.1416016, 16.0365849, 29.3902454, 10.9756098, -0.0265202
-1.0766602, 0.1601562, -0.1333008, 16.7073174, 29.0853672, 12.0731707, -0.0285344
-1.0712891, 0.1606445, -0.1357422, 17.439024, 29.2682934, 12.5, -0.0446479
-1.0737305, 0.1625977, -0.1420898, 17.0121956, 28.780489, 12.560976, -0.070161
-1.0742188, 0.1699219, -0.1552734, 17.0731716, 27.9268303, 12.5, -0.0869459
-1.0649414, 0.1621094, -0.1601562, 17.0731716, 26.7073174, 12.5, -0.0896315
-1.0424805, 0.1474609, -0.1889648, 17.3780499, 26.4634151, 12.5, -0.0997024
-1.0087891, 0.1298828, -0.2192383, 17.6219521, 27.0121956, 12.6219511, -0.115816
-0.9936523, 0.1254883, -0.2431641, 17.5, 26.8292694, 12.7439032, -0.1292439
-0.9829102, 0.1411133, -0.2412109, 17.1341476, 26.4634151, 12.8048782, -0.148043
-0.9760742, 0.1630859, -0.2451172, 14.5731707, 26.0365868, 12.1951218, -0.1346151
-0.9663086, 0.1933594, -0.2475586, 13.841464, 25.8536587, 11.7073174, -0.1117876
-0.9589844, 0.1953125, -0.2519531, 12.2560978, 25.8536587, 10.1219511, -0.0909743
-0.9467773, 0.1826172, -0.2646484, 11.1585369, 26.0365868, 9.5121956, -0.0466621
-0.9414062, 0.1743164, -0.2666016, 8.9634151, 25.9146347, 8.719512, 0.0184634
-0.9389648, 0.1645508, -0.2412109, 7.7439027, 25.8536587, 8.4756098, 0.0882887
-0.9433594, 0.1567383, -0.2231445, 6.4634147, 26.4634151, 8.2317076, 0.1628138
-0.9453125, 0.1386719, -0.1884766, 6.2195125, 26.4634151, 8.0487804, 0.2185397
-0.9433594, 0.1235352, -0.1699219, 7.3780489, 27.0731716, 7.9268293, 0.2286107
-0.9472656, 0.1171875, -0.1689453, 8.2317076, 27.1951218, 7.1341467, 0.2185397
-0.9643555, 0.112793, -0.1748047, 8.9634151, 26.6463413, 6.8292685, 0.1940337
-0.9692383, 0.1132812, -0.1777344, 10.1829271, 25.7926826, 6.6463418, 0.1426719
-0.9873047, 0.1411133, -0.168457, 11.1585369, 25.8536587, 6.6463418, 0.0829175
-0.9887695, 0.152832, -0.1669922, 11.8902445, 25.9756107, 6.890244, 0.0238346
-0.9907227, 0.1674805, -0.1586914, 12.2560978, 25.9756107, 7.0731707, -0.0305486
-0.987793, 0.1767578, -0.1557617, 13.2317076, 25.5487804, 7.1951222, -0.0849317
-0.9804688, 0.2060547, -0.1425781, 13.780488, 25.1219521, 6.9512196, -0.109102
-0.9770508, 0.2255859, -0.1308594, 15.9756098, 24.6341476, 6.7682929, -0.1359579
-0.9692383, 0.2255859, -0.1293945, 16.5243912, 24.8780499, 6.4024391, -0.158114
-0.972168, 0.2197266, -0.1342773, 17.560976, 25.2439022, 4.8170733, -0.164828
-0.9711914, 0.2265625, -0.1401367, 17.7439022, 26.5243912, 3.4756098, -0.1812772
-0.9833984, 0.2392578, -0.1669922, 17.7439022, 26.5243912, 3.2926829, -0.1916838
-0.9804688, 0.2451172, -0.1860352, 16.4634151, 26.8902454, 3.5975611, -0.1701991
-0.9624023, 0.237793, -0.2001953, 15.9146347, 27.0731716, 3.8414636, -0.1453574
-0.9536133, 0.2216797, -0.1943359, 14.8780489, 27.9878063, 3.2317073, -0.0997024
-0.9375, 0.1743164, -0.1777344, 14.9390249, 28.3536587, 3.1097562, -0.0480049
-0.9306641, 0.1616211, -0.1767578, 16.6463413, 29.1463413, 2.6219513, -0.0204776
-0.9296875, 0.1508789, -0.1953125, 17.3780499, 29.2682934, 2.1341465, -0.0030213
-0.9272461, 0.1430664, -0.2075195, 17.7439022, 28.3536587, 1.2195122, -0.0030213
-0.9291992, 0.1469727, -0.2104492, 17.3170738, 28.4146347, 1.097561, 0.0194705
-0.9335938, 0.1479492, -0.2255859, 17.3170738, 29.0243912, 0.7926829, 0.0325628
-0.9365234, 0.1538086, -0.230957, 16.8902435, 29.5731716, 0.9146342, 0.0419623
-0.9423828, 0.1577148, -0.2441406, 16.6463413, 29.7560978, 1.2195122, 0.0433051
-0.9482422, 0.1616211, -0.2548828, 16.0365849, 30.3048782, 1.8292683, 0.0318914
-0.9506836, 0.1611328, -0.2583008, 15.7317076, 29.7560978, 1.8292683, 0.0184634
-0.9506836, 0.1557617, -0.2602539, 16.1585369, 28.4146347, 1.4634147, 0.0151064
-0.9560547, 0.1606445, -0.2827148, 16.4634151, 27.9878063, 1.2195122, 0.027863
-0.956543, 0.1611328, -0.2919922, 16.4634151, 26.5853672, 0.7926829, 0.03122
-0.9570312, 0.1650391, -0.3095703, 16.6463413, 26.0975609, 0.7317073, 0.0446479
-0.9570312, 0.1665039, -0.309082, 16.3414631, 24.9390259, 0.4878049, 0.0480049
-0.9580078, 0.1630859, -0.3017578, 16.4024391, 24.2682934, 0.7317073, 0.0493477
-0.9663086, 0.1616211, -0.3007812, 16.0365849, 23.6585369, 1.0365853, 0.0426337
-0.9667969, 0.159668, -0.2988281, 16.2195129, 22.6219521, 0.4268293, 0.0506905
-0.9648438, 0.1494141, -0.2949219, 16.7682934, 22.560976, 0.5487805, 0.0493477
-0.9731445, 0.1489258, -0.2939453, 17.3170738, 22.1341476, 0.7926829, 0.0463264
-0.9775391, 0.1455078, -0.3305664, 17.0731716, 21.8292694, 0.9146342, 0.0419623
-0.9819336, 0.1455078, -0.3457031, 16.2195129, 19.2073174, 1.4634147, 0.0365911
-0.9814453, 0.1254883, -0.3510742, 15.9146347, 17.9878044, 2.1341465, 0.021149
-0.9736328, 0.1191406, -0.3603516, 16.0365849, 16.0365849, 3.5975611, 0.0077211
-0.9677734, 0.1147461, -0.378418, 16.2195129, 14.8780489, 4.0243902, -0.0030213
-0.9614258, 0.1142578, -0.362793, 15.3658543, 12.0731707, 4.7560978, -0.011078
-0.9526367, 0.1137695, -0.3530273, 15.1219511, 11.0365858, 5.0609756, -0.0271916
-0.9389648, 0.1098633, -0.3339844, 15, 9.3902445, 6.0975609, -0.0513619
-0.9355469, 0.1040039, -0.3271484, 15.1219511, 8.9024391, 6.280488, -0.0741894
-0.9384766, 0.1030273, -0.3388672, 14.9390249, 8.6585369, 6.280488, -0.0835889
-0.9482422, 0.1074219, -0.3422852, 14.6341467, 8.0487804, 6.7682929, -0.1017166
-0.9667969, 0.1157227, -0.3442383, 13.9024391, 8.0487804, 7.0121951, -0.1094377
-0.9755859, 0.1157227, -0.3466797, 13.5365858, 6.5243902, 8.2317076, -0.1232013
-0.9804688, 0.1147461, -0.3579102, 13.5365858, 5.9756098, 8.6585369, -0.1346151
-0.9785156, 0.1108398, -0.3642578, 13.3536587, 3.9024391, 9.2682924, -0.1722133
-0.9746094, 0.0859375, -0.3608398, 13.841464, 2.6829269, 9.0853662, -0.2276036
-0.9648438, 0.0429688, -0.3657227, 15.2439032, 0.6097561, 9.2682924, -0.2531167
-0.9580078, 0.0336914, -0.3671875, 16.7073174, 0.1219512, 9.5121956, -0.249424
-0.9541016, 0.0332031, -0.3701172, 18.7195129, -1.2804878, 10, -0.2581521
-0.9521484, 0.0395508, -0.3632812, 21.3414631, -2.9268293, 10.7926836, -0.2521096
-0.9492188, 0.0761719, -0.34375, 22.3780499, -3.4146342, 11.4024391, -0.2232395
-0.9453125, 0.0878906, -0.3286133, 24.5121956, -3.9634147, 12.560976, -0.2064546
-0.9345703, 0.0976562, -0.3007812, 25.3658543, -3.7195122, 12.9878054, -0.1886625
-0.9311523, 0.0957031, -0.2905273, 27.3780499, -2.6219513, 13.1707315, -0.164828
-0.9331055, 0.0913086, -0.2875977, 28.780489, -2.5, 13.0487804, -0.1185016
-0.9375, 0.0986328, -0.293457, 30.6097565, -2.195122, 13.1097565, -0.0741894
-0.9541016, 0.1118164, -0.3164062, 31.1585369, -2.0731707, 13.2317076, -0.0124208
-0.9526367, 0.1245117, -0.3276367, 31.8902454, -2.7439024, 13.7195129, 0.0520333
-0.949707, 0.1323242, -0.3237305, 31.9512196, -3.0487804, 14.0243902, 0.1131304
-0.9365234, 0.1420898, -0.3037109, 32.1951218, -3.5975611, 15.060976, 0.1634852
-0.9316406, 0.1420898, -0.2919922, 33.4146347, -3.7804878, 15.3658543, 0.1930266
-0.9257812, 0.1513672, -0.2817383, 33.9024391, -3.7804878, 15.4878054, 0.2051118
-0.9243164, 0.1723633, -0.2753906, 34.5121956, -3.5365853, 15.3048782, 0.197055
-0.9379883, 0.2099609, -0.2578125, 34.3902435, -3.0487804, 15.5487804, 0.1876555
-0.9423828, 0.222168, -0.2480469, 34.2682953, -2.2560976, 15.2439032, 0.1628138
-0.9458008, 0.2368164, -0.2363281, 34.1463432, -1.7682927, 15, 0.1352865
-0.9521484, 0.2358398, -0.2236328, 33.4146347, -1.0365853, 14.3292685, 0.1117876
-0.9609375, 0.2319336, -0.2089844, 33.2926826, -1.097561, 13.9634151, 0.0990311
-0.9750977, 0.2250977, -0.1855469, 33.0487823, -0.7926829, 12.9878054, 0.0782177
-0.9868164, 0.2197266, -0.1850586, 32.8658562, -0.9756098, 12.4390249, 0.0641184
-0.9995117, 0.2109375, -0.1850586, 33.2317085, -1.3414634, 11.9512196, 0.0547189
-0.9970703, 0.2084961, -0.1875, 32.8658562, -2.2560976, 11.8292685, 0.0449836
-0.9941406, 0.2041016, -0.1972656, 32.4390259, -2.8658538, 11.9512196, 0.0332341
-0.9921875, 0.1962891, -0.1962891, 32.0121956, -3.5365853, 11.8292685, 0.0288701
-0.9780273, 0.1889648, -0.1953125, 31.280489, -3.9634147, 12.0731707, 0.0157778
-0.9702148, 0.1826172, -0.1943359, 30.7926846, -3.7804878, 12.0121956, 0.0167849
-0.9614258, 0.1655273, -0.2016602, 30.7926846, -3.8414636, 11.7682934, 0.0231632
-0.9584961, 0.1572266, -0.199707, 30.9146347, -3.4756098, 11.219512, 0.0117494
-0.9516602, 0.1420898, -0.2084961, 30.9146347, -3.4146342, 10.7926836, 0.0057069
-0.9555664, 0.1333008, -0.2231445, 31.0975609, -2.8658538, 10.3658543, 0.0036927
-0.9560547, 0.1342773, -0.2314453, 31.341465, -2.6219513, 10.1829271, -0.014435
-0.9584961, 0.1303711, -0.2470703, 31.8902454, -2.3170731, 10.1219511, -0.0342412
-0.9589844, 0.1264648, -0.2529297, 31.9512196, -2.4390244, 10.2439022, -0.0426337
-0.9663086, 0.1303711, -0.2578125, 31.8902454, -2.7439024, 10.1829271, -0.0621042
-0.9628906, 0.1303711, -0.2548828, 32.5, -3.2926829, 10.1219511, -0.0849317
-0.9599609, 0.1298828, -0.2416992, 32.7439041, -3.5365853, 10.2439022, -0.0923171
-0.9526367, 0.1303711, -0.2373047, 32.8658562, -3.8414636, 9.0853662, -0.1104448
-0.9492188, 0.125, -0.2241211, 32.9268303, -3.4756098, 8.6585369, -0.1111162
-0.9536133, 0.1245117, -0.2192383, 33.4146347, -2.5609756, 8.1097565, -0.1084306
-0.9589844, 0.1196289, -0.2226562, 33.5975609, -2.3170731, 7.9878049, -0.1067521
-0.9677734, 0.1157227, -0.2246094, 34.3902435, -1.1585366, 8.4756098, -0.0943313
-0.9716797, 0.1083984, -0.2207031, 35.6097565, -1.2195122, 9.2682924, -0.0929885
-0.9770508, 0.1069336, -0.2148438, 36.4024391, -1.2195122, 9.6341467, -0.076875
-0.9692383, 0.112793, -0.2094727, 37.8048782, -2.0121951, 10.1829271, -0.0758679
-0.9702148, 0.128418, -0.2045898, 38.841465, -2.3780489, 10.3658543, -0.0688182
-0.972168, 0.1396484, -0.2075195, 40.0609779, -3.1097562, 9.8780489, -0.0741894
-0.9702148, 0.1640625, -0.2109375, 40.2439041, -2.8658538, 9.7560978, -0.076875
-0.9663086, 0.168457, -0.2119141, 40.0609779, -2.804878, 9.3292685, -0.073518
-0.9614258, 0.1772461, -0.2260742, 39.9390259, -2.1341465, 9.2073174, -0.0728466
-0.9614258, 0.1772461, -0.2382812, 38.7804871, -2.0731707, 9.0243902, -0.0943313
-0.9594727, 0.1713867, -0.2504883, 37.6829262, -2.1341465, 9.0853662, -0.1104448
-0.9609375, 0.1694336, -0.2558594, 36.5853653, -2.8658538, 8.719512, -0.0882887
-0.9677734, 0.1762695, -0.2641602, 35.8536606, -4.2073174, 8.9634151, -0.0788891
-0.9643555, 0.1918945, -0.2758789, 35.0609779, -4.2682929, 9.2682924, -0.0688182
-0.9555664, 0.1992188, -0.2768555, 33.5975609, -4.8170733, 9.3292685, -0.0486763
-0.9438477, 0.1879883, -0.2583008, 33.0487823, -4.8780489, 8.9634151, -0.0191348
-0.9384766, 0.1860352, -0.2470703, 31.7682934, -4.1463413, 8.1707315, 0.0010071
-0.9521484, 0.1757812, -0.2285156, 31.341465, -3.5365853, 7.6219516, 0.021149
-0.9614258, 0.171875, -0.2231445, 30.6707325, -3.1097562, 6.9512196, 0.0352483
-0.9838867, 0.1591797, -0.2158203, 30.4268303, -2.5, 6.5853658, 0.0318914
-0.9931641, 0.1499023, -0.2070312, 30.1219521, -2.4390244, 7.2560978, 0.0325628
-1.0146484, 0.1347656, -0.1879883, 29.8170738, -2.195122, 7.1341467, 0.0251774
-1.0268555, 0.1420898, -0.2001953, 30.9756107, -1.5853659, 7.8048782, 0.0130922
-1.0322266, 0.1479492, -0.2055664, 30.6707325, -2.804878, 8.0487804, -0.0057069
-1.0327148, 0.1499023, -0.2050781, 30.3658543, -2.8658538, 8.3536587, -0.0030213
-1.03125, 0.1591797, -0.2075195, 29.8170738, -2.9878049, 9.2073174, -0.0164492
-1.0317383, 0.1806641, -0.2231445, 29.3292694, -3.2317073, 9.2682924, -0.0224918
-1.0317383, 0.1870117, -0.237793, 27.8048782, -3.9024391, 9.6341467, -0.0305486
-1.0161133, 0.1831055, -0.2509766, 27.1951218, -4.0243902, 9.8170738, -0.0419623
-1.0058594, 0.1733398, -0.2524414, 26.1585369, -3.9634147, 10.1219511, -0.056733
-0.9926758, 0.1635742, -0.2548828, 26.3414631, -3.3536587, 10.1829271, -0.056733
-0.9926758, 0.168457, -0.2568359, 26.5853672, -2.804878, 10, -0.056733
-0.9995117, 0.1821289, -0.2573242, 26.280489, -2.3780489, 9.8780489, -0.066804
-1.0097656, 0.1904297, -0.2475586, 25.9756107, -1.5853659, 9.3902445, -0.0715038
-1.0151367, 0.1928711, -0.2509766, 25.7317085, -0.6097561, 9.6951218, -0.070161
-1.0214844, 0.1987305, -0.2504883, 25.2439022, -0.3048781, 9.3902445, -0.0728466
-1.0317383, 0.1943359, -0.246582, 24.9390259, 0.0609756, 9.6951218, -0.076875
-1.0483398, 0.1811523, -0.2456055, 24.3902435, 0.1829268, 9.7560978, -0.0694896
-1.0498047, 0.1767578, -0.2426758, 23.5365868, 0.0609756, 9.3902445, -0.0728466
-1.0571289, 0.1669922, -0.2407227, 23.2926826, -0.4268293, 9.2682924, -0.0896315
-1.0610352, 0.1689453, -0.2407227, 23.2926826, -0.9756098, 9.8780489, -0.0903029
-1.0561523, 0.1621094, -0.2495117, 23.1097565, -1.3414634, 10.1219511, -0.0889601
-1.0541992, 0.1586914, -0.2612305, 22.3780499, -1.7682927, 10.7926836, -0.0976883
-1.0371094, 0.1474609, -0.2841797, 21.6463413, -1.8902439, 11.0365858, -0.1030594
-1.0200195, 0.1323242, -0.2978516, 20.4268303, -1.8292683, 11.5853662, -0.0970169
-1.015625, 0.1235352, -0.3032227, 19.0853672, -1.402439, 11.6463413, -0.1047379
-1.0078125, 0.1054688, -0.2998047, 18.7195129, -1.0365853, 11.9512196, -0.1138018
-1.0014648, 0.0991211, -0.3032227, 18.1707325, -0.5487805, 12.4390249, -0.0896315
-0.9946289, 0.0878906, -0.3081055, 18.2926826, 0, 12.6219511, -0.0849317
-0.9970703, 0.0810547, -0.3066406, 18.6585369, 0.9756098, 12.8658543, -0.0755322
-0.9985352, 0.0683594, -0.3144531, 19.0853672, 1.1585366, 12.8658543, -0.0835889
-1.003418, 0.0585938, -0.3139648, 20.060976, 1.5853659, 13.1707315, -0.0896315
-1.0200195, 0.0410156, -0.3256836, 20.7317085, 1.5243902, 13.7195129, -0.0956741
-1.034668, 0.0561523, -0.3286133, 21.7073174, 0.9146342, 15.6707325, -0.0741894
-1.0371094, 0.0698242, -0.3266602, 21.9512196, 0.6097561, 16.7682934, -0.0627756
-1.0356445, 0.1152344, -0.3222656, 21.2195129, -1.3414634, 18.780489, -0.0540475
-1.0244141, 0.1333008, -0.3217773, 19.6341476, -2.4390244, 20.4268303, -0.0459907
-0.9956055, 0.1396484, -0.3032227, 18.9634151, -2.2560976, 20.8536587, -0.0459907
-0.9794922, 0.1416016, -0.3017578, 17.5, -1.0365853, 20.4878044, -0.0553902
-0.9755859, 0.1420898, -0.2988281, 16.8292694, -0.1829268, 20.1829281, -0.0815747
-0.9853516, 0.1459961, -0.2954102, 15.7926836, 1.0365853, 20, -0.1238727
-1.0004883, 0.1464844, -0.3066406, 15.5487804, 1.3414634, 20.3048782, -0.1842985
-1.0078125, 0.1479492, -0.3115234, 14.5731707, 2.5609756, 20.9756107, -0.2265965
-1.0253906, 0.1547852, -0.3276367, 13.5365858, 2.6219513, 21.3414631, -0.2380102
-1.0351562, 0.1616211, -0.3442383, 11.9512196, 2.5609756, 22.439024, -0.2259251
-1.0322266, 0.159668, -0.3417969, 10.6097565, 2.195122, 23.3536587, -0.2044404
-1.0151367, 0.1547852, -0.3579102, 8.6585369, 2.1341465, 25.060976, -0.1809415
-1.0087891, 0.1494141, -0.3754883, 6.4024391, 2.1341465, 25.6097565, -0.1822843
-0.9863281, 0.1342773, -0.4072266, 5.4878049, 2.7439024, 25.7926826, -0.1883268
-0.9707031, 0.1196289, -0.4189453, 4.5121951, 3.4756098, 26.4634151, -0.1708705
-0.940918, 0.0820312, -0.4272461, 4.1463413, 4.0243902, 26.7682934, -0.1675135
-0.9272461, 0.0688477, -0.4179688, 4.390244, 4.1463413, 27.560976, -0.1507286
-0.934082, 0.0727539, -0.3808594, 4.8170733, 3.9024391, 27.8048782, -0.1067521
-0.9370117, 0.0991211, -0.3647461, 6.0975609, 3.4756098, 29.6341476, -0.0553902
-0.9453125, 0.1533203, -0.3525391, 5.9146342, 3.5975611, 30.3048782, -0.0117494
-0.9516602, 0.1826172, -0.3388672, 4.2073174, 3.2317073, 30.1219521, 0.0345769
-0.9501953, 0.1791992, -0.3295898, 3.5975611, 2.8658538, 30, 0.0688182
-0.9414062, 0.1733398, -0.3188477, 1.8902439, 2.9878049, 29.9390259, 0.0866102
-0.9433594, 0.1728516, -0.3334961, 0.7926829, 2.9878049, 29.7560978, 0.0976883
-0.9453125, 0.175293, -0.2944336, 0.3048781, 3.1707318, 29.8780499, 0.1245441
-0.9482422, 0.1708984, -0.28125, 0.8536586, 3.7195122, 30.6097565, 0.1178302
-0.9399414, 0.175293, -0.3325195, 0.9146342, 2.9878049, 31.2195129, 0.0963455
-0.9345703, 0.1826172, -0.3325195, 0, 1.9512196, 30.1829281, 0.0862745
-0.9291992, 0.1904297, -0.3188477, -0.1829268, 1.9512196, 29.3902454, 0.0681468
-0.925293, 0.1943359, -0.3198242, -0.3658537, 1.3414634, 27.9878063, 0.0574044
-0.9160156, 0.2001953, -0.3354492, -0.7926829, 1.4634147, 27.3170738, 0.0439765
-0.9145508, 0.2094727, -0.3193359, -1.8902439, 1.402439, 26.7682934, 0.0298772
-0.9160156, 0.2099609, -0.309082, -2.0731707, 1.8292683, 26.3414631, 0.0003357
-0.9150391, 0.1972656, -0.2973633, -2.0731707, 1.8292683, 26.1585369, -0.0339055
-0.9111328, 0.1889648, -0.2900391, -0.7926829, 2.7439024, 26.1585369, -0.0527047
-0.9199219, 0.184082, -0.284668, 0.2439024, 3.1097562, 25.6707325, -0.070161
-0.9208984, 0.1938477, -0.2861328, 1.5243902, 3.1707318, 24.9390259, -0.0782177
-0.9448242, 0.2299805, -0.2856445, 2.1341465, 2.9268293, 24.8170738, -0.076875
-0.9570312, 0.2470703, -0.2866211, 2.5, 1.8902439, 24.2682934, -0.0661326
-0.9624023, 0.2641602, -0.2744141, 2.5, 1.402439, 23.9024391, -0.0406195
-0.9604492, 0.2602539, -0.2670898, 2.1341465, 0.7317073, 22.9878063, 0.0077211
-0.940918, 0.2504883, -0.2514648, 2.195122, 0.4878049, 22.0121956, 0.0506905
-0.9394531, 0.2358398, -0.2456055, 2.4390244, 0.6707317, 20.6707325, 0.0835889
-0.9355469, 0.2353516, -0.2504883, 2.804878, 0.7926829, 19.8780499, 0.1279011
-0.9418945, 0.2397461, -0.2661133, 3.0487804, 0.9146342, 19.0853672, 0.1359579
-0.9453125, 0.2460938, -0.2753906, 2.5, 0.7926829, 19.1463413, 0.1326009
-0.9472656, 0.2705078, -0.2875977, 2.1341465, 0.8536586, 18.7195129, 0.1104448
-0.9384766, 0.2709961, -0.2929688, 0.6707317, 0.7926829, 18.1097565, 0.0782177
-0.9165039, 0.265625, -0.3085938, -0.2439024, 0.9756098, 17.8658543, 0.0352483
-0.9077148, 0.2539062, -0.315918, -1.7682927, 0.9756098, 15.6707325, 0.0010071
-0.9018555, 0.2363281, -0.3173828, -2.195122, 0.7317073, 14.7560978, -0.021149
-0.8989258, 0.2294922, -0.3144531, -2.1341465, 0.5487805, 12.4390249, -0.0362554
-0.8955078, 0.2143555, -0.3212891, -2.0121951, 0.5487805, 11.8902445, -0.0486763
-0.9101562, 0.2197266, -0.3354492, -1.9512196, 0.8536586, 11.280488, -0.0594186
-0.9101562, 0.2275391, -0.3398438, -2.0731707, 1.1585366, 10.9756098, -0.0527047
-0.9174805, 0.2290039, -0.3481445, -2.9268293, 1.5853659, 10.8536587, -0.0587472
-0.9179688, 0.2333984, -0.3525391, -3.5365853, 1.8292683, 10.2439022, -0.0540475
-0.9291992, 0.2426758, -0.3701172, -4.3292685, 1.4634147, 9.8170738, -0.0352483
-0.9287109, 0.246582, -0.3793945, -5.7926831, 1.2195122, 8.841464, -0.0406195
-0.9350586, 0.2407227, -0.3959961, -5.9756098, 0.4878049, 8.1707315, -0.0500191
-0.9487305, 0.2333984, -0.3862305, -5.2439027, -2.6219513, 6.5243902, -0.0607614
-0.9345703, 0.2314453, -0.4389648, -5.609756, -3.9024391, 6.1585369, -0.0856031
-0.9267578, 0.2373047, -0.4370117, -8.9024391, -3.0487804, 4.5731707, -0.0923171
-0.9360352, 0.2441406, -0.4248047, -9.3902445, -3.2317073, 4.390244, -0.0963455
-0.9204102, 0.2290039, -0.4399414, -8.780488, -5.1219511, 4.0243902, -0.1104448
-0.9150391, 0.222168, -0.440918, -9.0853662, -5.1219511, 4.0243902, -0.1171588
-0.9165039, 0.2363281, -0.4370117, -10.6097565, -5.1829271, 3.5365853, -0.1265583
-0.9155273, 0.2460938, -0.4433594, -10.7317076, -5.609756, 2.8658538, -0.1373007
-0.9145508, 0.2353516, -0.4501953, -10.3658543, -5.9146342, 2.5609756, -0.1312581
-0.9106445, 0.2270508, -0.4516602, -10.7317076, -6.8292685, 1.5853659, -0.1245441
-0.9052734, 0.2158203, -0.4589844, -10.8536587, -7.1341467, 1.1585366, -0.1037308
-0.8955078, 0.2207031, -0.4624023, -11.4024391, -7.6219516, 0.6097561, -0.0856031
-0.8862305, 0.2250977, -0.4941406, -11.4024391, -7.8658538, 0.7317073, -0.0446479
-0.8774414, 0.2363281, -0.5029297, -12.5, -8.9024391, 0.4268293, 0.0010071
-0.8481445, 0.2368164, -0.5185547, -13.2926836, -9.3292685, 0.3658537, 0.0218204
-0.8007812, 0.237793, -0.5439453, -15.2439032, -10.060976, -0.0609756, 0.0352483
-0.7871094, 0.2392578, -0.5507812, -16.1585369, -10.5487804, -0.7926829, 0.0533761
-0.7563477, 0.2460938, -0.5556641, -17.560976, -11.1585369, -1.5243902, 0.0379339
-0.7416992, 0.2490234, -0.5566406, -18.5365849, -11.7073174, -2.5609756, 0.0184634
-0.7236328, 0.2641602, -0.5571289, -19.0853672, -11.5243902, -2.7439024, 0.014435
-0.7167969, 0.2758789, -0.5625, -20.3658543, -11.0365858, -4.3292685, 0.0077211
-0.7070312, 0.2768555, -0.5605469, -20.7317085, -10.6707315, -5.1219511, -0.0030213
-0.7109375, 0.2666016, -0.5620117, -21.1585369, -9.7560978, -7.0121951, -0.0073854
-0.7094727, 0.2397461, -0.5668945, -21.3414631, -9.5121956, -7.3170733, -0.0194705
-0.7148438, 0.2246094, -0.5517578, -20.9756107, -8.780488, -8.6585369, -0.0365911
-0.7275391, 0.1845703, -0.5356445, -20.3658543, -8.2317076, -8.9024391, -0.0436408
-0.7524414, 0.144043, -0.5126953, -18.5365849, -7.6219516, -9.6951218, -0.0513619
-0.7739258, 0.1435547, -0.4799805, -16.7682934, -7.3780489, -9.6951218, -0.070161
-0.8408203, 0.1787109, -0.4287109, -16.4024391, -7.5609756, -9.8170738, -0.0866102
-0.8764648, 0.1967773, -0.4150391, -16.6463413, -9.0243902, -9.6951218, -0.0963455
-0.9194336, 0.2109375, -0.3891602, -17.560976, -9.7560978, -9.5731707, -0.1104448
-0.9326172, 0.1914062, -0.3759766, -20.3048782, -11.0975609, -11.219512, -0.1211872
-0.9604492, 0.137207, -0.3417969, -21.7682934, -11.5853662, -11.8292685, -0.1104448
-0.9775391, 0.1083984, -0.3208008, -22.560976, -13.5975609, -13.6585369, -0.1151446
-1.0063477, 0.0600586, -0.2783203, -22.6219521, -14.8780489, -13.9634151, -0.1084306
-1.0180664, 0.043457, -0.2578125, -20.4268303, -17.0731716, -13.841464, -0.0903029
-1.0317383, 0.0273438, -0.2275391, -18.5975609, -18.0487804, -13.4756098, -0.073518
-1.0395508, 0.0297852, -0.2006836, -15.5487804, -19.5121956, -12.8048782, -0.0382696
-1.0439453, 0.0410156, -0.1992188, -12.9268293, -20.3658543, -12.0121956, -0.0057069
-1.0527344, 0.0615234, -0.1938477, -11.9512196, -21.1585369, -11.6463413, 0.0191348
-1.0498047, 0.0678711, -0.1967773, -10.8536587, -22.1951218, -10.1829271, 0.0285344
-1.0302734, 0.0649414, -0.2094727, -10.5487804, -22.560976, -9.7560978, 0.0359197
-1.0161133, 0.0639648, -0.2075195, -9.3292685, -23.1097565, -8.719512, 0.0345769
-0.9804688, 0.0585938, -0.2099609, -8.719512, -23.2926826, -8.5365858, 0.0298772
-0.9667969, 0.0522461, -0.2045898, -7.0731707, -22.5, -7.8048782, 0.0127565
-0.9438477, 0.0449219, -0.2011719, -5.8536587, -21.4634151, -7.8048782, -0.0057069
-0.9428711, 0.0419922, -0.2128906, -4.2682929, -20.2439022, -7.9878049, -0.0392767
-0.9360352, 0.0532227, -0.2250977, -3.5975611, -19.0853672, -7.7439027, -0.06009
-0.9394531, 0.0717773, -0.2197266, -2.4390244, -17.3780499, -7.3780489, -0.0684825
-0.9433594, 0.078125, -0.2207031, -1.8292683, -15.6707325, -7.0121951, -0.0943313
-0.953125, 0.0844727, -0.2280273, -1.5243902, -15.1219511, -6.6463418, -0.1117876
-0.9589844, 0.0834961, -0.2294922, -0.4878049, -14.8170738, -6.6463418, -0.1171588
-0.9609375, 0.0874023, -0.2280273, 0.1829268, -14.4512196, -6.5243902, -0.1373007
-0.9624023, 0.0913086, -0.2265625, 0.9756098, -14.8780489, -6.0975609, -0.1520714
-0.9633789, 0.097168, -0.2451172, 1.402439, -15.1219511, -5.9756098, -0.1386435
-0.9614258, 0.097168, -0.2504883, 2.0121951, -15.6707325, -5.8536587, -0.1379721
-0.9516602, 0.0922852, -0.2636719, 2.0731707, -16.0975609, -6.0365853, -0.144686
-0.9448242, 0.0800781, -0.2832031, 3.0487804, -16.5243912, -5.7317076, -0.1376364
-0.9423828, 0.0742188, -0.3105469, 3.6585367, -16.5243912, -5.5487804, -0.1319295
-0.9355469, 0.0649414, -0.3369141, 4.7560978, -17.439024, -5.1829271, -0.1326009
-0.9311523, 0.0600586, -0.3564453, 5.9756098, -18.5975609, -4.6341462, -0.1292439
-0.9248047, 0.0600586, -0.3867188, 6.5243902, -19.2073174, -4.5121951, -0.1060807
-0.9208984, 0.0615234, -0.3911133, 7.3170733, -20.6707325, -4.3292685, -0.0909743
-0.9150391, 0.0668945, -0.4038086, 7.8048782, -21.5853672, -4.6341462, -0.0715038
-0.9189453, 0.0703125, -0.40625, 8.5365858, -22.8658543, -4.9390244, -0.0533761
-0.9233398, 0.0786133, -0.4082031, 8.841464, -23.5365868, -5.1219511, -0.0298772
-0.9257812, 0.0859375, -0.409668, 10.1219511, -24.4512196, -5.5487804, -0.0003357
-0.9394531, 0.0952148, -0.3901367, 10.2439022, -24.9390259, -5.4878049, 0.0238346
-0.9492188, 0.0976562, -0.3842773, 10.7317076, -26.4634151, -5.9756098, 0.0627756
-0.9658203, 0.112793, -0.3540039, 11.0975609, -26.6463413, -6.1585369, 0.0950027
-0.9921875, 0.1225586, -0.3134766, 11.9512196, -27.3170738, -6.5853658, 0.1221942
-1.0063477, 0.1230469, -0.2958984, 12.6829271, -27.560976, -7.0121951, 0.1399863
-1.0366211, 0.1376953, -0.2783203, 13.1707315, -28.3536587, -7.0731707, 0.1359579
-1.0561523, 0.1450195, -0.269043, 13.5365858, -29.7560978, -7.3170733, 0.1232013
-1.0664062, 0.1621094, -0.2558594, 13.4756098, -30.6707325, -7.1341467, 0.1185016
-1.0703125, 0.1699219, -0.2353516, 13.780488, -32.0731697, -6.7073174, 0.1013809
-1.0717773, 0.1992188, -0.199707, 13.4146347, -32.3170738, -6.3414636, 0.0923171
-1.0678711, 0.2045898, -0.2011719, 12.6829271, -33.0487823, -6.4634147, 0.0923171
-1.034668, 0.1889648, -0.1855469, 12.1341467, -33.1097565, -6.3414636, 0.0654612
-1.0146484, 0.1757812, -0.1733398, 11.8902445, -30.9146347, -7.0731707, 0.0500191
-1.0209961, 0.1782227, -0.1713867, 11.8292685, -29.5731716, -7.3170733, 0.0386053
-1.0258789, 0.1870117, -0.1787109, 11.8292685, -27.9878063, -8.0487804, 0.0231632
-1.0258789, 0.1879883, -0.1850586, 11.8292685, -26.6463413, -7.7439027, 0.0077211
-1.0200195, 0.1899414, -0.2167969, 11.4634151, -26.1585369, -7.6829271, 0.0043641
-1.0097656, 0.1943359, -0.2324219, 10.3658543, -24.3292694, -8.1097565, -0.011078
-0.9956055, 0.2114258, -0.2597656, 9.3902445, -23.5365868, -8.2926826, -0.0271916
-0.9936523, 0.2197266, -0.277832, 7.4390244, -23.0487804, -8.780488, -0.0433051
-0.980957, 0.2402344, -0.3041992, 6.1585369, -22.560976, -8.780488, -0.0594186
-0.9707031, 0.2421875, -0.3154297, 3.1097562, -22.3170738, -8.9634151, -0.0839246
-0.9453125, 0.2373047, -0.3251953, 1.5853659, -21.6463413, -9.2073174, -0.1054093
-0.9291992, 0.234375, -0.3305664, -1.2804878, -20.8536587, -10.4268293, -0.1265583
-0.9228516, 0.2290039, -0.3359375, -2.3170731, -20.3658543, -11.5243902, -0.1524071
-0.9194336, 0.2241211, -0.3374023, -4.390244, -18.8414631, -12.5, -0.1654994
-0.9238281, 0.2236328, -0.3398438, -6.1585369, -17.3170738, -13.780488, -0.1735561
-0.9365234, 0.2084961, -0.34375, -6.890244, -16.4634151, -14.2682934, -0.1688563
-0.9467773, 0.2021484, -0.3486328, -8.3536587, -15.3048782, -15.3048782, -0.158114
-0.9731445, 0.1865234, -0.3505859, -9.3292685, -15.1829271, -15.8536587, -0.1349508
-0.9873047, 0.1821289, -0.3515625, -10.7317076, -15.6707325, -16.0365849, -0.1238727
-1.0092773, 0.1572266, -0.3515625, -11.4024391, -16.280489, -15.7317076, -0.1077592
-1.0136719, 0.1503906, -0.355957, -11.8902445, -17.439024, -15.6707325, -0.0852674
-1.0263672, 0.1411133, -0.3754883, -11.7682934, -18.5975609, -15.4878054, -0.0852674
-1.0288086, 0.1503906, -0.3916016, -11.6463413, -21.5243912, -15.3048782, -0.102388
-1.0258789, 0.1577148, -0.3979492, -12.0121956, -23.4146347, -14.8780489, -0.1238727
-1.0126953, 0.1826172, -0.3886719, -12.6219511, -25.7926826, -15, -0.1560998
-1.003418, 0.1953125, -0.3764648, -14.0853662, -27.8048782, -15.2439032, -0.1916838
-0.9780273, 0.1914062, -0.3378906, -14.9390249, -28.1097565, -15.3658543, -0.2151827
-0.9697266, 0.184082, -0.3120117, -16.2195129, -27.1341476, -15.7926836, -0.21149
-0.9580078, 0.1699219, -0.2592773, -16.7682934, -26.4634151, -16.5853653, -0.1869841
-0.9619141, 0.1674805, -0.2392578, -18.2926826, -24.8780499, -17.9268303, -0.1413291
-0.9804688, 0.1552734, -0.2094727, -18.780489, -24.5121956, -17.9878044, -0.0775463
-0.9838867, 0.1376953, -0.2016602, -19.1463413, -23.8414631, -18.6585369, -0.0077211
-0.9814453, 0.0996094, -0.1899414, -19.3902435, -23.2926826, -19.0243912, 0.0574044
-0.9863281, 0.0585938, -0.1708984, -19.0853672, -21.9512196, -19.0243912, 0.1171588
-0.9956055, 0.0429688, -0.1606445, -18.5365849, -21.7073174, -18.8414631, 0.1399863
-1.0009766, 0.0288086, -0.1518555, -16.3414631, -20.9756107, -17.5, 0.1574426
-1.0029297, 0.0341797, -0.152832, -13.4146347, -20.1829281, -15.1219511, 0.1406577
-1.0053711, 0.0566406, -0.1494141, -12.4390249, -19.939024, -14.5731707, 0.0983597
-1.0073242, 0.0698242, -0.1533203, -10.6707315, -19.5121956, -13.0487804, 0.0560616
-0.9975586, 0.1035156, -0.1645508, -10.060976, -18.9024391, -12.1341467, 0.021149
-0.9912109, 0.1162109, -0.1645508, -9.5121956, -17.8658543, -10.9146347, 0.0104067
-0.9746094, 0.1293945, -0.1728516, -8.9024391, -16.4634151, -10.6097565, 0.0157778
-0.9663086, 0.1352539, -0.1787109, -8.780488, -14.2073174, -11.219512, 0.0184634
-0.9682617, 0.1323242, -0.1762695, -8.9024391, -13.0487804, -11.219512, 0.0184634
-0.984375, 0.1210938, -0.2006836, -7.7439027, -10.6707315, -11.0975609, 0.0171206
-0.9960938, 0.1191406, -0.2109375, -7.7439027, -9.7560978, -11.0365858, 0.0251774
-1.0214844, 0.1162109, -0.2280273, -7.2560978, -8.1707315, -10.7317076, 0.0305486
-1.0332031, 0.1220703, -0.2353516, -7.2560978, -7.8658538, -9.3902445, 0.0251774
-1.0429688, 0.1108398, -0.2490234, -7.1951222, -7.4390244, -8.4146347, 0.0070497
-1.0410156, 0.1005859, -0.2504883, -6.890244, -7.8048782, -7.3780489, 0.0036927
-1.0375977, 0.0742188, -0.2573242, -6.5243902, -7.6829271, -7.2560978, -0.0157778
-1.0405273, 0.0581055, -0.2612305, -5.7926831, -7.6829271, -6.8292685, -0.0352483
-1.0522461, 0.043457, -0.2583008, -5.1829271, -7.8048782, -6.6463418, -0.0540475
-1.0600586, 0.043457, -0.2646484, -3.4756098, -8.5975609, -5.4268293, -0.0755322
-1.0673828, 0.0537109, -0.2724609, -2.3170731, -9.3902445, -4.6341462, -0.1070878
-1.0673828, 0.0839844, -0.2719727, -0.2439024, -10.4268293, -2.804878, -0.1188373
-1.0615234, 0.0966797, -0.2773438, 0.3658537, -11.219512, -2.4390244, -0.1255512
-1.0537109, 0.1181641, -0.2861328, 0.3658537, -12.8048782, -2.0731707, -0.1319295
-1.0483398, 0.1337891, -0.2895508, -0.3658537, -13.3536587, -1.7073171, -0.1299153
-1.0390625, 0.1611328, -0.2871094, -0.4878049, -13.1707315, -0.9756098, -0.126894
-1.0332031, 0.1728516, -0.2797852, -0.9756098, -12.560976, -0.4878049, -0.1188373
-1.0229492, 0.1938477, -0.2763672, -1.2804878, -12.7439032, -0.0609756, -0.115816
-1.0185547, 0.2045898, -0.277832, -3.1707318, -13.1707315, 0.1219512, -0.0943313
-0.9936523, 0.2104492, -0.2832031, -4.390244, -13.1097565, -0.1829268, -0.0862745
-0.987793, 0.2060547, -0.2905273, -6.7682929, -12.560976, -1.097561, -0.076875
-0.9697266, 0.1733398, -0.2944336, -7.7439027, -11.8902445, -1.5853659, -0.0728466
-0.9462891, 0.1342773, -0.2827148, -9.0243902, -11.219512, -2.5609756, -0.0681468
-0.940918, 0.1254883, -0.262207, -9.0243902, -10.7926836, -3.0487804, -0.0691539
-0.9482422, 0.1137695, -0.2246094, -9.9390249, -9.3902445, -3.9634147, -0.0594186
-0.9575195, 0.1147461, -0.2265625, -9.6951218, -8.4146347, -3.8414636, -0.0486763
-0.9628906, 0.1254883, -0.2460938, -9.9390249, -7.5609756, -3.6585367, -0.056733
-0.9594727, 0.1240234, -0.2412109, -9.8780489, -5.609756, -2.7439024, -0.0594186
-0.9536133, 0.0947266, -0.2416992, -9.9390249, -4.6951222, -2.5, -0.0654612
-0.9458008, 0.0639648, -0.2509766, -8.9024391, -3.7804878, -2.9268293, -0.0795605
-0.9423828, 0.0366211, -0.2568359, -8.3536587, -3.8414636, -3.0487804, -0.0809033
-0.940918, 0.0410156, -0.2578125, -6.8292685, -4.0243902, -2.3780489, -0.0782177
-0.9379883, 0.065918, -0.2724609, -6.2195125, -4.390244, -1.7682927, -0.0691539
-0.9208984, 0.0878906, -0.2905273, -6.3414636, -3.7804878, -0.2439024, -0.0647898
-0.9091797, 0.0952148, -0.2915039, -7.1341467, -2.3170731, 0.1219512, -0.0580758
-0.8959961, 0.0942383, -0.2900391, -7.5609756, -1.402439, -0.3048781, -0.0547189
-0.8959961, 0.1000977, -0.2919922, -8.3536587, 0.4878049, -0.8536586, -0.06009
-0.902832, 0.1181641, -0.2998047, -8.841464, 1.2804878, -1.097561, -0.0621042
-0.9130859, 0.1230469, -0.2998047, -10, 2.8658538, -1.097561, -0.0587472
-0.9291992, 0.1274414, -0.293457, -10.7317076, 3.9024391, -1.0365853, -0.0580758
-0.9331055, 0.1196289, -0.2856445, -11.341464, 5.9146342, -1.2195122, -0.0654612
-0.9560547, 0.0952148, -0.2797852, -11.4024391, 6.890244, -1.6463414, -0.0678111
-0.9736328, 0.0805664, -0.2817383, -10.6097565, 7.9878049, -2.1341465, -0.066804
-1.0141602, 0.0698242, -0.2905273, -9.8170738, 7.9268293, -2.5, -0.0527047
-1.0488281, 0.0795898, -0.3071289, -8.5365858, 7.0731707, -1.3414634, -0.0433051
-1.0600586, 0.0883789, -0.3198242, -7.5, 5.5487804, 0.4268293, -0.0466621
-1.0620117, 0.097168, -0.3398438, -7.1951222, 4.390244, 1.097561, -0.0570687
-1.0527344, 0.1025391, -0.347168, -6.5853658, 2.8658538, 2.4390244, -0.0621042
-1.0366211, 0.1044922, -0.3681641, -6.7682929, 2.2560976, 2.8658538, -0.0654612
-1.03125, 0.1044922, -0.3740234, -7.0731707, 1.5853659, 2.6219513, -0.0647898
-1.0195312, 0.1010742, -0.3842773, -6.5853658, 1.1585366, 2.4390244, -0.066804
-1.0131836, 0.1010742, -0.3891602, -6.2195125, 0.6097561, 2.0121951, -0.0647898
-0.9980469, 0.0976562, -0.394043, -6.5243902, 0.6097561, 1.8902439, -0.063447
-0.9902344, 0.0913086, -0.3994141, -6.7073174, 0.4268293, 1.8292683, -0.0580758
-0.9726562, 0.0532227, -0.3886719, -6.6463418, 0.4268293, 1.8292683, -0.0503548
-0.9594727, 0.0117188, -0.3671875, -5.7926831, 1.0365853, 1.2804878, -0.0453193
-0.9594727, -0.0068359, -0.359375, -3.2317073, 1.8902439, 0.9756098, -0.0446479
-0.9785156, -0.0102539, -0.3476562, -2.0121951, 2.0731707, 1.2804878, -0.0446479
-0.9892578, -0.0043945, -0.3486328, 0.9146342, 1.7073171, 2.0731707, -0.0540475
-1.0083008, 0.0107422, -0.3481445, 2.195122, 1.4634147, 2.6829269, -0.0627756
-1.0102539, 0.019043, -0.3447266, 4.3292685, 0.7317073, 3.7804878, -0.0852674
-1.0141602, 0.0449219, -0.347168, 5.0609756, 0.1219512, 4.5731707, -0.0943313
-1.0112305, 0.0493164, -0.3417969, 5.9146342, -0.3048781, 5.670732, -0.1144732
-1.0029297, 0.0561523, -0.3295898, 6.5853658, -0.7317073, 5.9756098, -0.1010452
-1.0053711, 0.0664062, -0.3344727, 7.0731707, -1.1585366, 6.5853658, -0.0903029
-1.0029297, 0.0791016, -0.3413086, 6.8292685, -1.402439, 6.7682929, -0.0869459
-0.996582, 0.090332, -0.3457031, 6.5853658, -2.2560976, 7.1341467, -0.0809033
-0.9858398, 0.0976562, -0.340332, 6.0975609, -2.9878049, 7.6829271, -0.070161
-0.9580078, 0.0917969, -0.3320312, 5.9146342, -3.2317073, 8.5365858, -0.0621042
-0.940918, 0.0805664, -0.3369141, 5.4268293, -2.195122, 8.2926826, -0.0406195
-0.9179688, 0.0615234, -0.3349609, 5.3048782, -1.3414634, 7.8658538, -0.0194705
-0.9130859, 0.0522461, -0.3354492, 4.6951222, -0.1219512, 7.2560978, -0.0198062
-0.9101562, 0.0361328, -0.3227539, 4.6951222, 0.3048781, 7.1341467, -0.0130922
-0.9077148, 0.0239258, -0.3139648, 4.7560978, 0.7317073, 7.0121951, -0.0191348
-0.9116211, -0.0063477, -0.2978516, 5.4878049, 1.2804878, 7.0731707, -0.0332341
-0.9106445, -0.0273438, -0.3022461, 8.3536587, 2.7439024, 7.8048782, -0.0486763
-0.9331055, -0.0454102, -0.3085938, 9.6951218, 3.2926829, 8.4146347, -0.0446479
-0.9711914, -0.0048828, -0.2910156, 10.8536587, 3.4756098, 10.1829271, -0.049012
-0.9750977, 0.0141602, -0.2871094, 12.0121956, 2.195122, 12.3780489, -0.0540475
-0.9648438, 0.0273438, -0.2744141, 12.4390249, 2.0731707, 13.0487804, -0.0607614
-0.9541016, 0.0249023, -0.277832, 12.8658543, 1.9512196, 11.9512196, -0.063447
-0.9755859, 0.0429688, -0.2919922, 13.5975609, 2.1341465, 11.5243902, -0.0560616
-0.9824219, 0.0595703, -0.3085938, 14.1463413, 2.2560976, 11.8902445, -0.0560616
-0.996582, 0.0825195, -0.3173828, 14.5731707, 2.0731707, 12.6219511, -0.0285344
-1.0048828, 0.1030273, -0.3251953, 14.0243902, 1.5853659, 13.6585369, 0.0077211
-1.0078125, 0.1508789, -0.3344727, 13.0487804, 1.2195122, 14.1463413, 0.0506905
-1.0058594, 0.1601562, -0.3320312, 11.341464, 0.4268293, 13.841464, 0.0896315
-1.0029297, 0.1582031, -0.3208008, 10.4878054, -0.1219512, 13.4146347, 0.1305867
-0.9882812, 0.1416016, -0.3193359, 8.841464, -0.7317073, 12.7439032, 0.1554284
-0.980957, 0.1274414, -0.3056641, 8.2926826, 0.1829268, 11.4634151, 0.1675135
-0.9794922, 0.1005859, -0.2773438, 8.2317076, 0.4268293, 10.6707315, 0.1621424
-0.9853516, 0.0986328, -0.269043, 8.6585369, 0, 9.3902445, 0.1393149
-1.0102539, 0.1049805, -0.2626953, 8.9634151, -0.3658537, 9.5731707, 0.1346151
-1.0185547, 0.1137695, -0.2680664, 8.3536587, -0.4268293, 11.280488, 0.1225299
-1.0209961, 0.1333008, -0.2680664, 7.5609756, -0.6097561, 11.8902445, 0.0909743
-1.0258789, 0.1416016, -0.2617188, 5.9756098, -0.9756098, 11.9512196, 0.0641184
-1.0112305, 0.1206055, -0.2373047, 5.609756, -1.402439, 11.5853662, 0.0580758
-0.9912109, 0.0820312, -0.246582, 5.609756, -1.4634147, 10.4268293, 0.0453193
-0.9858398, 0.0712891, -0.2597656, 6.4024391, -1.4634147, 9.8780489, 0.0506905
-0.9960938, 0.0805664, -0.2700195, 7.6219516, -1.3414634, 9.8780489, 0.0506905
-1.0053711, 0.109375, -0.2705078, 7.7439027, -2.0121951, 11.219512, 0.0446479
-0.9960938, 0.1606445, -0.2744141, 7.1951222, -2.3170731, 12.0731707, 0.0412909
-0.9858398, 0.1777344, -0.262207, 4.4512196, -2.5609756, 11.4634151, 0.0345769
-0.9667969, 0.1972656, -0.2641602, 2.9878049, -2.1341465, 10.4268293, 0.014435
-0.9667969, 0.1850586, -0.265625, 0.4268293, -1.2804878, 7.1951222, -0.0003357
-0.987793, 0.168457, -0.2651367, -0.2439024, -0.7926829, 6.0975609, -0.0030213
-1.0083008, 0.1621094, -0.2729492, -1.097561, -0.9756098, 5.4268293, -0.0218204
-1.0268555, 0.1640625, -0.2783203, -1.402439, -1.5243902, 6.4024391, -0.0463264
-1.012207, 0.1791992, -0.2880859, -2.1341465, -2.7439024, 7.7439027, -0.0688182
-1.0019531, 0.1850586, -0.2890625, -2.9268293, -3.3536587, 7.7439027, -0.0892958
-0.9853516, 0.1923828, -0.2885742, -4.1463413, -4.6341462, 6.890244, -0.1111162
-0.9760742, 0.1918945, -0.2944336, -6.1585369, -5, 5.670732, -0.1171588
-0.9707031, 0.1865234, -0.2993164, -6.7073174, -4.9390244, 5.5487804, -0.1144732
-0.9716797, 0.1845703, -0.2954102, -8.1097565, -5, 4.8780489, -0.1198444
-0.9672852, 0.1826172, -0.2900391, -8.9024391, -5.1829271, 4.5121951, -0.1185016
-0.9658203, 0.1855469, -0.2856445, -10.4268293, -6.0365853, 3.8414636, -0.1064164
-0.9521484, 0.1884766, -0.2836914, -11.219512, -6.2195125, 3.7195122, -0.0909743
-0.9511719, 0.1987305, -0.2919922, -12.8658543, -6.0365853, 2.6219513, -0.0674754
-0.9511719, 0.2099609, -0.3115234, -14.0853662, -5.7317076, 1.9512196, -0.0231632
-0.9672852, 0.2250977, -0.3305664, -16.6463413, -5.9146342, 1.097561, 0.0117494
-0.9682617, 0.2304688, -0.3466797, -18.4756107, -6.280488, 0.8536586, 0.0352483
-0.9643555, 0.2324219, -0.3544922, -21.5243912, -7.0121951, 0.0609756, 0.0691539
-0.9541016, 0.2275391, -0.355957, -24.8780499, -7.5, -0.7926829, 0.0815747
-0.9379883, 0.1914062, -0.3525391, -26.2195129, -7.5609756, -1.402439, 0.0681468
-0.9287109, 0.171875, -0.3544922, -28.9634151, -7.1341467, -2.804878, 0.0493477
-0.9248047, 0.1279297, -0.340332, -29.8170738, -7.1951222, -3.7804878, 0.049012
-0.9262695, 0.1103516, -0.3320312, -31.1585369, -6.5853658, -4.8780489, 0.03122
-0.9443359, 0.0874023, -0.3417969, -31.7682934, -6.1585369, -5.4878049, 0.0090639
-0.953125, 0.0864258, -0.3530273, -32.7439041, -6.0365853, -5.9756098, -0.0003357
-0.9697266, 0.0883789, -0.3837891, -33.5365868, -6.4634147, -6.0975609, -0.017792
-0.9760742, 0.1171875, -0.4599609, -36.2804871, -9.1463413, -5.4878049, -0.0275273
-0.9716797, 0.1362305, -0.4838867, -39.0853653, -11.4024391, -5.609756, -0.0379339
-0.9375, 0.1625977, -0.5073242, -44.8780479, -16.0365849, -4.8170733, -0.0621042
-0.9003906, 0.1616211, -0.5185547, -49.7560997, -19.2073174, -5.609756, -0.0862745
-0.8208008, 0.1269531, -0.4804688, -52.0731735, -19.3292694, -6.5243902, -0.0916457
-0.7915039, 0.1015625, -0.4609375, -54.8170738, -17.0731716, -9.9390249, -0.0956741
-0.7768555, 0.0585938, -0.4370117, -55.2439041, -15.6097565, -11.5243902, -0.0970169
-0.7915039, 0.0449219, -0.425293, -55.18293, -12.4390249, -13.5975609, -0.0943313
-0.8530273, 0.034668, -0.3911133, -55, -11.4634151, -14.4512196, -0.115816
-0.8847656, 0.0214844, -0.3613281, -53.9634171, -9.9390249, -14.0853662, -0.1346151
-0.9394531, -0.0170898, -0.3334961, -52.4390259, -9.6341467, -13.6585369, -0.1299153
-0.9931641, -0.0488281, -0.3413086, -48.7195129, -10, -12.8658543, -0.1144732
-1.0185547, -0.0566406, -0.3354492, -47.1341476, -10.7317076, -12.0121956, -0.1077592
-1.0737305, -0.059082, -0.3266602, -43.3536606, -13.2926836, -9.9390249, -0.0903029
-1.0932617, -0.0600586, -0.3286133, -38.4146347, -17.560976, -6.2195125, -0.0876173
-1.1015625, -0.0341797, -0.3549805, -35.8536606, -20.1219521, -4.3292685, -0.0795605
-1.0942383, 0.0024414, -0.3803711, -32.8658562, -26.4634151, -1.0365853, -0.0708324
-1.0561523, 0.0859375, -0.4326172, -32.1341476, -29.5121956, -0.4268293, -0.0731823
-1.0322266, 0.1269531, -0.4472656, -33.5975609, -34.5731697, 0.3048781, -0.073518
-0.9677734, 0.1958008, -0.4648438, -34.8170738, -36.4024391, 0.0609756, -0.0933242
-0.9360352, 0.222168, -0.4677734, -37.2560997, -38.1097565, -0.6097561, -0.0950027
-0.8623047, 0.2539062, -0.4296875, -38.841465, -37.7439041, -1.3414634, -0.1040665
-0.8198242, 0.2563477, -0.3666992, -42.3170738, -34.8780479, -3.9634147, -0.1084306
-0.8203125, 0.2519531, -0.3417969, -43.7804871, -33.3536606, -5.8536587, -0.0856031
-0.8417969, 0.2329102, -0.2924805, -45.7317085, -30.6097565, -10.1219511, -0.056733
-0.8583984, 0.2128906, -0.2636719, -47.9268303, -29.7560978, -14.3292685, -0.0218204
-0.8896484, 0.1655273, -0.2148438, -48.1707344, -29.6341476, -15.4878054, 0.0318914
-0.9106445, 0.1367188, -0.1875, -47.3170738, -28.6585369, -17.560976, 0.0936599
-0.9462891, 0.0864258, -0.1416016, -46.5243912, -28.4146347, -17.9268303, 0.1312581
-0.9624023, 0.0688477, -0.1259766, -43.9024391, -26.8292694, -18.0487804, 0.158114
-0.9990234, 0.050293, -0.1162109, -42.7439041, -26.3414631, -17.9268303, 0.1634852
-1.0244141, 0.0488281, -0.1132812, -39.3292694, -25.4878063, -16.8902435, 0.1560998
-1.0507812, 0.046875, -0.1298828, -38.0487823, -25.060976, -15.9146347, 0.1164874
-1.0605469, 0.0463867, -0.1489258, -35.7926826, -25, -13.780488, 0.0856031
-1.0581055, 0.0439453, -0.1577148, -35.2439041, -25.3048782, -12.7439032, 0.0520333
-1.0463867, 0.0454102, -0.1762695, -33.7195129, -26.1585369, -11.8902445, 0.0083925
-1.0361328, 0.0449219, -0.1894531, -32.1341476, -27.4390259, -11.280488, -0.0167849
-1.0161133, 0.0512695, -0.2177734, -31.5243912, -27.560976, -11.280488, -0.0352483
-1.0019531, 0.0610352, -0.2280273, -31.7682934, -26.9512196, -9.7560978, -0.0513619
-0.9814453, 0.0859375, -0.2407227, -32.0121956, -26.1585369, -9.1463413, -0.0503548
-0.9707031, 0.0986328, -0.2412109, -32.9878044, -24.2073174, -8.5365858, -0.0359197
-0.9584961, 0.1040039, -0.2451172, -32.9878044, -22.8048782, -8.719512, -0.0392767
-0.9580078, 0.1049805, -0.2548828, -32.8658562, -20.8536587, -10.4878054, -0.0392767
-0.96875, 0.1118164, -0.2788086, -32.5609779, -20.3048782, -11.5853662, -0.0419623
-0.9897461, 0.1201172, -0.2915039, -31.6463413, -19.5121956, -11.9512196, -0.0436408
-0.9946289, 0.1132812, -0.2958984, -32.0121956, -18.6585369, -11.0975609, -0.0459907
-1.003418, 0.0869141, -0.2880859, -31.9512196, -18.5975609, -10.7317076, -0.0547189
-0.9970703, 0.074707, -0.2729492, -32.3780479, -18.5975609, -10.1219511, -0.063447
-0.9985352, 0.0336914, -0.2216797, -32.4390259, -18.7195129, -9.6951218, -0.0802319
-0.9975586, 0.0175781, -0.1933594, -31.1585369, -17.9878044, -8.780488, -0.0788891
-0.996582, -0.0136719, -0.15625, -29.6341476, -17.2560978, -8.780488, -0.0782177
-1.0024414, -0.0249023, -0.1479492, -25.7926826, -16.0975609, -8.6585369, -0.0862745
-1.0229492, -0.0292969, -0.1503906, -23.1707325, -15.4268293, -8.0487804, -0.1003738
-1.0234375, -0.0273438, -0.1582031, -18.9634151, -14.0853662, -7.3170733, -0.1037308
-1.0336914, -0.0019531, -0.1850586, -17.0731716, -13.2926836, -6.6463418, -0.1117876
-1.0517578, 0.0395508, -0.2192383, -13.2926836, -12.6829271, -5.5487804, -0.1178302
-1.0507812, 0.0722656, -0.2338867, -10.7926836, -12.0121956, -3.4756098, -0.119173
-1.0571289, 0.1269531, -0.2646484, -10.3048782, -12.2560978, -2.6219513, -0.1285725
-1.0537109, 0.1484375, -0.2773438, -10.4268293, -11.8292685, -0.9756098, -0.1359579
-1.0507812, 0.1845703, -0.296875, -11.0365858, -11.8902445, -0.8536586, -0.1252155
-1.0473633, 0.1923828, -0.3076172, -12.2560978, -12.0121956, -0.8536586, -0.1272297
-1.0327148, 0.190918, -0.3208008, -13.0487804, -11.9512196, -0.9756098, -0.1265583
-1.0234375, 0.1826172, -0.3237305, -13.9024391, -11.8292685, -1.5853659, -0.1067521
-1.0131836, 0.1611328, -0.3212891, -14.5121956, -11.6463413, -1.8292683, -0.0815747
-1.0146484, 0.1450195, -0.3154297, -14.8780489, -11.8292685, -2.5, -0.0674754
-1.0146484, 0.1147461, -0.3051758, -14.6951227, -11.7682934, -2.6219513, -0.0641184
-1.0146484, 0.0952148, -0.3046875, -13.780488, -11.7073174, -2.804878, -0.0627756
-1.015625, 0.0878906, -0.3085938, -13.2317076, -11.7073174, -2.0731707, -0.0651255
-1.0126953, 0.0913086, -0.2973633, -12.8658543, -11.8902445, -1.7073171, -0.0540475
-1.0170898, 0.0952148, -0.2915039, -13.2926836, -12.0731707, -0.2439024, -0.0594186
-1.0092773, 0.0986328, -0.2768555, -13.2317076, -12.3170738, 0.2439024, -0.0849317
-0.9985352, 0.0961914, -0.2709961, -12.3170738, -11.8292685, 1.1585366, -0.1326009
-0.980957, 0.1030273, -0.2592773, -11.9512196, -11.8902445, 1.2804878, -0.1594568
-0.9814453, 0.1040039, -0.2543945, -11.341464, -11.280488, 0.9756098, -0.1587854
-0.9770508, 0.1298828, -0.237793, -11.0365858, -10.9756098, 0.9756098, -0.1500572
-0.9760742, 0.1435547, -0.2392578, -11.0365858, -9.9390249, 0.4878049, -0.115816
-0.9770508, 0.1660156, -0.2431641, -10.9146347, -9.4512196, 0.3048781, -0.0809033
-0.9760742, 0.1811523, -0.2314453, -12.1341467, -9.0853662, -0.5487805, -0.0433051
-0.9785156, 0.1894531, -0.2294922, -12.9268293, -8.4146347, -1.7073171, 0.0090639
-0.9746094, 0.1928711, -0.2446289, -12.3780489, -8.1097565, -2.3780489, 0.0560616
-0.9741211, 0.1870117, -0.2548828, -13.3536587, -7.5, -3.0487804, 0.0610971
-0.9736328, 0.1699219, -0.2568359, -14.0243902, -7.3780489, -3.5365853, 0.0694896
-0.980957, 0.1572266, -0.2509766, -15.7926836, -6.4634147, -4.3292685, 0.0715038
-0.9916992, 0.121582, -0.2368164, -16.2195129, -5.8536587, -4.5121951, 0.0533761
-0.9995117, 0.109375, -0.2338867, -15.4268293, -5.1219511, -4.5731707, 0.0332341
-1.0117188, 0.0805664, -0.2456055, -14.8780489, -5.0609756, -4.8170733, 0.0164492
-1.0200195, 0.0703125, -0.2456055, -14.3902445, -5.3048782, -4.5731707, 0.0063783
-1.0351562, 0.0566406, -0.2480469, -14.4512196, -5.1829271, -4.3292685, -0.0137636
-1.0463867, 0.0683594, -0.2529297, -14.2073174, -5.5487804, -3.1707318, -0.0352483
-1.0522461, 0.0742188, -0.253418, -14.2682934, -5.9756098, -1.402439, -0.0553902
-1.0478516, 0.0961914, -0.2729492, -14.6341467, -6.280488, -0.6097561, -0.0809033
-1.0454102, 0.0966797, -0.2827148, -17.0731716, -6.8292685, 0.7317073, -0.0755322
-1.0361328, 0.0947266, -0.2895508, -18.1097565, -6.7682929, 1.2195122, -0.0889601
-1.0395508, 0.0888672, -0.2915039, -20.5487804, -6.7682929, 1.6463414, -0.1077592
-1.0332031, 0.074707, -0.2875977, -21.280489, -7.1341467, 2.1341465, -0.1265583
-1.0273438, 0.0629883, -0.2851562, -21.4024391, -7.8048782, 2.804878, -0.1399863
-1.0249023, 0.0366211, -0.2885742, -20.6707325, -8.4146347, 3.0487804, -0.1587854
-1.0283203, 0.0258789, -0.2866211, -18.4756107, -9.3902445, 3.9024391, -0.1634852
-1.0229492, 0.0102539, -0.28125, -17.560976, -9.6951218, 4.2682929, -0.1540856
-1.0253906, 0.0048828, -0.2758789, -15.2439032, -10.4268293, 5.1829271, -0.1507286
-1.03125, 0.0009766, -0.2744141, -12.8658543, -11.9512196, 7.0121951, -0.1534142
-1.0273438, 0.0024414, -0.2827148, -11.8902445, -12.7439032, 8.0487804, -0.161471
-1.0249023, 0.0029297, -0.2866211, -10.060976, -13.841464, 10.2439022, -0.1534142
-1.0087891, 0.0092773, -0.2988281, -9.0853662, -14.9390249, 11.219512, -0.1467002
-0.9985352, 0.0180664, -0.3012695, -7.8658538, -16.8902435, 13.1707315, -0.1453574
-0.9755859, 0.0498047, -0.3017578, -7.3780489, -17.560976, 13.7195129, -0.1413291
-0.9672852, 0.0708008, -0.2958984, -7.5, -19.0243912, 15, -0.1540856
-0.9399414, 0.112793, -0.2753906, -7.8658538, -19.3292694, 15.6707325, -0.161471
-0.9072266, 0.1435547, -0.2573242, -9.0243902, -19.2682934, 15.9756098, -0.1829557
-0.8969727, 0.1533203, -0.246582, -9.6341467, -19.1463413, 15.5487804, -0.1883268
-0.8950195, 0.1420898, -0.2436523, -11.8292685, -19.0853672, 13.7195129, -0.1762417
-0.8930664, 0.1318359, -0.2421875, -13.4756098, -18.4756107, 11.5853662, -0.1735561
-0.9067383, 0.1030273, -0.2412109, -14.3902445, -17.6219521, 10.6707315, -0.1842985
-0.9228516, 0.0922852, -0.2456055, -15.9146347, -17.8048782, 9.2073174, -0.1715419
-0.9433594, 0.0605469, -0.2573242, -15.9756098, -18.2926826, 9.6341467, -0.1493858
-0.9570312, 0.0537109, -0.2666016, -15.5487804, -19.1463413, 10.9756098, -0.1339437
-0.9765625, 0.0683594, -0.2739258, -16.1585369, -18.780489, 12.0731707, -0.1292439
-0.9765625, 0.081543, -0.2753906, -17.0731716, -18.6585369, 13.1707315, -0.1319295
-0.9912109, 0.1044922, -0.2915039, -17.8048782, -19.0243912, 13.1707315, -0.148043
-1.0087891, 0.1225586, -0.3051758, -18.5365849, -20.1829281, 12.6829271, -0.1661707
-1.0161133, 0.1323242, -0.3115234, -18.9024391, -20.8536587, 12.5, -0.1534142
-1.0317383, 0.1455078, -0.315918, -19.939024, -22.0121956, 12.6219511, -0.1258869
-1.0410156, 0.1547852, -0.3198242, -21.0365868, -24.0243912, 13.4756098, -0.0815747
-1.0405273, 0.1665039, -0.2988281, -21.8902435, -25.1829281, 14.3292685, -0.0198062
-1.0375977, 0.1733398, -0.2861328, -23.1097565, -26.9512196, 15.4268293, 0.0359197
-1.0219727, 0.1791992, -0.2797852, -23.2317085, -27.3780499, 15.4268293, 0.0876173
-1.0078125, 0.1772461, -0.2788086, -23.780489, -28.9024391, 15, 0.1326009
-0.9833984, 0.1611328, -0.2768555, -24.0243912, -29.4512196, 14.3902445, 0.1594568
-0.9770508, 0.1518555, -0.2739258, -25.2439022, -30.6707325, 12.8658543, 0.1701991
-0.9770508, 0.1455078, -0.2543945, -25.7317085, -31.0975609, 12.1951218, 0.1601282
-0.9692383, 0.1352539, -0.2436523, -25.4268303, -32.5609779, 11.6463413, 0.1393149
-0.965332, 0.1333008, -0.246582, -25.2439022, -32.7439041, 11.8292685, 0.1238727
-0.9663086, 0.1416016, -0.2539062, -24.6951218, -32.9878044, 12.0121956, 0.0903029
-0.9638672, 0.1416016, -0.2558594, -25.1219521, -32.9878044, 11.0365858, 0.0856031
-0.9702148, 0.1391602, -0.2446289, -25.4878063, -33.2317085, 10.1829271, 0.0718395
-0.9682617, 0.1303711, -0.2363281, -25.060976, -34.1463432, 8.3536587, 0.06009
-0.9819336, 0.1303711, -0.2226562, -24.5121956, -34.5731697, 7.8048782, 0.0661326
-0.9863281, 0.1303711, -0.2211914, -24.4512196, -34.6951218, 7.5, 0.0574044
-0.996582, 0.1381836, -0.222168, -23.780489, -35.0609779, 7.6829271, 0.0543832
-0.9995117, 0.1479492, -0.2236328, -23.6585369, -35.2439041, 7.2560978, 0.0527047
-1.0004883, 0.1606445, -0.2255859, -24.0243912, -35.4878044, 7.0731707, 0.0372625
-1.0039062, 0.171875, -0.2294922, -23.8414631, -35.3658562, 6.3414636, 0.0238346
-1.0053711, 0.1787109, -0.2290039, -24.5121956, -35.4878044, 5.9756098, 0.017792
-1.0175781, 0.1816406, -0.2382812, -25.3048782, -35.7317085, 4.8780489, 0.0097353
-1.0214844, 0.1811523, -0.2416992, -26.5243912, -36.341465, 4.3292685, -0.0010071
-1.0209961, 0.1713867, -0.2416992, -27.0731716, -36.5243912, 4.2073174, -0.010071
-1.0200195, 0.1660156, -0.2363281, -28.0487804, -37.1951218, 4.0853658, -0.0325628
-1.0078125, 0.1518555, -0.2270508, -28.841465, -37.2560997, 4.1463413, -0.0557259
-1.0097656, 0.1435547, -0.2177734, -29.5731716, -36.9512215, 3.4756098, -0.0728466
-1.0102539, 0.1308594, -0.2036133, -29.5731716, -36.8292694, 3.0487804, -0.0829175
-1.0141602, 0.1303711, -0.1948242, -29.2682934, -36.7682953, 2.3780489, -0.0919814
-1.0185547, 0.1259766, -0.1767578, -28.5975609, -36.5853653, 2.0731707, -0.0929885
-1.0166016, 0.128418, -0.1772461, -28.5975609, -36.0975609, 2.2560976, -0.0896315
-1.0146484, 0.128418, -0.1796875, -27.8658543, -35.7317085, 2.4390244, -0.0822461
-1.0014648, 0.1376953, -0.1826172, -27.9268303, -35.1219521, 3.1707318, -0.0785534
-0.9985352, 0.1420898, -0.1850586, -27.8048782, -34.8170738, 2.9878049, -0.0674754
-0.9921875, 0.1469727, -0.1806641, -27.8658543, -35.0609779, 2.804878, -0.0493477
-0.9921875, 0.1484375, -0.1713867, -27.8048782, -34.2073174, 2.5, -0.0453193
-0.987793, 0.1474609, -0.1518555, -27.9268303, -33.4146347, 2.2560976, -0.0345769
-0.9912109, 0.1464844, -0.1450195, -27.0731716, -31.8292694, 1.402439, -0.0258488
-0.9936523, 0.1484375, -0.1411133, -26.8292694, -30.9146347, 0.7317073, -0.0124208
-0.9936523, 0.1469727, -0.1411133, -26.5243912, -30.4268303, -0.2439024, -0.0164492
-1.0039062, 0.1342773, -0.1318359, -26.5243912, -30.4268303, -0.3048781, -0.0070497
-1.0014648, 0.1279297, -0.1186523, -26.2195129, -30.060976, -0.0609756, -0.0043641
-1.0024414, 0.1230469, -0.1147461, -26.4634151, -29.6951218, 0.0609756, -0.0151064
-0.9916992, 0.1152344, -0.1064453, -26.1585369, -27.5, 1.4634147, -0.0003357
-0.9858398, 0.1108398, -0.1040039, -25.060976, -25.7926826, 1.4634147, -0.0016785
-0.9863281, 0.1083984, -0.1054688, -23.9634151, -24.9390259, 1.3414634, -0.0114137
-0.9887695, 0.1152344, -0.1103516, -22.8048782, -23.5975609, 0.4878049, -0.0104067
-1.0102539, 0.1328125, -0.1240234, -22.6829281, -22.9878063, 0.6097561, -0.0181277
-1.0151367, 0.1435547, -0.1318359, -22.439024, -21.6463413, 0.5487805, -0.0191348
-1.0249023, 0.1484375, -0.1538086, -22.8658543, -21.0365868, 0.5487805, -0.0070497
-1.0263672, 0.1435547, -0.1630859, -24.2073174, -20.3658543, 1.2195122, -0.0016785
-1.0244141, 0.1147461, -0.1743164, -24.5731716, -19.939024, 1.2804878, 0.0050355
-1.0229492, 0.090332, -0.1557617, -25.4268303, -19.5121956, 1.6463414, -0.0030213
-1.0268555, 0.0791016, -0.1450195, -25.3048782, -19.2073174, 1.8292683, -0.0077211
-1.0322266, 0.0732422, -0.1269531, -23.9024391, -18.780489, 1.8902439, -0.0151064
-1.034668, 0.0786133, -0.128418, -21.7682934, -17.560976, 2.3780489, -0.0265202
-1.0458984, 0.1069336, -0.1328125, -20.8536587, -16.8902435, 3.2317073, -0.014435
-1.046875, 0.1152344, -0.1455078, -19.6341476, -16.0365849, 3.6585367, -0.0057069
-1.0400391, 0.1274414, -0.1811523, -19.4512196, -15.7926836, 4.5121951, -0.0154421
-1.0283203, 0.1308594, -0.1928711, -20.4268303, -15.3658543, 4.3292685, -0.0157778
-1.0322266, 0.1308594, -0.2026367, -21.4634151, -15.4268293, 4.0853658, -0.0231632
-1.0292969, 0.128418, -0.2036133, -22.6829281, -15.8536587, 4.1463413, -0.0345769
-1.0195312, 0.1210938, -0.2104492, -23.1707325, -15.7926836, 4.1463413, -0.0419623
-1.0214844, 0.1108398, -0.2250977, -23.6585369, -15.2439032, 4.2682929, -0.0298772
-1.0170898, 0.1132812, -0.2285156, -24.9390259, -15.4878054, 4.3292685, -0.0339055
-1.0219727, 0.1103516, -0.2246094, -25.6097565, -15.6097565, 4.1463413, -0.0500191
-1.0253906, 0.1069336, -0.2148438, -26.5243912, -16.280489, 3.7195122, -0.06009
-1.0258789, 0.0957031, -0.2158203, -26.0975609, -16.0975609, 3.6585367, -0.0782177
-1.0258789, 0.0927734, -0.2167969, -25.1219521, -16.7073174, 3.5975611, -0.0869459
-1.0307617, 0.0996094, -0.2250977, -25.4878063, -16.5853653, 3.2317073, -0.0990311
-1.0415039, 0.1123047, -0.2270508, -24.9390259, -17.0121956, 2.8658538, -0.1319295
-1.0463867, 0.1235352, -0.2387695, -25.060976, -17.3780499, 3.2317073, -0.1654994
-1.0429688, 0.125, -0.2387695, -25.4878063, -18.1707325, 4.0243902, -0.1668421
-1.0307617, 0.1318359, -0.2275391, -25.7926826, -18.3536587, 4.0853658, -0.1735561
-1.0175781, 0.1254883, -0.2114258, -26.2195129, -19.0853672, 3.9634147, -0.1651637
-1.0126953, 0.125, -0.2060547, -25.9146347, -19.3902435, 3.1097562, -0.1678492
-1.0053711, 0.1206055, -0.2124023, -25.6707325, -19.1463413, 2.9878049, -0.1889982
-0.996582, 0.1210938, -0.2119141, -25.1219521, -19.6951218, 2.7439024, -0.207126
-1.0068359, 0.1118164, -0.1489258, -25.7926826, -21.280489, 2.8658538, -0.207126
-0.9980469, 0.0864258, -0.1420898, -27.0731716, -25.3658543, 3.4146342, -0.1842985
-0.9389648, -0.0058594, -0.2333984, -25, -24.0853672, 4.6341462, -0.1393149
-0.9125977, -0.019043, -0.2421875, -21.7073174, -19.939024, 6.5243902, -0.0929885
-0.8959961, 0.0488281, -0.2045898, -22.9268303, -16.9512196, 4.9390244, -0.0500191
-0.9257812, 0.0629883, -0.1621094, -26.6463413, -15.7317076, -1.5853659, 0.0020142
-1.019043, 0.0449219, -0.1240234, -25.7317085, -18.6585369, -1.9512196, 0.0574044
-0.9873047, 0.0761719, -0.1098633, -20.4268303, -21.8292694, 5.3048782, 0.1178302
-0.9467773, 0.1098633, -0.0917969, -22.0731716, -17.439024, 7.1951222, 0.1607996
-0.9467773, 0.1591797, -0.0708008, -23.2926826, -15.1829271, 5.1829271, 0.1594568
-0.9682617, 0.168457, -0.0869141, -20.6707325, -14.6341467, 2.1341465, 0.1527428
-0.9790039, 0.1591797, -0.1586914, -18.9024391, -15.4268293, 1.5853659, 0.1413291
-0.984375, 0.1523438, -0.1787109, -20.3658543, -15.1219511, 2.3170731, 0.1050736
-1.0024414, 0.1503906, -0.1650391, -22.3170738, -14.5121956, 2.8658538, 0.0748608
-1.0112305, 0.1479492, -0.1425781, -23.6585369, -14.5121956, 4.0243902, 0.0520333
-1.012207, 0.1367188, -0.1240234, -22.560976, -15.3048782, 4.6951222, 0.0359197
-1.0048828, 0.1313477, -0.1347656, -19.8170738, -14.6341467, 4.7560978, 0.03122
-1, 0.1298828, -0.1538086, -19.4512196, -13.780488, 4.0853658, 0.0130922
-1.0229492, 0.1220703, -0.1616211, -20, -12.7439032, 2.1341465, 0.0023499
-1.0405273, 0.125, -0.159668, -19.5121956, -13.1707315, 1.7682927, 0.0090639
-1.050293, 0.1269531, -0.1616211, -18.780489, -13.1707315, 2.3170731, -0.0036927
-1.046875, 0.1259766, -0.1713867, -18.2317085, -12.0731707, 3.5975611, -0.0090639
-1.0205078, 0.1225586, -0.1899414, -17.9878044, -11.7682934, 4.2682929, -0.0271916
-1.0087891, 0.1123047, -0.1992188, -18.7195129, -11.5853662, 3.9634147, -0.0342412
-0.9833984, 0.0947266, -0.1767578, -19.4512196, -11.8292685, 4.0243902, -0.0365911
-0.96875, 0.0878906, -0.1552734, -19.3292694, -11.6463413, 3.7804878, -0.0527047
-0.9482422, 0.0878906, -0.121582, -18.5365849, -10.5487804, 3.5975611, -0.0647898
-0.9438477, 0.09375, -0.1083984, -16.280489, -7.6219516, 2.3170731, -0.0755322
-0.9414062, 0.1074219, -0.097168, -15.1829271, -6.1585369, 1.5853659, -0.0889601
-0.9438477, 0.1225586, -0.1030273, -14.3902445, -4.4512196, 0.3048781, -0.0815747
-0.9462891, 0.128418, -0.1079102, -13.9024391, -3.1097562, -0.4268293, -0.070161
-0.9511719, 0.1337891, -0.121582, -14.0243902, -1.8292683, -0.3048781, -0.0802319
-0.9506836, 0.1376953, -0.1279297, -14.2073174, 0.3048781, 0.4268293, -0.0909743
-0.9536133, 0.1318359, -0.1269531, -14.5121956, 1.097561, 0.9146342, -0.0970169
-0.9545898, 0.1220703, -0.1235352, -15.1219511, 2.6829269, 0.7317073, -0.0983597
-0.9536133, 0.1142578, -0.0981445, -15.3048782, 3.1097562, 0.5487805, -0.102388
-0.9584961, 0.1118164, -0.0927734, -13.5365858, 4.6341462, -0.1219512, -0.0943313
-0.980957, 0.1191406, -0.1010742, -11.8902445, 5.4878049, -0.4268293, -0.0896315
-0.9970703, 0.1254883, -0.1269531, -8.5365858, 6.5853658, -0.3048781, -0.0929885
-1.0263672, 0.1357422, -0.1791992, -7.1951222, 6.890244, -0.4878049, -0.0903029
-1.046875, 0.1416016, -0.2280273, -6.7682929, 7.1341467, 0.0609756, -0.0976883
-1.0551758, 0.1425781, -0.2426758, -7.2560978, 6.8292685, 0.5487805, -0.1111162
-1.0698242, 0.1367188, -0.2592773, -7.8048782, 6.6463418, 1.2195122, -0.1080949
-1.0712891, 0.128418, -0.2626953, -7.7439027, 5.609756, 1.7073171, -0.0983597
-1.0698242, 0.1166992, -0.2734375, -7.8658538, 5.1219511, 1.6463414, -0.1164874
-1.0668945, 0.1118164, -0.2714844, -7.7439027, 4.2073174, 1.8292683, -0.1111162
-1.0629883, 0.1088867, -0.2729492, -7.5609756, 3.6585367, 1.7682927, -0.112459
-1.0629883, 0.1103516, -0.2773438, -7.0731707, 2.7439024, 2.0731707, -0.1037308
-1.0576172, 0.121582, -0.2866211, -6.5243902, 2.195122, 2.0731707, -0.0960098
-1.0454102, 0.1289062, -0.2983398, -6.4024391, 1.7073171, 2.3780489, -0.0862745
-1.0317383, 0.1342773, -0.2963867, -6.4024391, 1.4634147, 2.6219513, -0.073518
-1.0146484, 0.1381836, -0.2861328, -7.3170733, 1.0365853, 2.5, -0.0674754
-1.0058594, 0.1416016, -0.2768555, -7.7439027, 0.3048781, 1.5853659, -0.0443122
-0.9887695, 0.1494141, -0.2592773, -7.5, 0.3658537, 1.2804878, -0.024506
-0.980957, 0.159668, -0.2553711, -7.5609756, 1.0365853, 0.4878049, -0.024506
-0.9643555, 0.1713867, -0.2641602, -7.8048782, 1.2804878, 0.1829268, -0.0137636
-0.9638672, 0.1811523, -0.2744141, -8.3536587, 2.1341465, -1.0365853, -0.0057069
-0.9555664, 0.1918945, -0.2998047, -9.0853662, 2.195122, -1.5853659, -0.0023499
-0.9555664, 0.1938477, -0.3100586, -11.0975609, 2.2560976, -3.2317073, 0.0224918
-0.9555664, 0.1879883, -0.3139648, -12.7439032, 1.9512196, -3.4756098, 0.0520333
-0.9594727, 0.1694336, -0.3085938, -14.3292685, 1.8292683, -4.7560978, 0.0543832
-0.9589844, 0.159668, -0.3076172, -15.060976, 1.4634147, -5.3048782, 0.0621042
-0.9589844, 0.1391602, -0.3105469, -15.8536587, 1.4634147, -6.0975609, 0.0610971
-0.9624023, 0.1318359, -0.3129883, -15.7317076, 1.2804878, -7.2560978, 0.042298
-0.9648438, 0.112793, -0.3105469, -15.6707325, 1.4634147, -7.7439027, 0.0157778
-0.9633789, 0.109375, -0.3056641, -14.9390249, 0.9146342, -8.2926826, 0.0036927
-0.9707031, 0.0952148, -0.2958984, -14.6341467, 0.5487805, -8.4146347, -0.021149
-0.9799805, 0.097168, -0.2929688, -12.9268293, 0.0609756, -8.3536587, -0.0540475
-0.9790039, 0.1015625, -0.2890625, -12.3170738, -0.3048781, -7.9878049, -0.0849317
-0.9755859, 0.1044922, -0.2895508, -10.9146347, -0.2439024, -7.1951222, -0.0892958
-0.9702148, 0.121582, -0.2973633, -10.2439022, -0.3658537, -6.8292685, -0.0923171
-0.9594727, 0.1396484, -0.3105469, -9.6951218, -1.0365853, -6.5853658, -0.0782177
-0.9516602, 0.1459961, -0.3173828, -9.6341467, -1.5853659, -6.5853658, -0.0584115
-0.9350586, 0.1503906, -0.3251953, -9.5121956, -1.9512196, -7.3170733, -0.0339055
-0.9204102, 0.1484375, -0.3198242, -9.6951218, -2.804878, -8.2317076, -0.0285344
-0.925293, 0.1455078, -0.3110352, -9.6951218, -2.9878049, -8.3536587, -0.0325628
-0.9199219, 0.1416016, -0.3076172, -9.3902445, -3.5975611, -9.2073174, -0.0271916
-0.9233398, 0.1416016, -0.3056641, -9.1463413, -3.5365853, -9.5121956, -0.0372625
-0.921875, 0.140625, -0.3085938, -8.2926826, -3.2926829, -9.9390249, -0.0553902
-0.9248047, 0.1342773, -0.3212891, -8.3536587, -3.2317073, -10.060976, -0.076875
-0.9272461, 0.1259766, -0.3203125, -8.5365858, -3.4146342, -10.9146347, -0.0970169
-0.9272461, 0.1171875, -0.3227539, -8.719512, -3.5365853, -11.280488, -0.0983597
-0.9355469, 0.1108398, -0.324707, -8.780488, -4.1463413, -11.280488, -0.1010452
-0.9360352, 0.109375, -0.3242188, -8.841464, -4.2682929, -11.280488, -0.1141375
-0.9301758, 0.1064453, -0.3193359, -9.0853662, -4.6951222, -10.7926836, -0.1238727
-0.9296875, 0.1166992, -0.315918, -9.2682924, -4.6341462, -10.6097565, -0.1121233
-0.9287109, 0.1196289, -0.3051758, -9.3292685, -4.390244, -10.5487804, -0.1077592
-0.9243164, 0.1186523, -0.3081055, -9.8170738, -4.2682929, -10.3048782, -0.1010452
-0.9243164, 0.121582, -0.3139648, -9.9390249, -4.2073174, -10.9756098, -0.0728466
-0.9228516, 0.1259766, -0.3208008, -10.6707315, -4.4512196, -11.280488, -0.0500191
-0.9169922, 0.1157227, -0.331543, -11.219512, -4.5731707, -11.341464, -0.0433051
-0.9125977, 0.1147461, -0.3305664, -12.9878054, -5, -11.4024391, -0.0285344
-0.9077148, 0.1035156, -0.3212891, -13.3536587, -5.2439027, -11.4634151, -0.0386053
-0.9106445, 0.1030273, -0.3144531, -13.9024391, -5.4268293, -11.341464, -0.0580758
-0.9125977, 0.1025391, -0.3173828, -14.2073174, -5.3048782, -11.4634151, -0.0476692
-0.9091797, 0.1010742, -0.3256836, -14.8780489, -5.3048782, -11.8292685, -0.0419623
-0.9082031, 0.0996094, -0.328125, -15.6707325, -5.4268293, -12.1951218, -0.0406195
-0.9204102, 0.0996094, -0.3300781, -15.9146347, -5.3658538, -12.560976, -0.0500191
-0.9189453, 0.0981445, -0.3339844, -16.5243912, -5.5487804, -12.560976, -0.0500191
-0.9238281, 0.0932617, -0.3388672, -16.9512196, -5.3658538, -12.5, -0.0486763
-0.9223633, 0.090332, -0.3330078, -18.4146347, -5.1829271, -12.560976, -0.0446479
-0.9301758, 0.0864258, -0.3125, -19.2682934, -4.7560978, -12.8048782, -0.0406195
-0.934082, 0.0849609, -0.3007812, -20.1829281, -5.1829271, -12.8048782, -0.0463264
-0.9365234, 0.078125, -0.2827148, -20.3048782, -4.9390244, -12.6219511, -0.0587472
-0.9306641, 0.0922852, -0.2666016, -19.3902435, -4.5121951, -11.5853662, -0.0584115
-0.9248047, 0.1005859, -0.2612305, -19.2073174, -3.9024391, -11.1585369, -0.0466621
-0.9160156, 0.1108398, -0.2675781, -19.2073174, -2.5609756, -11.280488, -0.0359197
-0.9106445, 0.1123047, -0.2792969, -20.1219521, -1.4634147, -11.5853662, -0.0258488
-0.9091797, 0.1235352, -0.2822266, -20.7926826, -0.7926829, -11.9512196, -0.0191348
-0.9057617, 0.1220703, -0.2797852, -22.5, 0.2439024, -12.3780489, -0.0157778
-0.9111328, 0.1225586, -0.2700195, -23.2317085, 0.3658537, -12.560976, -0.0057069
-0.909668, 0.1186523, -0.2709961, -23.9634151, 1.5853659, -12.9268293, 0.0117494
-0.9072266, 0.1098633, -0.2709961, -24.2682934, 1.9512196, -13.5975609, 0.0184634
-0.9072266, 0.1020508, -0.2729492, -24.6341476, 2.8658538, -14.1463413, 0.0198062
-0.9135742, 0.0874023, -0.2797852, -25, 3.2317073, -14.3902445, 0.0154421
-0.9316406, 0.074707, -0.28125, -25.3048782, 4.0243902, -14.8170738, 0.0063783
-0.9458008, 0.0649414, -0.2880859, -25.5487804, 4.6951222, -14.6341467, 0.0124208
-0.9575195, 0.0625, -0.2978516, -24.9390259, 5.1219511, -14.2073174, 0.0198062
-0.9628906, 0.0600586, -0.3061523, -24.8170738, 4.9390244, -13.7195129, 0.0050355
-0.9736328, 0.0683594, -0.3125, -24.9390259, 5.0609756, -13.0487804, -0.0070497
-0.9731445, 0.074707, -0.3203125, -25.3658543, 4.6951222, -12.5, -0.0151064
-0.9726562, 0.0756836, -0.3276367, -25.6097565, 4.3292685, -12.3170738, -0.0191348
-0.9746094, 0.0756836, -0.3344727, -26.4634151, 3.7195122, -11.8902445, -0.0298772
-0.9750977, 0.0737305, -0.3413086, -26.9512196, 3.4146342, -12.1951218, -0.0231632
-0.9785156, 0.0751953, -0.3417969, -27.9878063, 2.9878049, -11.9512196, -0.014435
-0.9804688, 0.0732422, -0.3457031, -28.3536587, 2.5609756, -11.5243902, -0.017792
-0.9794922, 0.0698242, -0.3540039, -29.0243912, 2.0121951, -11.4634151, -0.0151064
-0.984375, 0.0722656, -0.3525391, -29.8780499, 1.0365853, -11.5243902, -0.0050355
-0.987793, 0.0708008, -0.3486328, -29.5731716, 0.7926829, -11.5853662, -0.011078
-0.987793, 0.0717773, -0.3432617, -30.060976, -0.0609756, -11.4024391, -0.011078
-0.9882812, 0.0795898, -0.3369141, -29.8170738, -0.4268293, -11.4024391, 0.0097353
-0.9882812, 0.0805664, -0.3378906, -30.5487804, -1.3414634, -11.1585369, 0.0117494
-0.9907227, 0.0839844, -0.3300781, -30.6707325, -1.7073171, -11.0365858, 0.0231632
-0.9882812, 0.0893555, -0.324707, -30.7926846, -2.7439024, -10.7926836, 0.0305486
-0.9824219, 0.0961914, -0.3183594, -30.8536587, -3.4756098, -10.3658543, 0.0412909
-0.9794922, 0.0986328, -0.3168945, -31.4634151, -3.7804878, -9.7560978, 0.0419623
-0.972168, 0.1025391, -0.3100586, -31.7682934, -4.0853658, -9.6341467, 0.0315557
-0.9638672, 0.0976562, -0.3076172, -32.8658562, -4.4512196, -9.8780489, 0.0184634
-0.9589844, 0.0957031, -0.3007812, -33.4756088, -4.5731707, -10.2439022, 0.0137636
-0.956543, 0.090332, -0.2939453, -33.9634171, -4.5731707, -10.3048782, 0.0184634
-0.9545898, 0.0869141, -0.2851562, -34.6951218, -4.9390244, -10.3048782, 0.0184634
-0.9541016, 0.0800781, -0.2739258, -34.7560997, -5.3658538, -10.4268293, 0.0046998
-0.9521484, 0.0742188, -0.2685547, -34.8780479, -5.1219511, -10, -0.017792
-0.9541016, 0.0756836, -0.2543945, -34.6341476, -4.8170733, -10.1829271, -0.03122
-0.9521484, 0.0761719, -0.2504883, -34.2073174, -4.5731707, -9.2073174, -0.0476692
-0.9545898, 0.0708008, -0.2431641, -34.5121956, -4.6951222, -8.9024391, -0.0547189
-0.9511719, 0.0737305, -0.2387695, -34.2682953, -4.0853658, -7.8658538, -0.0587472
-0.9433594, 0.0810547, -0.2358398, -34.0853653, -4.0853658, -7.5609756, -0.0674754
-0.9443359, 0.0957031, -0.2382812, -33.5975609, -3.1097562, -7.1341467, -0.0728466
-0.9443359, 0.0986328, -0.2421875, -34.3902435, -2.6829269, -7.3170733, -0.0862745
-0.9414062, 0.105957, -0.2460938, -35.1219521, -2.4390244, -7.5609756, -0.1000381
-0.9443359, 0.109375, -0.2495117, -36.5243912, -2.3170731, -7.9878049, -0.1040665
-0.9589844, 0.109375, -0.2539062, -36.9512215, -2.0731707, -7.7439027, -0.0976883
-0.9589844, 0.1044922, -0.2529297, -38.3536606, -2.1341465, -6.9512196, -0.0970169
-0.9580078, 0.0917969, -0.2509766, -38.7195129, -2.2560976, -6.7073174, -0.0970169
-0.9521484, 0.0874023, -0.2504883, -39.2682953, -2.195122, -5.609756, -0.0909743
-0.9462891, 0.0786133, -0.2519531, -39.0853653, -2.2560976, -5.3658538, -0.0809033
-0.9501953, 0.0820312, -0.2524414, -39.3292694, -1.8292683, -5.3048782, -0.0788891
-0.9560547, 0.0839844, -0.2514648, -39.2073174, -1.5853659, -5.609756, -0.0839246
-0.9741211, 0.090332, -0.253418, -38.7195129, -1.7073171, -5.8536587, -0.0876173
-0.987793, 0.09375, -0.2539062, -39.0243912, -2.1341465, -5.8536587, -0.0973526
-1.0063477, 0.1000977, -0.2700195, -39.1463432, -2.3780489, -5.7317076, -0.1104448
-1.0102539, 0.1035156, -0.2753906, -39.5731735, -3.1097562, -5, -0.1164874
-1.0180664, 0.0942383, -0.284668, -40.0609779, -3.2926829, -4.6341462, -0.1084306
-1.0239258, 0.0913086, -0.2919922, -40.8536606, -4.6341462, -3.2317073, -0.0936599
-1.0317383, 0.0834961, -0.2905273, -41.2804871, -5.609756, -3.1097562, -0.0809033
-1.0317383, 0.0830078, -0.2822266, -42.1951218, -7.3170733, -2.5609756, -0.070161
-1.0302734, 0.0810547, -0.2763672, -42.0731735, -8.1097565, -2.3780489, -0.0661326
-1.03125, 0.0771484, -0.277832, -41.8292694, -9.4512196, -2.2560976, -0.0433051
-1.0244141, 0.0742188, -0.2822266, -41.2804871, -10.1219511, -1.8902439, -0.0167849
-1.0151367, 0.0708008, -0.2856445, -40.9756088, -11.5853662, -1.2804878, -0.0070497
-1.0170898, 0.0722656, -0.2836914, -40.3048782, -12.9268293, -0.8536586, -0.0030213
-1.0048828, 0.0742188, -0.2851562, -40.1219521, -13.4146347, -0.4268293, -0.0070497
-1.003418, 0.0771484, -0.2827148, -39.6951218, -14.3292685, 0.0609756, -0.0036927
-0.9941406, 0.081543, -0.284668, -39.6951218, -15.2439032, 0.3048781, 0.0030213
-0.9897461, 0.0795898, -0.2861328, -39.8780479, -16.5853653, 0.4268293, 0.0117494
-0.972168, 0.0737305, -0.2763672, -40, -17.0731716, 0.2439024, 0.0130922
-0.972168, 0.0683594, -0.269043, -40.2439041, -18.1707325, 0.5487805, 0.011078
-0.9609375, 0.0576172, -0.2636719, -40.4878044, -18.8414631, 0.2439024, 0.0046998
-0.9560547, 0.0444336, -0.2626953, -40.1219521, -18.8414631, 0.2439024, -0.017792
-0.9541016, 0.0380859, -0.2578125, -39.8780479, -18.9024391, 0.2439024, -0.0480049
-0.9589844, 0.0239258, -0.2490234, -39.6951218, -18.8414631, 0.6097561, -0.0530404
-0.9589844, 0.0205078, -0.2416992, -39.0243912, -18.780489, 0.9756098, -0.0587472
-0.9663086, 0.0224609, -0.2216797, -38.5365868, -18.3536587, 1.2804878, -0.0755322
-0.9702148, 0.0292969, -0.2075195, -37.2560997, -17.8048782, 2.3780489, -0.0782177
-0.9716797, 0.0439453, -0.1889648, -36.8902435, -17.8048782, 2.7439024, -0.0889601
-0.9697266, 0.0541992, -0.1860352, -35.6707344, -16.9512196, 3.0487804, -0.0869459
-0.9731445, 0.074707, -0.1850586, -35.4878044, -16.7073174, 3.5365853, -0.0822461
-0.972168, 0.0864258, -0.1782227, -35.6097565, -15.7926836, 4.0243902, -0.063447
-0.972168, 0.1196289, -0.1582031, -36.2804871, -15.3048782, 4.6951222, -0.0678111
-0.9707031, 0.1430664, -0.1464844, -38.2926826, -14.2682934, 5.0609756, -0.0960098
-0.9609375, 0.1489258, -0.1416016, -39.2682953, -13.7195129, 5.3658538, -0.0916457
-0.9443359, 0.1469727, -0.1357422, -41.0365868, -12.9878054, 5.3048782, -0.0587472
-0.9375, 0.1425781, -0.1303711, -43.7195129, -11.8292685, 4.7560978, -0.0070497
-0.9301758, 0.125, -0.1176758, -44.7560997, -11.5853662, 4.7560978, 0.0352483
-0.9257812, 0.1157227, -0.1171875, -45.8536606, -10.060976, 4.5121951, 0.0570687
-0.9223633, 0.0981445, -0.1333008, -45.4878044, -9.1463413, 4.5121951, 0.0691539
-0.9165039, 0.0864258, -0.1484375, -45.4268303, -6.3414636, 4.0243902, 0.0788891
-0.9306641, 0.0649414, -0.1811523, -45.6097565, -5.2439027, 3.7804878, 0.0809033
-0.9404297, 0.0556641, -0.1879883, -45.6097565, -3.3536587, 2.8658538, 0.0637827
-0.9697266, 0.0400391, -0.199707, -45.6097565, -2.9268293, 2.4390244, 0.0503548
-1.012207, 0.03125, -0.2084961, -44.6951218, -2.7439024, 2.4390244, 0.0231632
-1.03125, 0.0356445, -0.2177734, -43.4146347, -2.8658538, 2.804878, -0.0097353
-1.0581055, 0.0473633, -0.234375, -42.0121956, -3.1097562, 4.4512196, -0.0292058
-1.0668945, 0.0522461, -0.2333984, -41.6463432, -4.0853658, 5.9146342, -0.0399481
-1.0810547, 0.0644531, -0.2348633, -41.7073174, -4.7560978, 6.4024391, -0.0439765
-1.0830078, 0.0683594, -0.2353516, -40.8536606, -6.2195125, 7.2560978, -0.0486763
-1.090332, 0.0810547, -0.2407227, -40.5487823, -7.6829271, 7.6829271, -0.0594186
-1.0898438, 0.090332, -0.2456055, -39.7560997, -10.1219511, 8.4756098, -0.0688182
-1.0771484, 0.078125, -0.2495117, -39.5731735, -11.219512, 8.9024391, -0.0983597
-1.0688477, 0.0688477, -0.246582, -38.841465, -13.5975609, 9.8170738, -0.1037308
-1.0449219, 0.0473633, -0.2426758, -37.5609779, -14.4512196, 10, -0.0950027
-1.0283203, 0.0380859, -0.2382812, -35.5487823, -16.280489, 10.4878054, -0.0943313
-1.0253906, 0.0395508, -0.2368164, -34.1463432, -17.1341476, 10.1829271, -0.0943313
-1.019043, 0.046875, -0.2241211, -31.280489, -18.7195129, 10.6707315, -0.0983597
-1.0170898, 0.0522461, -0.2163086, -28.841465, -20.3048782, 11.0975609, -0.0960098
-1.0073242, 0.0717773, -0.2114258, -27.6829281, -20.6097565, 11.0365858, -0.0869459
-1.0053711, 0.0791016, -0.2094727, -25.6707325, -21.7682934, 11.280488, -0.070161
-1.003418, 0.0976562, -0.2128906, -25, -22.1951218, 10.9756098, -0.0557259
-1.0043945, 0.1005859, -0.2148438, -24.2073174, -22.8658543, 10.2439022, -0.0419623
-1.0136719, 0.1132812, -0.2197266, -24.1463413, -23.4146347, 10.1219511, -0.0446479
-1.0146484, 0.1196289, -0.2192383, -24.5731716, -24.3902435, 10.2439022, -0.056733
-1.0195312, 0.1230469, -0.2158203, -24.8170738, -24.8170738, 10, -0.0748608
-1.0141602, 0.1240234, -0.2099609, -25.9146347, -25, 9.9390249, -0.1010452
-1.0146484, 0.1220703, -0.2055664, -26.4634151, -24.7560978, 9.6341467, -0.0997024
-1.0161133, 0.1201172, -0.1826172, -27.0731716, -24.8780499, 8.9024391, -0.1067521
-1.0175781, 0.121582, -0.1713867, -27.0731716, -25.9756107, 7.9878049, -0.0788891
-1.0209961, 0.1230469, -0.1542969, -26.9512196, -26.0975609, 7.9268293, -0.066804
-1.019043, 0.1181641, -0.152832, -25.9756107, -26.0975609, 7.8048782, -0.0533761
-1.0083008, 0.1254883, -0.1552734, -25.9146347, -26.1585369, 7.9878049, -0.0352483
-0.9995117, 0.1298828, -0.1542969, -25.1829281, -26.0975609, 8.0487804, -0.0305486
-0.9990234, 0.1347656, -0.1591797, -25.1829281, -26.2195129, 8.1097565, -0.0412909
-0.9926758, 0.1381836, -0.1625977, -25.4878063, -26.2195129, 8.4756098, -0.0459907
-0.9814453, 0.152832, -0.168457, -25.6707325, -26.1585369, 8.4146347, -0.0533761
-0.9785156, 0.1513672, -0.1713867, -26.1585369, -25.7317085, 8.1097565, -0.06009
-0.9760742, 0.1533203, -0.171875, -26.4024391, -25.1829281, 7.8048782, -0.0664683
-0.9824219, 0.1557617, -0.1777344, -27.4390259, -24.6341476, 7.0121951, -0.073518
-0.9926758, 0.1538086, -0.1791992, -28.5365868, -24.1463413, 6.3414636, -0.0762036
-1.003418, 0.1459961, -0.1855469, -29.0243912, -23.780489, 6.1585369, -0.0923171
-1.0048828, 0.1445312, -0.1899414, -29.1463413, -23.1097565, 5.7317076, -0.0866102
-1.0126953, 0.1352539, -0.1977539, -29.6951218, -23.0487804, 5.4878049, -0.0647898
-1.0161133, 0.1269531, -0.2021484, -30.8536587, -23.1707325, 5, -0.0574044
-1.0214844, 0.1142578, -0.1982422, -31.4634151, -22.8658543, 4.3292685, -0.0409552
-1.0297852, 0.0991211, -0.1865234, -30.9146347, -22.9878063, 4.0853658, -0.021149
-1.0493164, 0.081543, -0.1625977, -29.5121956, -23.3536587, 3.8414636, -0.0083925
-1.0517578, 0.0737305, -0.159668, -27.8048782, -24.2073174, 4.7560978, -0.0023499
-1.0532227, 0.074707, -0.1655273, -27.1341476, -24.2073174, 5.2439027, 0.0043641
-1.0551758, 0.0742188, -0.1694336, -26.1585369, -23.8414631, 5.9146342, -0.011078
-1.0522461, 0.0810547, -0.1699219, -25.060976, -23.9634151, 6.8292685, -0.0271916
-1.034668, 0.0854492, -0.1640625, -24.7560978, -24.6951218, 7.3780489, -0.0406195
-1.0302734, 0.0878906, -0.1630859, -23.1707325, -25.3048782, 7.0731707, -0.0540475
-1.0136719, 0.0859375, -0.1577148, -22.0121956, -25.6707325, 7.0731707, -0.056733
-1.0078125, 0.0849609, -0.1591797, -19.5121956, -25.8536587, 6.4634147, -0.0594186
-1.0019531, 0.0966797, -0.1606445, -18.6585369, -25.4878063, 6.1585369, -0.0513619
-1.0029297, 0.1020508, -0.1630859, -17.2560978, -24.9390259, 5.8536587, -0.0557259
-0.9946289, 0.1240234, -0.1616211, -17.5, -24.6341476, 5.670732, -0.0476692
-0.9970703, 0.1455078, -0.1640625, -17.560976, -23.9024391, 5.3048782, -0.0553902
-0.9931641, 0.1523438, -0.1679688, -18.0487804, -24.1463413, 5.2439027, -0.0513619
-0.9794922, 0.1694336, -0.1772461, -19.6951218, -24.0853672, 4.5731707, -0.0433051
-0.9770508, 0.171875, -0.1860352, -21.280489, -24.2073174, 3.9024391, -0.0547189
-0.9711914, 0.1582031, -0.2026367, -22.5, -24.6341476, 3.6585367, -0.056733
-0.9663086, 0.1455078, -0.203125, -24.0243912, -25, 3.3536587, -0.0406195
-0.9521484, 0.1191406, -0.206543, -24.8780499, -25.1829281, 3.2317073, -0.024506
-0.9477539, 0.1044922, -0.199707, -26.4024391, -25.4878063, 2.4390244, -0.0318914
-0.9472656, 0.0839844, -0.1953125, -26.4634151, -25.060976, 2.5, -0.0439765
-0.9482422, 0.0791016, -0.1914062, -26.4634151, -25.060976, 1.5243902, -0.0486763
-0.9575195, 0.0649414, -0.1918945, -26.5853672, -24.8780499, 1.1585366, -0.042298
-0.9692383, 0.0600586, -0.199707, -25.4268303, -24.6341476, 0.0609756, -0.0325628
-0.9746094, 0.0585938, -0.2070312, -24.7560978, -25.4878063, -0.1829268, -0.017792
-0.9936523, 0.0493164, -0.2016602, -24.3292694, -26.0365868, -0.8536586, -0.0057069
-0.9980469, 0.0522461, -0.1875, -24.0243912, -26.9512196, -1.5243902, -0.0046998
-1.0214844, 0.0581055, -0.1601562, -23.0487804, -27.0731716, -1.7682927, -0.0070497
-1.0375977, 0.0722656, -0.152832, -20.7926826, -27.3170738, -1.6463414, -0.0258488
-1.0541992, 0.0976562, -0.1489258, -20, -27.2560978, -1.3414634, -0.0594186
-1.0610352, 0.1147461, -0.1547852, -18.7195129, -27.1341476, -0.5487805, -0.0869459
-1.0585938, 0.1469727, -0.1606445, -19.0853672, -27.4390259, 0, -0.1040665
-1.0517578, 0.1586914, -0.159668, -20.7926826, -28.2317085, 0.3048781, -0.1379721
-1.0351562, 0.1708984, -0.1494141, -21.7682934, -28.4756107, 0.3658537, -0.1641566
-1.0083008, 0.1635742, -0.137207, -24.2682934, -28.5365868, 0.1219512, -0.1829557
-0.9916992, 0.1518555, -0.1318359, -27.1341476, -27.6219521, -0.4878049, -0.1963836
-0.953125, 0.1269531, -0.1157227, -28.4756107, -27.2560978, -1.0365853, -0.1883268
-0.9350586, 0.1147461, -0.1064453, -31.8902454, -26.7682934, -3.4756098, -0.1594568
-0.9213867, 0.0927734, -0.0712891, -33.1097565, -25.7317085, -5, -0.1144732
-0.9233398, 0.0820312, -0.0546875, -34.4512215, -22.9878063, -6.6463418, -0.056733
-0.9316406, 0.0683594, -0.0268555, -33.7804871, -21.0365868, -6.890244, 0.0224918
-0.9399414, 0.0668945, -0.0224609, -33.0487823, -17.1951218, -7.0731707, 0.1044022
-0.9506836, 0.0722656, -0.0200195, -32.8658562, -15.7317076, -7.3780489, 0.1769131
-0.9643555, 0.0693359, -0.0258789, -32.5609779, -13.2926836, -7.7439027, 0.21149
-0.9785156, 0.0800781, -0.0522461, -32.4390259, -12.3170738, -8.2317076, 0.2145113
-0.9819336, 0.1030273, -0.0883789, -33.1707306, -10.9756098, -8.3536587, 0.1809415
-0.9819336, 0.1171875, -0.1054688, -35.3048782, -9.5121956, -8.841464, 0.1416648
-0.9848633, 0.1352539, -0.1313477, -36.6463432, -9.1463413, -9.2682924, 0.1013809
-0.9858398, 0.140625, -0.1386719, -40.1829262, -7.9268293, -10.4268293, 0.0594186
-0.9887695, 0.1333008, -0.1416016, -41.7073174, -7.7439027, -10.9756098, 0.0164492
-0.9892578, 0.1303711, -0.1411133, -44.0853653, -7.1341467, -12.0731707, -0.0171206
-0.9990234, 0.1113281, -0.1455078, -45.2439041, -7.0731707, -12.560976, -0.0392767
-1.0102539, 0.0986328, -0.1420898, -47.0731735, -6.3414636, -13.5365858, -0.0580758
-1.0341797, 0.0737305, -0.1333008, -47.3170738, -5.7317076, -14.0853662, -0.0449836
-1.0429688, 0.0639648, -0.1298828, -47.1951218, -5.3048782, -14.6951227, -0.0285344
-1.0644531, 0.0473633, -0.128418, -47.0731735, -5, -14.5731707, -0.0339055
-1.0839844, 0.0385742, -0.1279297, -46.7073174, -5.2439027, -14.7560978, -0.021149
-1.0908203, 0.0336914, -0.1274414, -46.4634171, -5.5487804, -14.3902445, -0.011078
-1.1005859, 0.0385742, -0.1254883, -46.0975609, -6.1585369, -14.2073174, -0.021149
-1.1015625, 0.0415039, -0.121582, -45.5487823, -7.1951222, -13.2926836, -0.0258488
-1.0996094, 0.0478516, -0.1191406, -44.9390259, -7.7439027, -12.8048782, -0.0154421
-1.0878906, 0.0478516, -0.1210938, -44.4512215, -8.9024391, -12.7439032, -0.0218204
-1.0678711, 0.0556641, -0.1176758, -44.1463432, -9.6951218, -12.7439032, -0.0265202
-1.0576172, 0.0600586, -0.1157227, -43.7195129, -10.3658543, -12.6829271, -0.027863
-1.0317383, 0.0678711, -0.1113281, -44.0243912, -10.3048782, -12.6219511, -0.0265202
-1.0249023, 0.0708008, -0.105957, -43.7195129, -9.9390249, -13.0487804, -0.0218204
-1.0170898, 0.0776367, -0.1152344, -43.6585388, -9.4512196, -13.2317076, -0.0181277
-1.0068359, 0.0820312, -0.1259766, -44.3292694, -9.3292685, -14.1463413, -0.011078
-1.0092773, 0.0825195, -0.1264648, -45.3658562, -9.3902445, -15.3658543, -0.0151064
-1.019043, 0.0922852, -0.1308594, -46.1585388, -9.2682924, -15.9756098, 0.0003357
-1.0258789, 0.0986328, -0.1396484, -47.0731735, -9.4512196, -16.6463413, -0.0010071
-1.0361328, 0.1025391, -0.1479492, -47.5, -9.8170738, -16.3414631, -0.0003357
-1.0429688, 0.1040039, -0.1489258, -48.1707344, -10.7926836, -16.4024391, 0.0050355
-1.0439453, 0.1054688, -0.1518555, -48.9024391, -11.219512, -16.5853653, -0.0137636
-1.0478516, 0.1040039, -0.1450195, -50.6707344, -12.5, -17.0121956, -0.0261845
-1.0473633, 0.090332, -0.137207, -51.7073174, -12.8048782, -17.3170738, -0.0339055
-1.0610352, 0.0708008, -0.1435547, -52.7439041, -13.4756098, -18.3536587, -0.0352483
-1.0615234, 0.0610352, -0.1494141, -53.4756126, -13.9024391, -18.6585369, -0.0480049
-1.0649414, 0.0375977, -0.1586914, -54.0853653, -15.1829271, -18.7195129, -0.0540475
-1.0698242, 0.0224609, -0.1601562, -55.9146347, -16.7682934, -18.1707325, -0.0506905
-1.0742188, -0.003418, -0.1455078, -56.1585388, -17.1951218, -18.2926826, -0.0674754
-1.0766602, -0.0209961, -0.1289062, -56.341465, -18.9634151, -17.0731716, -0.0731823
-1.0712891, -0.0532227, -0.1005859, -55.9756126, -19.7560978, -16.5853653, -0.0621042
-1.0678711, -0.0668945, -0.0898438, -53.2317085, -21.3414631, -15.3658543, -0.0547189
-1.065918, -0.0932617, -0.0717773, -51.5243912, -21.6463413, -14.4512196, -0.0500191
-1.0634766, -0.1000977, -0.0625, -47.3170738, -22.439024, -12.6829271, -0.0493477
-1.0517578, -0.1118164, -0.0678711, -45.1829262, -23.1097565, -11.7073174, -0.0520333
-1.0371094, -0.1176758, -0.081543, -40.4268303, -23.5365868, -9.3292685, -0.0574044
-1.0249023, -0.1147461, -0.0898438, -38.7195129, -24.0853672, -8.5365858, -0.0607614
-1.0043945, -0.0913086, -0.0898438, -35.8536606, -25.3048782, -6.8292685, -0.0506905
-0.9951172, -0.0795898, -0.0849609, -34.5121956, -26.280489, -5.4268293, -0.0436408
-0.9804688, -0.0380859, -0.0737305, -33.841465, -26.7073174, -4.4512196, -0.0486763
-0.9707031, -0.0205078, -0.0668945, -32.8658562, -26.4634151, -3.1707318, -0.0621042
-0.9594727, 0.0224609, -0.0576172, -32.5609779, -26.5853672, -3.0487804, -0.0654612
-0.9575195, 0.0405273, -0.0620117, -32.3780479, -26.5243912, -3.4756098, -0.0802319
-0.9545898, 0.0517578, -0.0737305, -32.2560997, -26.4634151, -3.9024391, -0.0849317
-0.9584961, 0.0532227, -0.081543, -32.7439041, -26.3414631, -5.670732, -0.0852674
-0.984375, 0.0405273, -0.1000977, -33.1707306, -26.1585369, -6.280488, -0.0795605
-1.0146484, 0.0239258, -0.1166992, -33.5975609, -26.2195129, -6.5243902, -0.0741894
-1.0239258, 0.0224609, -0.1225586, -34.0853653, -26.6463413, -6.3414636, -0.0741894
-1.046875, 0.0112305, -0.121582, -35.1219521, -27.1951218, -5.4268293, -0.070161
-1.0522461, 0.0112305, -0.1162109, -35.9146347, -28.841465, -3.9634147, -0.0627756
-1.0600586, 0.0146484, -0.0888672, -36.4634171, -29.4512196, -3.5975611, -0.0621042
-1.0585938, 0.0161133, -0.0737305, -36.5243912, -30, -2.2560976, -0.0553902
-1.0478516, 0.0151367, -0.0473633, -36.5853653, -29.7560978, -1.6463414, -0.0493477
-1.0341797, 0.0170898, -0.0444336, -35.4268303, -29.6951218, -0.6097561, -0.0433051
-1.0102539, 0.0244141, -0.0415039, -34.6341476, -29.0853672, 0.1219512, -0.0372625
-0.9975586, 0.0234375, -0.046875, -34.6951218, -28.780489, 0.6097561, -0.0345769
-0.9697266, 0.0214844, -0.0585938, -34.9390259, -28.2317085, 0.8536586, -0.0332341
-0.953125, 0.0151367, -0.0717773, -35.2439041, -27.560976, 0.8536586, -0.0392767
-0.9428711, 0.0131836, -0.0756836, -35.4878044, -27.0731716, 0.8536586, -0.0459907
-0.9370117, 0.0092773, -0.0834961, -34.8780479, -26.5243912, 0.4268293, -0.0446479
-0.9370117, 0.0087891, -0.0898438, -33.841465, -26.280489, 0.4268293, -0.0547189
-0.9414062, 0.0180664, -0.1074219, -33.4756088, -26.2195129, 0.2439024, -0.0674754
-0.9492188, 0.0253906, -0.1186523, -32.9878044, -26.2195129, -0.4268293, -0.0775463
-0.9663086, 0.0390625, -0.1401367, -32.9878044, -26.2195129, -0.6097561, -0.0728466
-0.9760742, 0.0419922, -0.1499023, -33.1097565, -26.8292694, -0.6097561, -0.0809033
-1.0039062, 0.0551758, -0.15625, -33.3536606, -27.3780499, -0.7926829, -0.0785534
-1.0151367, 0.0566406, -0.1606445, -34.3292694, -28.1707325, -0.6707317, -0.0822461
-1.0385742, 0.0698242, -0.1582031, -35.1219521, -28.7195129, -0.3048781, -0.0933242
-1.0522461, 0.0776367, -0.1542969, -36.5243912, -30.060976, 0.1829268, -0.0862745
-1.0488281, 0.0830078, -0.1503906, -37.6219521, -30.9756107, 0.6097561, -0.0762036
-1.046875, 0.0859375, -0.1401367, -39.2073174, -32.0121956, 1.2804878, -0.0681468
-1.0439453, 0.0859375, -0.1367188, -40.6097565, -32.5609779, 1.5853659, -0.0624399
-1.0273438, 0.0727539, -0.1264648, -41.0365868, -33.2317085, 1.6463414, -0.0607614
-1.0131836, 0.0600586, -0.1176758, -41.7682953, -33.7195129, 1.5853659, -0.06009
-0.9887695, 0.0419922, -0.1098633, -42.1341476, -33.5365868, 1.5243902, -0.0688182
-0.9765625, 0.0371094, -0.105957, -41.9512215, -32.9268303, 1.5853659, -0.0802319
-0.9648438, 0.0283203, -0.0986328, -41.6463432, -32.1951218, 1.8292683, -0.0929885
-0.9584961, 0.0258789, -0.0927734, -41.5243912, -31.4634151, 2.0731707, -0.1067521
-0.9467773, 0.0307617, -0.081543, -41.4634171, -30.8536587, 1.8902439, -0.1185016
-0.9423828, 0.0361328, -0.0683594, -41.5853653, -29.6341476, 1.8902439, -0.1225299
-0.9428711, 0.0385742, -0.0654297, -41.7073174, -29.0243912, 1.8902439, -0.1272297
-0.9355469, 0.0419922, -0.0668945, -41.6463432, -27.7439022, 1.5853659, -0.119173
-0.9375, 0.0429688, -0.0678711, -41.6463432, -26.4634151, 1.3414634, -0.1044022
-0.9492188, 0.0483398, -0.0776367, -41.7682953, -25.8536587, 1.1585366, -0.0983597
-0.9541016, 0.0566406, -0.0869141, -42.0121956, -24.8780499, 0.7317073, -0.1030594
-0.9672852, 0.0629883, -0.0966797, -41.4634171, -23.9634151, 0.6707317, -0.1070878
-0.9785156, 0.0664062, -0.0981445, -41.6463432, -23.2317085, 1.0365853, -0.1010452
-0.9892578, 0.0742188, -0.1025391, -42.3780479, -23.4756107, 1.097561, -0.1050736
-0.9936523, 0.0761719, -0.1064453, -43.7195129, -23.2926826, 0.7317073, -0.0869459
-1.0126953, 0.0751953, -0.1025391, -43.7804871, -22.6829281, 0.3658537, -0.0822461
-1.0288086, 0.0805664, -0.1030273, -44.1463432, -22.6829281, -0.1219512, -0.0815747
-1.0366211, 0.0820312, -0.1079102, -44.3292694, -22.6829281, -0.2439024, -0.0782177
-1.0390625, 0.0913086, -0.1054688, -44.7560997, -22.6219521, -0.1829268, -0.0741894
-1.0449219, 0.0932617, -0.1044922, -45.8536606, -22.6219521, 0.3658537, -0.0876173
-1.0458984, 0.0898438, -0.0849609, -46.4634171, -22.6829281, 0.3658537, -0.0923171
-1.0415039, 0.0913086, -0.0795898, -46.7073174, -21.8902435, 0.5487805, -0.0862745
-1.0410156, 0.0825195, -0.0771484, -47.0121956, -21.280489, 0.9146342, -0.0862745
-1.0327148, 0.0820312, -0.0751953, -47.3780518, -20.3658543, 0.8536586, -0.0936599
-1.0170898, 0.0693359, -0.081543, -47.7439041, -20.060976, 0.7926829, -0.1067521
-1.0048828, 0.0610352, -0.0844727, -47.9268303, -19.3902435, 0.6097561, -0.1030594
-0.9912109, 0.0532227, -0.0981445, -47.6829262, -18.8414631, 0.5487805, -0.0997024
-0.980957, 0.0507812, -0.1025391, -47.9878044, -18.1097565, 0.4878049, -0.0983597
-0.9746094, 0.0493164, -0.1000977, -48.3536606, -18.0487804, 0.4268293, -0.0889601
-0.9716797, 0.0439453, -0.0888672, -49.2682953, -18.0487804, 0.1219512, -0.0822461
-0.9746094, 0.0419922, -0.0791016, -49.9390259, -17.6829281, -0.7926829, -0.0607614
-0.9829102, 0.0405273, -0.0620117, -49.6951218, -16.9512196, -1.2804878, -0.0261845
-0.9931641, 0.0419922, -0.0605469, -47.8658562, -16.2195129, -2.0731707, 0.0010071
-1.0126953, 0.0493164, -0.0712891, -46.4024391, -15.6707325, -2.1341465, 0.0198062
-1.0234375, 0.0556641, -0.0834961, -43.841465, -14.5121956, -2.0731707, 0.0224918
-1.0483398, 0.0683594, -0.1064453, -43.0487823, -14.2073174, -2.0731707, 0.0184634
-1.0620117, 0.0722656, -0.1132812, -42.7439041, -14.4512196, -2.3170731, 0.0164492
-1.0825195, 0.078125, -0.1181641, -42.8658562, -15.1219511, -2.1341465, 0.0198062
